,state1,stim_left,stim_right,rt_1,choice1,response1,rt_2,points,state2,stim_state2,stake,score,practice,rews1,rews2,background,high_arm,trial_type,trial_index,time_elapsed,internal_node_id,subid,hitid,assignmentid,stim_left_num,stim_right_num
0,4,object_10,object_04,738.19999998808,8,1,1324.5,0.3333333333333333,2,object_06,1,3,0,6,3,restaurant_4,2,memory-2step-stake-s,496,1963269,0.0-19.0-0.0-0.0,A1N1ULK71RHVMM,30UZJB2PPKSSO21QHKUJ0S8JS3B35M,3JC6VJ2SAFZVU6Y5G1EVCKICSQ75AN,8,7
1,2,object_05,object_09,662.80000001192,3,2,1033.6000000238,0.7777777777777778,1,object_01,5,38,0,7,1,forest_1,2,memory-2step-stake-s,497,1972358,0.0-19.0-0.0-0.1,A1N1ULK71RHVMM,30UZJB2PPKSSO21QHKUJ0S8JS3B35M,3JC6VJ2SAFZVU6Y5G1EVCKICSQ75AN,4,3
2,2,object_05,object_09,560.80000001192,3,2,834.29999995232,0.5555555555555556,1,object_01,5,63,0,5,1,forest_6,2,memory-2step-stake-s,498,1981028,0.0-19.0-0.0-0.2,A1N1ULK71RHVMM,30UZJB2PPKSSO21QHKUJ0S8JS3B35M,3JC6VJ2SAFZVU6Y5G1EVCKICSQ75AN,4,3
3,1,object_08,object_03,879.69999998808,1,2,719.0,0.4444444444444444,1,object_01,5,83,0,4,5,desert_3,2,memory-2step-stake-s,499,1989468,0.0-19.0-0.0-0.3,A1N1ULK71RHVMM,30UZJB2PPKSSO21QHKUJ0S8JS3B35M,3JC6VJ2SAFZVU6Y5G1EVCKICSQ75AN,2,1
4,1,object_03,object_08,477.60000002384,1,1,775.30000001192,0.2222222222222222,1,object_01,1,85,0,2,6,desert_7,2,memory-2step-stake-s,500,1997748,0.0-19.0-0.0-0.4,A1N1ULK71RHVMM,30UZJB2PPKSSO21QHKUJ0S8JS3B35M,3JC6VJ2SAFZVU6Y5G1EVCKICSQ75AN,1,2
5,1,object_08,object_03,768.39999997616,2,1,558.30000001192,0.6666666666666666,2,object_06,5,115,0,5,6,desert_1,2,memory-2step-stake-s,501,2006228,0.0-19.0-0.0-0.5,A1N1ULK71RHVMM,30UZJB2PPKSSO21QHKUJ0S8JS3B35M,3JC6VJ2SAFZVU6Y5G1EVCKICSQ75AN,2,1
6,1,object_03,object_08,721.89999997616,2,2,1073.1999999881,0.5555555555555556,2,object_06,5,140,0,6,5,desert_7,2,memory-2step-stake-s,502,2015137,0.0-19.0-0.0-0.6,A1N1ULK71RHVMM,30UZJB2PPKSSO21QHKUJ0S8JS3B35M,3JC6VJ2SAFZVU6Y5G1EVCKICSQ75AN,1,2
7,4,object_10,object_04,1049.8000000119,8,1,867.09999996424,0.7777777777777778,2,object_06,5,175,0,6,7,restaurant_7,2,memory-2step-stake-s,503,2024058,0.0-19.0-0.0-0.7,A1N1ULK71RHVMM,30UZJB2PPKSSO21QHKUJ0S8JS3B35M,3JC6VJ2SAFZVU6Y5G1EVCKICSQ75AN,8,7
8,3,object_07,object_02,747.29999995232,6,2,533.89999997616,0.8888888888888888,2,object_06,1,183,0,5,8,library_4,2,memory-2step-stake-s,504,2032748,0.0-19.0-0.0-0.8,A1N1ULK71RHVMM,30UZJB2PPKSSO21QHKUJ0S8JS3B35M,3JC6VJ2SAFZVU6Y5G1EVCKICSQ75AN,5,6
9,4,object_04,object_10,969.5,8,2,600.89999997616,0.3333333333333333,2,object_06,1,186,0,7,3,restaurant_4,2,memory-2step-stake-s,505,2040957,0.0-19.0-0.0-0.9,A1N1ULK71RHVMM,30UZJB2PPKSSO21QHKUJ0S8JS3B35M,3JC6VJ2SAFZVU6Y5G1EVCKICSQ75AN,7,8
10,1,object_08,object_03,1039.5999999642,2,1,543.20000004768,0.4444444444444444,2,object_06,5,206,0,5,4,desert_4,2,memory-2step-stake-s,506,2049217,0.0-19.0-0.0-0.10,A1N1ULK71RHVMM,30UZJB2PPKSSO21QHKUJ0S8JS3B35M,3JC6VJ2SAFZVU6Y5G1EVCKICSQ75AN,2,1
11,1,object_03,object_08,805.79999995232,2,2,509.5,0.4444444444444444,2,object_06,1,210,0,6,4,desert_7,2,memory-2step-stake-s,507,2057428,0.0-19.0-0.0-0.11,A1N1ULK71RHVMM,30UZJB2PPKSSO21QHKUJ0S8JS3B35M,3JC6VJ2SAFZVU6Y5G1EVCKICSQ75AN,1,2
12,4,object_04,object_10,619.29999995232,7,1,551.69999998808,0.5555555555555556,1,object_01,1,215,0,5,9,restaurant_2,2,memory-2step-stake-s,508,2065838,0.0-19.0-0.0-0.12,A1N1ULK71RHVMM,30UZJB2PPKSSO21QHKUJ0S8JS3B35M,3JC6VJ2SAFZVU6Y5G1EVCKICSQ75AN,7,8
13,3,object_07,object_02,665.70000004768,6,2,532.09999996424,0.5555555555555556,2,object_06,1,220,0,2,5,library_6,2,memory-2step-stake-s,509,2074198,0.0-19.0-0.0-0.13,A1N1ULK71RHVMM,30UZJB2PPKSSO21QHKUJ0S8JS3B35M,3JC6VJ2SAFZVU6Y5G1EVCKICSQ75AN,5,6
14,2,object_09,object_05,729.5,3,1,572.09999996424,0.5555555555555556,1,object_01,5,245,0,5,1,forest_1,2,memory-2step-stake-s,510,2082619,0.0-19.0-0.0-0.14,A1N1ULK71RHVMM,30UZJB2PPKSSO21QHKUJ0S8JS3B35M,3JC6VJ2SAFZVU6Y5G1EVCKICSQ75AN,3,4
15,3,object_07,object_02,780.30000001192,5,1,501.69999998808,0.2222222222222222,1,object_01,1,247,0,2,3,library_5,2,memory-2step-stake-s,511,2090618,0.0-19.0-0.0-0.15,A1N1ULK71RHVMM,30UZJB2PPKSSO21QHKUJ0S8JS3B35M,3JC6VJ2SAFZVU6Y5G1EVCKICSQ75AN,5,6
16,2,object_05,object_09,885.89999997616,3,2,525.69999998808,0.3333333333333333,1,object_01,5,262,0,3,4,forest_2,2,memory-2step-stake-s,512,2098758,0.0-19.0-0.0-0.16,A1N1ULK71RHVMM,30UZJB2PPKSSO21QHKUJ0S8JS3B35M,3JC6VJ2SAFZVU6Y5G1EVCKICSQ75AN,4,3
17,4,object_10,object_04,993.69999998808,7,2,660.09999996424,0.3333333333333333,1,object_01,1,265,0,3,5,restaurant_4,2,memory-2step-stake-s,513,2107038,0.0-19.0-0.0-0.17,A1N1ULK71RHVMM,30UZJB2PPKSSO21QHKUJ0S8JS3B35M,3JC6VJ2SAFZVU6Y5G1EVCKICSQ75AN,8,7
18,3,object_07,object_02,749.09999996424,5,1,510.5,0.4444444444444444,1,object_01,1,269,0,4,6,library_4,2,memory-2step-stake-s,514,2115278,0.0-19.0-0.0-0.18,A1N1ULK71RHVMM,30UZJB2PPKSSO21QHKUJ0S8JS3B35M,3JC6VJ2SAFZVU6Y5G1EVCKICSQ75AN,5,6
19,3,object_02,object_07,712.39999997616,5,2,467.5,0.8888888888888888,1,object_01,1,277,0,8,4,library_3,2,memory-2step-stake-s,515,2123898,0.0-19.0-0.0-0.19,A1N1ULK71RHVMM,30UZJB2PPKSSO21QHKUJ0S8JS3B35M,3JC6VJ2SAFZVU6Y5G1EVCKICSQ75AN,6,5
20,3,object_07,object_02,329.0,6,2,376.19999998808,0.5555555555555556,2,object_06,1,282,0,7,5,library_4,2,memory-2step-stake-s,516,2132068,0.0-19.0-0.0-0.20,A1N1ULK71RHVMM,30UZJB2PPKSSO21QHKUJ0S8JS3B35M,3JC6VJ2SAFZVU6Y5G1EVCKICSQ75AN,5,6
21,1,object_08,object_03,801.59999996424,1,2,669.60000002384,0.6666666666666666,1,object_01,5,312,0,6,3,desert_1,2,memory-2step-stake-s,517,2140688,0.0-19.0-0.0-0.21,A1N1ULK71RHVMM,30UZJB2PPKSSO21QHKUJ0S8JS3B35M,3JC6VJ2SAFZVU6Y5G1EVCKICSQ75AN,2,1
22,4,object_10,object_04,551.19999998808,8,1,523.90000003576,0.4444444444444444,2,object_06,1,316,0,7,4,restaurant_2,2,memory-2step-stake-s,518,2148938,0.0-19.0-0.0-0.22,A1N1ULK71RHVMM,30UZJB2PPKSSO21QHKUJ0S8JS3B35M,3JC6VJ2SAFZVU6Y5G1EVCKICSQ75AN,8,7
23,4,object_04,object_10,619.0,7,1,458.60000002384,0.8888888888888888,1,object_01,5,356,0,8,7,restaurant_3,2,memory-2step-stake-s,519,2157558,0.0-19.0-0.0-0.23,A1N1ULK71RHVMM,30UZJB2PPKSSO21QHKUJ0S8JS3B35M,3JC6VJ2SAFZVU6Y5G1EVCKICSQ75AN,7,8
24,1,object_03,object_08,590.19999998808,2,2,612.79999995232,0.7777777777777778,2,object_06,5,391,0,4,7,desert_3,2,memory-2step-stake-s,520,2166189,0.0-19.0-0.0-0.24,A1N1ULK71RHVMM,30UZJB2PPKSSO21QHKUJ0S8JS3B35M,3JC6VJ2SAFZVU6Y5G1EVCKICSQ75AN,1,2
25,1,object_08,object_03,601.5,2,1,-1.0,0.0,2,object_06,1,391,0,5,5,desert_4,2,memory-2step-stake-s,521,2174784,0.0-19.0-0.0-0.25,A1N1ULK71RHVMM,30UZJB2PPKSSO21QHKUJ0S8JS3B35M,3JC6VJ2SAFZVU6Y5G1EVCKICSQ75AN,2,1
26,1,object_03,object_08,553.19999998808,2,2,763.0,0.6666666666666666,2,object_06,5,421,0,8,6,desert_4,2,memory-2step-stake-s,522,2183456,0.0-19.0-0.0-0.26,A1N1ULK71RHVMM,30UZJB2PPKSSO21QHKUJ0S8JS3B35M,3JC6VJ2SAFZVU6Y5G1EVCKICSQ75AN,1,2
27,1,object_08,object_03,560.30000001192,1,2,434.0,0.7777777777777778,1,object_01,5,456,0,7,8,desert_7,2,memory-2step-stake-s,523,2191913,0.0-19.0-0.0-0.27,A1N1ULK71RHVMM,30UZJB2PPKSSO21QHKUJ0S8JS3B35M,3JC6VJ2SAFZVU6Y5G1EVCKICSQ75AN,2,1
28,2,object_05,object_09,517.09999996424,4,1,496.30000001192,0.7777777777777778,2,object_06,5,491,0,6,7,forest_3,2,memory-2step-stake-s,524,2200452,0.0-19.0-0.0-0.28,A1N1ULK71RHVMM,30UZJB2PPKSSO21QHKUJ0S8JS3B35M,3JC6VJ2SAFZVU6Y5G1EVCKICSQ75AN,4,3
29,1,object_08,object_03,489.09999996424,1,2,400.40000003576,0.8888888888888888,1,object_01,1,499,0,8,7,desert_4,2,memory-2step-stake-s,525,2208964,0.0-19.0-0.0-0.29,A1N1ULK71RHVMM,30UZJB2PPKSSO21QHKUJ0S8JS3B35M,3JC6VJ2SAFZVU6Y5G1EVCKICSQ75AN,2,1
30,4,object_10,object_04,203.10000002384,8,1,461.59999996424,0.8888888888888888,2,object_06,1,507,0,5,8,restaurant_2,2,memory-2step-stake-s,526,2217546,0.0-19.0-0.0-0.30,A1N1ULK71RHVMM,30UZJB2PPKSSO21QHKUJ0S8JS3B35M,3JC6VJ2SAFZVU6Y5G1EVCKICSQ75AN,8,7
31,1,object_03,object_08,770.60000002384,1,1,940.59999996424,0.4444444444444444,1,object_01,5,527,0,4,7,desert_7,2,memory-2step-stake-s,527,2226190,0.0-19.0-0.0-0.31,A1N1ULK71RHVMM,30UZJB2PPKSSO21QHKUJ0S8JS3B35M,3JC6VJ2SAFZVU6Y5G1EVCKICSQ75AN,1,2
32,1,object_03,object_08,700.70000004768,1,1,539.5,0.2222222222222222,1,object_01,5,537,0,2,8,desert_3,2,memory-2step-stake-s,528,2234209,0.0-19.0-0.0-0.32,A1N1ULK71RHVMM,30UZJB2PPKSSO21QHKUJ0S8JS3B35M,3JC6VJ2SAFZVU6Y5G1EVCKICSQ75AN,1,2
33,1,object_03,object_08,631.5,2,2,592.89999997616,0.8888888888888888,2,object_06,5,577,0,5,8,desert_1,2,memory-2step-stake-s,529,2242926,0.0-19.0-0.0-0.33,A1N1ULK71RHVMM,30UZJB2PPKSSO21QHKUJ0S8JS3B35M,3JC6VJ2SAFZVU6Y5G1EVCKICSQ75AN,1,2
34,1,object_08,object_03,985.89999997616,2,1,527.80000001192,0.5555555555555556,2,object_06,5,602,0,6,5,desert_1,2,memory-2step-stake-s,530,2251258,0.0-19.0-0.0-0.34,A1N1ULK71RHVMM,30UZJB2PPKSSO21QHKUJ0S8JS3B35M,3JC6VJ2SAFZVU6Y5G1EVCKICSQ75AN,2,1
35,2,object_09,object_05,325.5,4,2,568.89999997616,0.1111111111111111,2,object_06,1,603,0,5,1,forest_6,2,memory-2step-stake-s,531,2259194,0.0-19.0-0.0-0.35,A1N1ULK71RHVMM,30UZJB2PPKSSO21QHKUJ0S8JS3B35M,3JC6VJ2SAFZVU6Y5G1EVCKICSQ75AN,3,4
36,3,object_07,object_02,390.30000001192,5,1,381.69999998808,0.8888888888888888,1,object_01,1,611,0,8,0,library_3,2,memory-2step-stake-s,532,2267718,0.0-19.0-0.0-0.36,A1N1ULK71RHVMM,30UZJB2PPKSSO21QHKUJ0S8JS3B35M,3JC6VJ2SAFZVU6Y5G1EVCKICSQ75AN,5,6
37,1,object_08,object_03,1265.8999999762,1,2,-1.0,0.0,1,object_01,5,611,0,8,0,desert_3,2,memory-2step-stake-s,533,2276292,0.0-19.0-0.0-0.37,A1N1ULK71RHVMM,30UZJB2PPKSSO21QHKUJ0S8JS3B35M,3JC6VJ2SAFZVU6Y5G1EVCKICSQ75AN,2,1
38,4,object_04,object_10,814.59999996424,7,1,542.39999997616,0.7777777777777778,1,object_01,5,646,0,7,1,restaurant_4,2,memory-2step-stake-s,534,2284853,0.0-19.0-0.0-0.38,A1N1ULK71RHVMM,30UZJB2PPKSSO21QHKUJ0S8JS3B35M,3JC6VJ2SAFZVU6Y5G1EVCKICSQ75AN,7,8
39,3,object_07,object_02,385.5,6,2,505.19999998808,0.1111111111111111,2,object_06,1,647,0,8,1,library_5,2,memory-2step-stake-s,535,2293306,0.0-19.0-0.0-0.39,A1N1ULK71RHVMM,30UZJB2PPKSSO21QHKUJ0S8JS3B35M,3JC6VJ2SAFZVU6Y5G1EVCKICSQ75AN,5,6
40,1,object_08,object_03,431.19999998808,1,2,427.40000003576,0.8888888888888888,1,object_01,5,687,0,8,1,desert_4,2,memory-2step-stake-s,536,2301863,0.0-19.0-0.0-0.40,A1N1ULK71RHVMM,30UZJB2PPKSSO21QHKUJ0S8JS3B35M,3JC6VJ2SAFZVU6Y5G1EVCKICSQ75AN,2,1
41,3,object_02,object_07,411.5,6,1,428.39999997616,0.3333333333333333,2,object_06,1,690,0,6,3,library_4,2,memory-2step-stake-s,537,2309882,0.0-19.0-0.0-0.41,A1N1ULK71RHVMM,30UZJB2PPKSSO21QHKUJ0S8JS3B35M,3JC6VJ2SAFZVU6Y5G1EVCKICSQ75AN,6,5
42,4,object_10,object_04,1007.5,7,2,592.0,0.8888888888888888,1,object_01,5,730,0,8,4,restaurant_2,2,memory-2step-stake-s,538,2318619,0.0-19.0-0.0-0.42,A1N1ULK71RHVMM,30UZJB2PPKSSO21QHKUJ0S8JS3B35M,3JC6VJ2SAFZVU6Y5G1EVCKICSQ75AN,8,7
43,2,object_09,object_05,928.5,3,1,542.39999997616,0.8888888888888888,1,object_01,5,770,0,8,5,forest_6,2,memory-2step-stake-s,539,2327294,0.0-19.0-0.0-0.43,A1N1ULK71RHVMM,30UZJB2PPKSSO21QHKUJ0S8JS3B35M,3JC6VJ2SAFZVU6Y5G1EVCKICSQ75AN,3,4
44,2,object_09,object_05,732.60000002384,3,1,435.59999996424,0.8888888888888888,1,object_01,5,810,0,8,4,forest_3,2,memory-2step-stake-s,540,2335866,0.0-19.0-0.0-0.44,A1N1ULK71RHVMM,30UZJB2PPKSSO21QHKUJ0S8JS3B35M,3JC6VJ2SAFZVU6Y5G1EVCKICSQ75AN,3,4
45,1,object_08,object_03,607.59999996424,1,2,386.19999998808,0.8888888888888888,1,object_01,5,850,0,8,8,desert_1,2,memory-2step-stake-s,541,2344402,0.0-19.0-0.0-0.45,A1N1ULK71RHVMM,30UZJB2PPKSSO21QHKUJ0S8JS3B35M,3JC6VJ2SAFZVU6Y5G1EVCKICSQ75AN,2,1
46,1,object_08,object_03,1269.1000000238,2,1,451.5,0.7777777777777778,2,object_06,5,885,0,5,7,desert_7,2,memory-2step-stake-s,542,2352877,0.0-19.0-0.0-0.46,A1N1ULK71RHVMM,30UZJB2PPKSSO21QHKUJ0S8JS3B35M,3JC6VJ2SAFZVU6Y5G1EVCKICSQ75AN,2,1
47,3,object_02,object_07,385.10000002384,6,1,405.0,1.0,2,object_06,1,894,0,6,9,library_5,2,memory-2step-stake-s,543,2361510,0.0-19.0-0.0-0.47,A1N1ULK71RHVMM,30UZJB2PPKSSO21QHKUJ0S8JS3B35M,3JC6VJ2SAFZVU6Y5G1EVCKICSQ75AN,6,5
48,2,object_09,object_05,301.69999998808,4,2,441.30000001192,0.6666666666666666,2,object_06,1,900,0,5,6,forest_1,2,memory-2step-stake-s,544,2369873,0.0-19.0-0.0-0.48,A1N1ULK71RHVMM,30UZJB2PPKSSO21QHKUJ0S8JS3B35M,3JC6VJ2SAFZVU6Y5G1EVCKICSQ75AN,3,4
49,1,object_03,object_08,293.30000001192,2,2,884.5,0.8888888888888888,2,object_06,1,908,0,3,8,desert_7,2,memory-2step-stake-s,545,2378913,0.0-19.0-0.0-0.49,A1N1ULK71RHVMM,30UZJB2PPKSSO21QHKUJ0S8JS3B35M,3JC6VJ2SAFZVU6Y5G1EVCKICSQ75AN,1,2
50,2,object_09,object_05,504.80000001192,3,1,511.80000001192,0.4444444444444444,1,object_01,5,928,0,4,8,forest_2,2,memory-2step-stake-s,546,2387116,0.0-19.0-0.0-0.50,A1N1ULK71RHVMM,30UZJB2PPKSSO21QHKUJ0S8JS3B35M,3JC6VJ2SAFZVU6Y5G1EVCKICSQ75AN,3,4
51,2,object_05,object_09,291.5,3,2,418.70000004768,0.6666666666666666,1,object_01,1,934,0,6,8,forest_2,2,memory-2step-stake-s,547,2395458,0.0-19.0-0.0-0.51,A1N1ULK71RHVMM,30UZJB2PPKSSO21QHKUJ0S8JS3B35M,3JC6VJ2SAFZVU6Y5G1EVCKICSQ75AN,4,3
52,4,object_04,object_10,284.40000003576,7,1,481.5,0.4444444444444444,1,object_01,1,938,0,4,7,restaurant_3,2,memory-2step-stake-s,548,2403628,0.0-19.0-0.0-0.52,A1N1ULK71RHVMM,30UZJB2PPKSSO21QHKUJ0S8JS3B35M,3JC6VJ2SAFZVU6Y5G1EVCKICSQ75AN,7,8
53,3,object_02,object_07,330.60000002384,5,2,397.0,0.0,1,object_01,1,938,0,0,3,library_4,2,memory-2step-stake-s,549,2411298,0.0-19.0-0.0-0.53,A1N1ULK71RHVMM,30UZJB2PPKSSO21QHKUJ0S8JS3B35M,3JC6VJ2SAFZVU6Y5G1EVCKICSQ75AN,6,5
54,1,object_08,object_03,1082.3000000119,2,1,427.80000001192,0.5555555555555556,2,object_06,5,963,0,3,5,desert_4,2,memory-2step-stake-s,550,2419543,0.0-19.0-0.0-0.54,A1N1ULK71RHVMM,30UZJB2PPKSSO21QHKUJ0S8JS3B35M,3JC6VJ2SAFZVU6Y5G1EVCKICSQ75AN,2,1
55,1,object_03,object_08,1100.3000000119,2,2,446.59999996424,0.3333333333333333,2,object_06,5,978,0,3,3,desert_3,2,memory-2step-stake-s,551,2427611,0.0-19.0-0.0-0.55,A1N1ULK71RHVMM,30UZJB2PPKSSO21QHKUJ0S8JS3B35M,3JC6VJ2SAFZVU6Y5G1EVCKICSQ75AN,1,2
56,1,object_03,object_08,1090.1999999881,1,1,464.39999997616,0.2222222222222222,1,object_01,5,988,0,2,6,desert_4,2,memory-2step-stake-s,552,2435567,0.0-19.0-0.0-0.56,A1N1ULK71RHVMM,30UZJB2PPKSSO21QHKUJ0S8JS3B35M,3JC6VJ2SAFZVU6Y5G1EVCKICSQ75AN,1,2
57,4,object_10,object_04,777.69999998808,7,2,812.70000004768,0.1111111111111111,1,object_01,1,989,0,1,2,restaurant_7,2,memory-2step-stake-s,553,2443756,0.0-19.0-0.0-0.57,A1N1ULK71RHVMM,30UZJB2PPKSSO21QHKUJ0S8JS3B35M,3JC6VJ2SAFZVU6Y5G1EVCKICSQ75AN,8,7
58,4,object_04,object_10,238.30000001192,8,2,900.5,0.3333333333333333,2,object_06,1,992,0,3,3,restaurant_4,2,memory-2step-stake-s,554,2452274,0.0-19.0-0.0-0.58,A1N1ULK71RHVMM,30UZJB2PPKSSO21QHKUJ0S8JS3B35M,3JC6VJ2SAFZVU6Y5G1EVCKICSQ75AN,7,8
59,2,object_05,object_09,866.10000002384,4,1,490.90000003576,0.1111111111111111,2,object_06,5,997,0,6,1,forest_6,2,memory-2step-stake-s,555,2460156,0.0-19.0-0.0-0.59,A1N1ULK71RHVMM,30UZJB2PPKSSO21QHKUJ0S8JS3B35M,3JC6VJ2SAFZVU6Y5G1EVCKICSQ75AN,4,3
60,1,object_03,object_08,1251.6000000238,2,2,355.10000002384,0.1111111111111111,2,object_06,5,1002,0,7,1,desert_1,2,memory-2step-stake-s,556,2467916,0.0-19.0-0.0-0.60,A1N1ULK71RHVMM,30UZJB2PPKSSO21QHKUJ0S8JS3B35M,3JC6VJ2SAFZVU6Y5G1EVCKICSQ75AN,1,2
61,3,object_07,object_02,631.89999997616,5,1,624.30000001192,0.8888888888888888,1,object_01,1,1010,0,8,1,library_4,2,memory-2step-stake-s,557,2476697,0.0-19.0-0.0-0.61,A1N1ULK71RHVMM,30UZJB2PPKSSO21QHKUJ0S8JS3B35M,3JC6VJ2SAFZVU6Y5G1EVCKICSQ75AN,5,6
62,1,object_03,object_08,601.89999997616,2,2,466.69999998808,0.0,2,object_06,1,1010,0,9,0,desert_1,2,memory-2step-stake-s,558,2484428,0.0-19.0-0.0-0.62,A1N1ULK71RHVMM,30UZJB2PPKSSO21QHKUJ0S8JS3B35M,3JC6VJ2SAFZVU6Y5G1EVCKICSQ75AN,1,2
63,2,object_05,object_09,794.80000001192,3,2,442.5,1.0,1,object_01,1,1019,0,9,2,forest_2,2,memory-2step-stake-s,559,2493128,0.0-19.0-0.0-0.63,A1N1ULK71RHVMM,30UZJB2PPKSSO21QHKUJ0S8JS3B35M,3JC6VJ2SAFZVU6Y5G1EVCKICSQ75AN,4,3
64,2,object_09,object_05,1274.1999999881,3,1,544.30000001192,0.7777777777777778,1,object_01,5,1054,0,7,5,forest_2,2,memory-2step-stake-s,560,2501697,0.0-19.0-0.0-0.64,A1N1ULK71RHVMM,30UZJB2PPKSSO21QHKUJ0S8JS3B35M,3JC6VJ2SAFZVU6Y5G1EVCKICSQ75AN,3,4
65,1,object_03,object_08,1176.8000000119,1,1,768.5,0.8888888888888888,1,object_01,5,1094,0,8,2,desert_1,2,memory-2step-stake-s,561,2510587,0.0-19.0-0.0-0.65,A1N1ULK71RHVMM,30UZJB2PPKSSO21QHKUJ0S8JS3B35M,3JC6VJ2SAFZVU6Y5G1EVCKICSQ75AN,1,2
66,4,object_10,object_04,495.60000002384,7,2,516.70000004768,0.5555555555555556,1,object_01,1,1099,0,5,4,restaurant_3,2,memory-2step-stake-s,562,2518893,0.0-19.0-0.0-0.66,A1N1ULK71RHVMM,30UZJB2PPKSSO21QHKUJ0S8JS3B35M,3JC6VJ2SAFZVU6Y5G1EVCKICSQ75AN,8,7
67,3,object_07,object_02,435.39999997616,6,2,554.90000003576,0.6666666666666666,2,object_06,1,1105,0,5,6,library_5,2,memory-2step-stake-s,563,2527392,0.0-19.0-0.0-0.67,A1N1ULK71RHVMM,30UZJB2PPKSSO21QHKUJ0S8JS3B35M,3JC6VJ2SAFZVU6Y5G1EVCKICSQ75AN,5,6
68,4,object_10,object_04,401.40000003576,7,2,350.19999998808,0.7777777777777778,1,object_01,1,1112,0,7,8,restaurant_3,2,memory-2step-stake-s,564,2535747,0.0-19.0-0.0-0.68,A1N1ULK71RHVMM,30UZJB2PPKSSO21QHKUJ0S8JS3B35M,3JC6VJ2SAFZVU6Y5G1EVCKICSQ75AN,8,7
69,3,object_02,object_07,396.60000002384,6,1,393.29999995232,1.0,2,object_06,1,1121,0,8,9,library_5,2,memory-2step-stake-s,565,2544355,0.0-19.0-0.0-0.69,A1N1ULK71RHVMM,30UZJB2PPKSSO21QHKUJ0S8JS3B35M,3JC6VJ2SAFZVU6Y5G1EVCKICSQ75AN,6,5
70,1,object_03,object_08,1014.3999999762,2,2,392.90000003576,0.7777777777777778,2,object_06,5,1156,0,7,7,desert_4,2,memory-2step-stake-s,566,2552778,0.0-19.0-0.0-0.70,A1N1ULK71RHVMM,30UZJB2PPKSSO21QHKUJ0S8JS3B35M,3JC6VJ2SAFZVU6Y5G1EVCKICSQ75AN,1,2
71,1,object_03,object_08,1483.1999999881,2,2,411.19999998808,0.7777777777777778,2,object_06,5,1191,0,8,7,desert_1,2,memory-2step-stake-s,567,2561194,0.0-19.0-0.0-0.71,A1N1ULK71RHVMM,30UZJB2PPKSSO21QHKUJ0S8JS3B35M,3JC6VJ2SAFZVU6Y5G1EVCKICSQ75AN,1,2
72,2,object_05,object_09,-1.0,-1,-1,-1.0,0.0,-,0,5,1191,0,5,4,forest_3,2,memory-2step-stake-s,568,2567735,0.0-19.0-0.0-0.72,A1N1ULK71RHVMM,30UZJB2PPKSSO21QHKUJ0S8JS3B35M,3JC6VJ2SAFZVU6Y5G1EVCKICSQ75AN,4,3
73,2,object_09,object_05,1136.8000000119,4,2,563.39999997616,0.2222222222222222,2,object_06,5,1201,0,9,2,forest_6,2,memory-2step-stake-s,569,2575788,0.0-19.0-0.0-0.73,A1N1ULK71RHVMM,30UZJB2PPKSSO21QHKUJ0S8JS3B35M,3JC6VJ2SAFZVU6Y5G1EVCKICSQ75AN,3,4
74,2,object_05,object_09,1063.0,3,2,471.39999997616,0.8888888888888888,1,object_01,5,1241,0,8,3,forest_1,2,memory-2step-stake-s,570,2584376,0.0-19.0-0.0-0.74,A1N1ULK71RHVMM,30UZJB2PPKSSO21QHKUJ0S8JS3B35M,3JC6VJ2SAFZVU6Y5G1EVCKICSQ75AN,4,3
75,1,object_08,object_03,725.39999997616,2,1,607.30000001192,0.3333333333333333,2,object_06,5,1256,0,7,3,desert_3,2,memory-2step-stake-s,571,2592594,0.0-19.0-0.0-0.75,A1N1ULK71RHVMM,30UZJB2PPKSSO21QHKUJ0S8JS3B35M,3JC6VJ2SAFZVU6Y5G1EVCKICSQ75AN,2,1
76,1,object_08,object_03,769.10000002384,1,2,430.0,0.7777777777777778,1,object_01,5,1291,0,7,2,desert_7,2,memory-2step-stake-s,572,2601054,0.0-19.0-0.0-0.76,A1N1ULK71RHVMM,30UZJB2PPKSSO21QHKUJ0S8JS3B35M,3JC6VJ2SAFZVU6Y5G1EVCKICSQ75AN,2,1
77,4,object_04,object_10,521.5,8,2,386.10000002384,0.4444444444444444,2,object_06,1,1295,0,7,4,restaurant_2,2,memory-2step-stake-s,573,2609132,0.0-19.0-0.0-0.77,A1N1ULK71RHVMM,30UZJB2PPKSSO21QHKUJ0S8JS3B35M,3JC6VJ2SAFZVU6Y5G1EVCKICSQ75AN,7,8
78,1,object_08,object_03,747.39999997616,1,2,410.59999996424,1.0,1,object_01,5,1340,0,9,4,desert_4,2,memory-2step-stake-s,574,2617777,0.0-19.0-0.0-0.78,A1N1ULK71RHVMM,30UZJB2PPKSSO21QHKUJ0S8JS3B35M,3JC6VJ2SAFZVU6Y5G1EVCKICSQ75AN,2,1
79,2,object_05,object_09,1356.8999999762,3,2,641.80000001192,1.0,1,object_01,5,1385,0,9,3,forest_2,2,memory-2step-stake-s,575,2626659,0.0-19.0-0.0-0.79,A1N1ULK71RHVMM,30UZJB2PPKSSO21QHKUJ0S8JS3B35M,3JC6VJ2SAFZVU6Y5G1EVCKICSQ75AN,4,3
80,4,object_04,object_10,-1.0,-1,-1,-1.0,0.0,-,0,1,1385,0,6,6,restaurant_3,2,memory-2step-stake-s,576,2633214,0.0-19.0-0.0-0.80,A1N1ULK71RHVMM,30UZJB2PPKSSO21QHKUJ0S8JS3B35M,3JC6VJ2SAFZVU6Y5G1EVCKICSQ75AN,7,8
81,3,object_07,object_02,293.59999996424,5,1,427.70000004768,0.8888888888888888,1,object_01,1,1393,0,8,8,library_6,2,memory-2step-stake-s,577,2641757,0.0-19.0-0.0-0.81,A1N1ULK71RHVMM,30UZJB2PPKSSO21QHKUJ0S8JS3B35M,3JC6VJ2SAFZVU6Y5G1EVCKICSQ75AN,5,6
82,3,object_02,object_07,320.30000001192,5,2,405.60000002384,0.7777777777777778,1,object_01,1,1400,0,7,8,library_3,2,memory-2step-stake-s,578,2650158,0.0-19.0-0.0-0.82,A1N1ULK71RHVMM,30UZJB2PPKSSO21QHKUJ0S8JS3B35M,3JC6VJ2SAFZVU6Y5G1EVCKICSQ75AN,6,5
83,3,object_07,object_02,303.19999998808,5,1,396.5,0.8888888888888888,1,object_01,1,1408,0,8,9,library_6,2,memory-2step-stake-s,579,2658657,0.0-19.0-0.0-0.83,A1N1ULK71RHVMM,30UZJB2PPKSSO21QHKUJ0S8JS3B35M,3JC6VJ2SAFZVU6Y5G1EVCKICSQ75AN,5,6
84,4,object_04,object_10,819.80000001192,8,2,458.19999998808,0.8888888888888888,2,object_06,1,1416,0,5,8,restaurant_4,2,memory-2step-stake-s,580,2667247,0.0-19.0-0.0-0.84,A1N1ULK71RHVMM,30UZJB2PPKSSO21QHKUJ0S8JS3B35M,3JC6VJ2SAFZVU6Y5G1EVCKICSQ75AN,7,8
85,3,object_07,object_02,638.69999998808,6,2,457.10000002384,0.6666666666666666,2,object_06,1,1422,0,6,6,library_6,2,memory-2step-stake-s,581,2675604,0.0-19.0-0.0-0.85,A1N1ULK71RHVMM,30UZJB2PPKSSO21QHKUJ0S8JS3B35M,3JC6VJ2SAFZVU6Y5G1EVCKICSQ75AN,5,6
86,4,object_10,object_04,947.19999998808,7,2,483.80000001192,0.6666666666666666,1,object_01,1,1428,0,6,6,restaurant_3,2,memory-2step-stake-s,582,2683979,0.0-19.0-0.0-0.86,A1N1ULK71RHVMM,30UZJB2PPKSSO21QHKUJ0S8JS3B35M,3JC6VJ2SAFZVU6Y5G1EVCKICSQ75AN,8,7
87,2,object_09,object_05,814.10000002384,4,2,1391.0,0.6666666666666666,2,object_06,1,1434,0,7,6,forest_6,2,memory-2step-stake-s,583,2693279,0.0-19.0-0.0-0.87,A1N1ULK71RHVMM,30UZJB2PPKSSO21QHKUJ0S8JS3B35M,3JC6VJ2SAFZVU6Y5G1EVCKICSQ75AN,3,4
88,3,object_02,object_07,987.89999997616,5,2,441.10000002384,0.7777777777777778,1,object_01,1,1441,0,7,6,library_3,2,memory-2step-stake-s,584,2701719,0.0-19.0-0.0-0.88,A1N1ULK71RHVMM,30UZJB2PPKSSO21QHKUJ0S8JS3B35M,3JC6VJ2SAFZVU6Y5G1EVCKICSQ75AN,6,5
89,4,object_04,object_10,1081.9000000358,8,2,549.69999998808,0.8888888888888888,2,object_06,1,1449,0,7,8,restaurant_2,2,memory-2step-stake-s,585,2710398,0.0-19.0-0.0-0.89,A1N1ULK71RHVMM,30UZJB2PPKSSO21QHKUJ0S8JS3B35M,3JC6VJ2SAFZVU6Y5G1EVCKICSQ75AN,7,8
90,3,object_07,object_02,452.69999998808,6,2,828.39999997616,0.6666666666666666,2,object_06,1,1455,0,4,6,library_6,2,memory-2step-stake-s,586,2719141,0.0-19.0-0.0-0.90,A1N1ULK71RHVMM,30UZJB2PPKSSO21QHKUJ0S8JS3B35M,3JC6VJ2SAFZVU6Y5G1EVCKICSQ75AN,5,6
91,3,object_07,object_02,166.70000004768,5,1,387.5,0.2222222222222222,1,object_01,1,1457,0,2,8,library_4,2,memory-2step-stake-s,587,2727004,0.0-19.0-0.0-0.91,A1N1ULK71RHVMM,30UZJB2PPKSSO21QHKUJ0S8JS3B35M,3JC6VJ2SAFZVU6Y5G1EVCKICSQ75AN,5,6
92,1,object_03,object_08,662.30000001192,2,2,385.10000002384,0.6666666666666666,2,object_06,5,1487,0,1,6,desert_4,2,memory-2step-stake-s,588,2735295,0.0-19.0-0.0-0.92,A1N1ULK71RHVMM,30UZJB2PPKSSO21QHKUJ0S8JS3B35M,3JC6VJ2SAFZVU6Y5G1EVCKICSQ75AN,1,2
93,2,object_05,object_09,756.60000002384,3,2,687.70000004768,0.5555555555555556,1,object_01,5,1512,0,5,8,forest_3,2,memory-2step-stake-s,589,2743786,0.0-19.0-0.0-0.93,A1N1ULK71RHVMM,30UZJB2PPKSSO21QHKUJ0S8JS3B35M,3JC6VJ2SAFZVU6Y5G1EVCKICSQ75AN,4,3
94,1,object_08,object_03,1100.8999999762,2,1,855.5,0.7777777777777778,2,object_06,5,1547,0,4,7,desert_4,2,memory-2step-stake-s,590,2752655,0.0-19.0-0.0-0.94,A1N1ULK71RHVMM,30UZJB2PPKSSO21QHKUJ0S8JS3B35M,3JC6VJ2SAFZVU6Y5G1EVCKICSQ75AN,2,1
95,2,object_09,object_05,303.80000001192,4,2,434.90000003576,1.0,2,object_06,1,1556,0,2,9,forest_3,2,memory-2step-stake-s,591,2761327,0.0-19.0-0.0-0.95,A1N1ULK71RHVMM,30UZJB2PPKSSO21QHKUJ0S8JS3B35M,3JC6VJ2SAFZVU6Y5G1EVCKICSQ75AN,3,4
96,4,object_04,object_10,355.89999997616,8,2,635.0,0.7777777777777778,2,object_06,1,1563,0,7,7,restaurant_7,2,memory-2step-stake-s,592,2769988,0.0-19.0-0.0-0.96,A1N1ULK71RHVMM,30UZJB2PPKSSO21QHKUJ0S8JS3B35M,3JC6VJ2SAFZVU6Y5G1EVCKICSQ75AN,7,8
97,1,object_08,object_03,373.79999995232,1,2,422.19999998808,0.6666666666666666,1,object_01,1,1569,0,6,3,desert_4,2,memory-2step-stake-s,593,2778308,0.0-19.0-0.0-0.97,A1N1ULK71RHVMM,30UZJB2PPKSSO21QHKUJ0S8JS3B35M,3JC6VJ2SAFZVU6Y5G1EVCKICSQ75AN,2,1
98,2,object_09,object_05,287.39999997616,4,2,311.60000002384,0.5555555555555556,2,object_06,1,1574,0,6,5,forest_2,2,memory-2step-stake-s,594,2786409,0.0-19.0-0.0-0.98,A1N1ULK71RHVMM,30UZJB2PPKSSO21QHKUJ0S8JS3B35M,3JC6VJ2SAFZVU6Y5G1EVCKICSQ75AN,3,4
99,3,object_07,object_02,308.5,6,2,651.40000003576,0.4444444444444444,2,object_06,1,1578,0,3,4,library_4,2,memory-2step-stake-s,595,2794753,0.0-19.0-0.0-0.99,A1N1ULK71RHVMM,30UZJB2PPKSSO21QHKUJ0S8JS3B35M,3JC6VJ2SAFZVU6Y5G1EVCKICSQ75AN,5,6
100,3,object_02,object_07,371.90000003576,5,2,497.30000001192,0.2222222222222222,1,object_01,1,1580,0,2,4,library_5,2,memory-2step-stake-s,596,2802744,0.0-19.0-0.0-0.100,A1N1ULK71RHVMM,30UZJB2PPKSSO21QHKUJ0S8JS3B35M,3JC6VJ2SAFZVU6Y5G1EVCKICSQ75AN,6,5
101,3,object_07,object_02,324.90000003576,6,2,354.60000002384,0.3333333333333333,2,object_06,1,1583,0,3,3,library_4,2,memory-2step-stake-s,597,2810691,0.0-19.0-0.0-0.101,A1N1ULK71RHVMM,30UZJB2PPKSSO21QHKUJ0S8JS3B35M,3JC6VJ2SAFZVU6Y5G1EVCKICSQ75AN,5,6
102,4,object_04,object_10,365.19999998808,8,2,538.19999998808,0.2222222222222222,2,object_06,1,1585,0,1,2,restaurant_2,2,memory-2step-stake-s,598,2818715,0.0-19.0-0.0-0.102,A1N1ULK71RHVMM,30UZJB2PPKSSO21QHKUJ0S8JS3B35M,3JC6VJ2SAFZVU6Y5G1EVCKICSQ75AN,7,8
103,3,object_02,object_07,1243.1999999881,5,2,1313.3000000119,0.3333333333333333,1,object_01,1,1588,0,3,1,library_4,2,memory-2step-stake-s,599,2827627,0.0-19.0-0.0-0.103,A1N1ULK71RHVMM,30UZJB2PPKSSO21QHKUJ0S8JS3B35M,3JC6VJ2SAFZVU6Y5G1EVCKICSQ75AN,6,5
104,1,object_03,object_08,407.10000002384,1,1,435.0,0.4444444444444444,1,object_01,1,1592,0,4,4,desert_7,2,memory-2step-stake-s,600,2835768,0.0-19.0-0.0-0.104,A1N1ULK71RHVMM,30UZJB2PPKSSO21QHKUJ0S8JS3B35M,3JC6VJ2SAFZVU6Y5G1EVCKICSQ75AN,1,2
105,4,object_10,object_04,825.80000001192,8,1,522.30000001192,0.7777777777777778,2,object_06,5,1627,0,3,7,restaurant_7,2,memory-2step-stake-s,601,2844282,0.0-19.0-0.0-0.105,A1N1ULK71RHVMM,30UZJB2PPKSSO21QHKUJ0S8JS3B35M,3JC6VJ2SAFZVU6Y5G1EVCKICSQ75AN,8,7
106,3,object_02,object_07,373.80000001192,5,2,406.40000003576,0.3333333333333333,1,object_01,1,1630,0,3,9,library_3,2,memory-2step-stake-s,602,2852295,0.0-19.0-0.0-0.106,A1N1ULK71RHVMM,30UZJB2PPKSSO21QHKUJ0S8JS3B35M,3JC6VJ2SAFZVU6Y5G1EVCKICSQ75AN,6,5
107,2,object_05,object_09,994.0,4,1,583.80000001192,0.8888888888888888,2,object_06,5,1670,0,6,8,forest_2,2,memory-2step-stake-s,603,2861006,0.0-19.0-0.0-0.107,A1N1ULK71RHVMM,30UZJB2PPKSSO21QHKUJ0S8JS3B35M,3JC6VJ2SAFZVU6Y5G1EVCKICSQ75AN,4,3
108,3,object_02,object_07,392.10000002384,5,2,507.19999998808,0.3333333333333333,1,object_01,1,1673,0,3,9,library_3,2,memory-2step-stake-s,604,2869099,0.0-19.0-0.0-0.108,A1N1ULK71RHVMM,30UZJB2PPKSSO21QHKUJ0S8JS3B35M,3JC6VJ2SAFZVU6Y5G1EVCKICSQ75AN,6,5
109,2,object_09,object_05,819.60000002384,4,2,445.19999998808,1.0,2,object_06,5,1718,0,5,9,forest_6,2,memory-2step-stake-s,605,2877785,0.0-19.0-0.0-0.109,A1N1ULK71RHVMM,30UZJB2PPKSSO21QHKUJ0S8JS3B35M,3JC6VJ2SAFZVU6Y5G1EVCKICSQ75AN,3,4
110,3,object_07,object_02,413.60000002384,6,2,409.60000002384,0.6666666666666666,2,object_06,1,1724,0,4,6,library_3,2,memory-2step-stake-s,606,2886112,0.0-19.0-0.0-0.110,A1N1ULK71RHVMM,30UZJB2PPKSSO21QHKUJ0S8JS3B35M,3JC6VJ2SAFZVU6Y5G1EVCKICSQ75AN,5,6
111,4,object_10,object_04,564.30000001192,7,2,427.39999997616,0.2222222222222222,1,object_01,1,1726,0,2,3,restaurant_2,2,memory-2step-stake-s,607,2894034,0.0-19.0-0.0-0.111,A1N1ULK71RHVMM,30UZJB2PPKSSO21QHKUJ0S8JS3B35M,3JC6VJ2SAFZVU6Y5G1EVCKICSQ75AN,8,7
112,4,object_04,object_10,338.29999995232,8,2,401.5,0.7777777777777778,2,object_06,1,1733,0,1,7,restaurant_2,2,memory-2step-stake-s,608,2902428,0.0-19.0-0.0-0.112,A1N1ULK71RHVMM,30UZJB2PPKSSO21QHKUJ0S8JS3B35M,3JC6VJ2SAFZVU6Y5G1EVCKICSQ75AN,7,8
113,2,object_05,object_09,1059.5,4,1,612.89999997616,1.0,2,object_06,5,1778,0,1,9,forest_1,2,memory-2step-stake-s,609,2911239,0.0-19.0-0.0-0.113,A1N1ULK71RHVMM,30UZJB2PPKSSO21QHKUJ0S8JS3B35M,3JC6VJ2SAFZVU6Y5G1EVCKICSQ75AN,4,3
114,1,object_08,object_03,1049.2000000477,2,1,551.30000001192,0.8888888888888888,2,object_06,5,1818,0,4,8,desert_3,2,memory-2step-stake-s,610,2919886,0.0-19.0-0.0-0.114,A1N1ULK71RHVMM,30UZJB2PPKSSO21QHKUJ0S8JS3B35M,3JC6VJ2SAFZVU6Y5G1EVCKICSQ75AN,2,1
115,2,object_05,object_09,644.0,4,1,423.39999997616,0.5555555555555556,2,object_06,5,1843,0,5,5,forest_1,2,memory-2step-stake-s,611,2928107,0.0-19.0-0.0-0.115,A1N1ULK71RHVMM,30UZJB2PPKSSO21QHKUJ0S8JS3B35M,3JC6VJ2SAFZVU6Y5G1EVCKICSQ75AN,4,3
116,3,object_02,object_07,511.60000002384,5,2,470.19999998808,0.4444444444444444,1,object_01,1,1847,0,4,5,library_4,2,memory-2step-stake-s,612,2936312,0.0-19.0-0.0-0.116,A1N1ULK71RHVMM,30UZJB2PPKSSO21QHKUJ0S8JS3B35M,3JC6VJ2SAFZVU6Y5G1EVCKICSQ75AN,6,5
117,3,object_07,object_02,419.80000001192,6,2,415.69999998808,0.7777777777777778,2,object_06,1,1854,0,5,7,library_5,2,memory-2step-stake-s,613,2944718,0.0-19.0-0.0-0.117,A1N1ULK71RHVMM,30UZJB2PPKSSO21QHKUJ0S8JS3B35M,3JC6VJ2SAFZVU6Y5G1EVCKICSQ75AN,5,6
118,3,object_07,object_02,301.5,6,2,418.19999998808,0.4444444444444444,2,object_06,1,1858,0,3,4,library_6,2,memory-2step-stake-s,614,2952836,0.0-19.0-0.0-0.118,A1N1ULK71RHVMM,30UZJB2PPKSSO21QHKUJ0S8JS3B35M,3JC6VJ2SAFZVU6Y5G1EVCKICSQ75AN,5,6
119,1,object_03,object_08,1127.0,2,2,372.70000004768,0.4444444444444444,2,object_06,5,1878,0,2,4,desert_3,2,memory-2step-stake-s,615,2960922,0.0-19.0-0.0-0.119,A1N1ULK71RHVMM,30UZJB2PPKSSO21QHKUJ0S8JS3B35M,3JC6VJ2SAFZVU6Y5G1EVCKICSQ75AN,1,2
120,3,object_02,object_07,474.30000001192,6,1,385.20000004768,0.5555555555555556,2,object_06,1,1883,0,6,5,library_3,2,memory-2step-stake-s,616,2969103,0.0-19.0-0.0-0.120,A1N1ULK71RHVMM,30UZJB2PPKSSO21QHKUJ0S8JS3B35M,3JC6VJ2SAFZVU6Y5G1EVCKICSQ75AN,6,5
121,1,object_03,object_08,1003.0,1,1,479.40000003576,0.7777777777777778,1,object_01,5,1918,0,7,2,desert_1,2,memory-2step-stake-s,617,2977617,0.0-19.0-0.0-0.121,A1N1ULK71RHVMM,30UZJB2PPKSSO21QHKUJ0S8JS3B35M,3JC6VJ2SAFZVU6Y5G1EVCKICSQ75AN,1,2
122,2,object_09,object_05,636.0,3,1,531.59999996424,0.6666666666666666,1,object_01,5,1948,0,6,3,forest_1,2,memory-2step-stake-s,618,2986078,0.0-19.0-0.0-0.122,A1N1ULK71RHVMM,30UZJB2PPKSSO21QHKUJ0S8JS3B35M,3JC6VJ2SAFZVU6Y5G1EVCKICSQ75AN,3,4
123,2,object_05,object_09,774.69999998808,3,2,496.09999996424,0.5555555555555556,1,object_01,5,1973,0,5,0,forest_1,2,memory-2step-stake-s,619,2994377,0.0-19.0-0.0-0.123,A1N1ULK71RHVMM,30UZJB2PPKSSO21QHKUJ0S8JS3B35M,3JC6VJ2SAFZVU6Y5G1EVCKICSQ75AN,4,3
124,2,object_09,object_05,761.80000001192,4,2,429.89999997616,0.2222222222222222,2,object_06,5,1983,0,7,2,forest_6,2,memory-2step-stake-s,620,3002272,0.0-19.0-0.0-0.124,A1N1ULK71RHVMM,30UZJB2PPKSSO21QHKUJ0S8JS3B35M,3JC6VJ2SAFZVU6Y5G1EVCKICSQ75AN,3,4
125,1,object_08,object_03,1127.0999999642,1,2,480.59999996424,0.8888888888888888,1,object_01,5,2023,0,8,1,desert_7,2,memory-2step-stake-s,621,3010873,0.0-19.0-0.0-0.125,A1N1ULK71RHVMM,30UZJB2PPKSSO21QHKUJ0S8JS3B35M,3JC6VJ2SAFZVU6Y5G1EVCKICSQ75AN,2,1
126,2,object_09,object_05,1006.0,3,1,524.19999998808,1.0,1,object_01,5,2068,0,9,0,forest_6,2,memory-2step-stake-s,622,3019644,0.0-19.0-0.0-0.126,A1N1ULK71RHVMM,30UZJB2PPKSSO21QHKUJ0S8JS3B35M,3JC6VJ2SAFZVU6Y5G1EVCKICSQ75AN,3,4
127,4,object_10,object_04,347.60000002384,8,1,714.39999997616,0.2222222222222222,2,object_06,1,2070,0,8,2,restaurant_2,2,memory-2step-stake-s,623,3027835,0.0-19.0-0.0-0.127,A1N1ULK71RHVMM,30UZJB2PPKSSO21QHKUJ0S8JS3B35M,3JC6VJ2SAFZVU6Y5G1EVCKICSQ75AN,8,7
128,1,object_03,object_08,871.89999997616,2,2,417.30000001192,0.1111111111111111,2,object_06,5,2075,0,8,1,desert_7,2,memory-2step-stake-s,625,3379125,0.0-19.0-0.1-0.128,A1N1ULK71RHVMM,30UZJB2PPKSSO21QHKUJ0S8JS3B35M,3JC6VJ2SAFZVU6Y5G1EVCKICSQ75AN,1,2
129,4,object_04,object_10,379.0,8,2,424.69999998808,0.2222222222222222,2,object_06,1,2077,0,7,2,restaurant_4,2,memory-2step-stake-s,626,3387045,0.0-19.0-0.1-0.129,A1N1ULK71RHVMM,30UZJB2PPKSSO21QHKUJ0S8JS3B35M,3JC6VJ2SAFZVU6Y5G1EVCKICSQ75AN,7,8
130,4,object_10,object_04,494.80000001192,8,1,560.09999996424,0.0,2,object_06,1,2077,0,7,0,restaurant_2,2,memory-2step-stake-s,627,3394895,0.0-19.0-0.1-0.130,A1N1ULK71RHVMM,30UZJB2PPKSSO21QHKUJ0S8JS3B35M,3JC6VJ2SAFZVU6Y5G1EVCKICSQ75AN,8,7
131,4,object_10,object_04,662.0,7,2,498.19999998808,0.8888888888888888,1,object_01,1,2085,0,8,2,restaurant_7,2,memory-2step-stake-s,628,3403553,0.0-19.0-0.1-0.131,A1N1ULK71RHVMM,30UZJB2PPKSSO21QHKUJ0S8JS3B35M,3JC6VJ2SAFZVU6Y5G1EVCKICSQ75AN,8,7
132,4,object_10,object_04,652.80000001192,7,2,376.09999996424,0.8888888888888888,1,object_01,1,2093,0,8,0,restaurant_7,2,memory-2step-stake-s,629,3412083,0.0-19.0-0.1-0.132,A1N1ULK71RHVMM,30UZJB2PPKSSO21QHKUJ0S8JS3B35M,3JC6VJ2SAFZVU6Y5G1EVCKICSQ75AN,8,7
133,3,object_07,object_02,591.09999996424,5,1,312.5,0.7777777777777778,1,object_01,1,2100,0,7,4,library_6,2,memory-2step-stake-s,630,3420441,0.0-19.0-0.1-0.133,A1N1ULK71RHVMM,30UZJB2PPKSSO21QHKUJ0S8JS3B35M,3JC6VJ2SAFZVU6Y5G1EVCKICSQ75AN,5,6
134,2,object_09,object_05,916.89999997616,3,1,456.30000001192,0.5555555555555556,1,object_01,5,2125,0,5,3,forest_1,2,memory-2step-stake-s,631,3428733,0.0-19.0-0.1-0.134,A1N1ULK71RHVMM,30UZJB2PPKSSO21QHKUJ0S8JS3B35M,3JC6VJ2SAFZVU6Y5G1EVCKICSQ75AN,3,4
135,4,object_10,object_04,700.10000002384,7,2,638.70000004768,0.4444444444444444,1,object_01,1,2129,0,4,0,restaurant_7,2,memory-2step-stake-s,632,3437083,0.0-19.0-0.1-0.135,A1N1ULK71RHVMM,30UZJB2PPKSSO21QHKUJ0S8JS3B35M,3JC6VJ2SAFZVU6Y5G1EVCKICSQ75AN,8,7
136,2,object_09,object_05,681.10000002384,4,2,411.10000002384,0.1111111111111111,2,object_06,5,2134,0,5,1,forest_1,2,memory-2step-stake-s,633,3444873,0.0-19.0-0.1-0.136,A1N1ULK71RHVMM,30UZJB2PPKSSO21QHKUJ0S8JS3B35M,3JC6VJ2SAFZVU6Y5G1EVCKICSQ75AN,3,4
137,3,object_07,object_02,376.60000002384,6,2,317.80000001192,0.5555555555555556,2,object_06,1,2139,0,6,5,library_3,2,memory-2step-stake-s,634,3453013,0.0-19.0-0.1-0.137,A1N1ULK71RHVMM,30UZJB2PPKSSO21QHKUJ0S8JS3B35M,3JC6VJ2SAFZVU6Y5G1EVCKICSQ75AN,5,6
138,4,object_04,object_10,313.19999998808,7,1,478.0,0.3333333333333333,1,object_01,1,2142,0,3,7,restaurant_2,2,memory-2step-stake-s,635,3461085,0.0-19.0-0.1-0.138,A1N1ULK71RHVMM,30UZJB2PPKSSO21QHKUJ0S8JS3B35M,3JC6VJ2SAFZVU6Y5G1EVCKICSQ75AN,7,8
139,2,object_09,object_05,723.0,4,2,458.10000002384,0.4444444444444444,2,object_06,5,2162,0,4,4,forest_3,2,memory-2step-stake-s,636,3469245,0.0-19.0-0.1-0.139,A1N1ULK71RHVMM,30UZJB2PPKSSO21QHKUJ0S8JS3B35M,3JC6VJ2SAFZVU6Y5G1EVCKICSQ75AN,3,4
140,3,object_07,object_02,602.19999998808,6,2,378.5,0.7777777777777778,2,object_06,1,2169,0,4,7,library_6,2,memory-2step-stake-s,637,3477665,0.0-19.0-0.1-0.140,A1N1ULK71RHVMM,30UZJB2PPKSSO21QHKUJ0S8JS3B35M,3JC6VJ2SAFZVU6Y5G1EVCKICSQ75AN,5,6
141,4,object_04,object_10,694.09999996424,8,2,375.69999998808,0.4444444444444444,2,object_06,1,2173,0,5,4,restaurant_7,2,memory-2step-stake-s,638,3485745,0.0-19.0-0.1-0.141,A1N1ULK71RHVMM,30UZJB2PPKSSO21QHKUJ0S8JS3B35M,3JC6VJ2SAFZVU6Y5G1EVCKICSQ75AN,7,8
142,2,object_05,object_09,794.30000001192,3,2,427.30000001192,0.5555555555555556,1,object_01,5,2198,0,5,0,forest_6,2,memory-2step-stake-s,639,3493995,0.0-19.0-0.1-0.142,A1N1ULK71RHVMM,30UZJB2PPKSSO21QHKUJ0S8JS3B35M,3JC6VJ2SAFZVU6Y5G1EVCKICSQ75AN,4,3
143,3,object_07,object_02,1257.6999999881,6,2,705.39999997616,0.2222222222222222,2,object_06,5,2208,0,7,2,library_4,2,memory-2step-stake-s,640,3502190,0.0-19.0-0.1-0.143,A1N1ULK71RHVMM,30UZJB2PPKSSO21QHKUJ0S8JS3B35M,3JC6VJ2SAFZVU6Y5G1EVCKICSQ75AN,5,6
144,2,object_09,object_05,639.20000004768,4,2,436.0,0.1111111111111111,2,object_06,1,2209,0,8,1,forest_6,2,memory-2step-stake-s,641,3509995,0.0-19.0-0.1-0.144,A1N1ULK71RHVMM,30UZJB2PPKSSO21QHKUJ0S8JS3B35M,3JC6VJ2SAFZVU6Y5G1EVCKICSQ75AN,3,4
145,1,object_08,object_03,940.19999998808,1,2,604.09999996424,0.5555555555555556,1,object_01,5,2234,0,5,1,desert_1,2,memory-2step-stake-s,642,3518396,0.0-19.0-0.1-0.145,A1N1ULK71RHVMM,30UZJB2PPKSSO21QHKUJ0S8JS3B35M,3JC6VJ2SAFZVU6Y5G1EVCKICSQ75AN,2,1
146,1,object_08,object_03,720.0,1,2,717.59999996424,0.7777777777777778,1,object_01,5,2269,0,7,2,desert_3,2,memory-2step-stake-s,643,3527148,0.0-19.0-0.1-0.146,A1N1ULK71RHVMM,30UZJB2PPKSSO21QHKUJ0S8JS3B35M,3JC6VJ2SAFZVU6Y5G1EVCKICSQ75AN,2,1
147,2,object_09,object_05,-1.0,-1,-1,-1.0,0.0,-,0,5,2269,0,9,0,forest_6,2,memory-2step-stake-s,644,3533709,0.0-19.0-0.1-0.147,A1N1ULK71RHVMM,30UZJB2PPKSSO21QHKUJ0S8JS3B35M,3JC6VJ2SAFZVU6Y5G1EVCKICSQ75AN,3,4
148,3,object_02,object_07,775.5,5,2,695.5,0.8888888888888888,1,object_01,5,2309,0,8,1,library_4,2,memory-2step-stake-s,645,3542555,0.0-19.0-0.1-0.148,A1N1ULK71RHVMM,30UZJB2PPKSSO21QHKUJ0S8JS3B35M,3JC6VJ2SAFZVU6Y5G1EVCKICSQ75AN,6,5
149,4,object_10,object_04,125.39999997616,7,2,470.40000003576,0.6666666666666666,1,object_01,1,2315,0,6,1,restaurant_3,2,memory-2step-stake-s,646,3550941,0.0-19.0-0.1-0.149,A1N1ULK71RHVMM,30UZJB2PPKSSO21QHKUJ0S8JS3B35M,3JC6VJ2SAFZVU6Y5G1EVCKICSQ75AN,8,7
150,2,object_05,object_09,1114.4000000358,3,2,795.30000001192,0.6666666666666666,1,object_01,5,2345,0,6,3,forest_3,2,memory-2step-stake-s,647,3559644,0.0-19.0-0.1-0.150,A1N1ULK71RHVMM,30UZJB2PPKSSO21QHKUJ0S8JS3B35M,3JC6VJ2SAFZVU6Y5G1EVCKICSQ75AN,4,3
151,3,object_02,object_07,-1.0,-1,-1,-1.0,0.0,-,0,1,2345,0,3,5,library_6,2,memory-2step-stake-s,648,3566192,0.0-19.0-0.1-0.151,A1N1ULK71RHVMM,30UZJB2PPKSSO21QHKUJ0S8JS3B35M,3JC6VJ2SAFZVU6Y5G1EVCKICSQ75AN,6,5
152,1,object_03,object_08,679.90000003576,1,1,423.89999997616,0.5555555555555556,1,object_01,5,2370,0,5,5,desert_1,2,memory-2step-stake-s,649,3574407,0.0-19.0-0.1-0.152,A1N1ULK71RHVMM,30UZJB2PPKSSO21QHKUJ0S8JS3B35M,3JC6VJ2SAFZVU6Y5G1EVCKICSQ75AN,1,2
153,2,object_09,object_05,425.10000002384,4,2,549.0,0.6666666666666666,2,object_06,5,2400,0,4,6,forest_6,2,memory-2step-stake-s,650,3582847,0.0-19.0-0.1-0.153,A1N1ULK71RHVMM,30UZJB2PPKSSO21QHKUJ0S8JS3B35M,3JC6VJ2SAFZVU6Y5G1EVCKICSQ75AN,3,4
154,2,object_05,object_09,1309.8000000119,4,1,771.80000001192,0.7777777777777778,2,object_06,1,2407,0,3,7,forest_3,2,memory-2step-stake-s,651,3591631,0.0-19.0-0.1-0.154,A1N1ULK71RHVMM,30UZJB2PPKSSO21QHKUJ0S8JS3B35M,3JC6VJ2SAFZVU6Y5G1EVCKICSQ75AN,4,3
155,3,object_07,object_02,430.0,6,2,696.90000003576,1.0,2,object_06,1,2416,0,7,9,library_3,2,memory-2step-stake-s,652,3600549,0.0-19.0-0.1-0.155,A1N1ULK71RHVMM,30UZJB2PPKSSO21QHKUJ0S8JS3B35M,3JC6VJ2SAFZVU6Y5G1EVCKICSQ75AN,5,6
156,2,object_05,object_09,562.80000001192,3,2,514.39999997616,0.4444444444444444,1,object_01,5,2436,0,4,5,forest_2,2,memory-2step-stake-s,653,3608743,0.0-19.0-0.1-0.156,A1N1ULK71RHVMM,30UZJB2PPKSSO21QHKUJ0S8JS3B35M,3JC6VJ2SAFZVU6Y5G1EVCKICSQ75AN,4,3
157,2,object_05,object_09,1317.3999999762,4,1,740.09999996424,0.0,2,object_06,5,2436,0,5,0,forest_2,2,memory-2step-stake-s,654,3616757,0.0-19.0-0.1-0.157,A1N1ULK71RHVMM,30UZJB2PPKSSO21QHKUJ0S8JS3B35M,3JC6VJ2SAFZVU6Y5G1EVCKICSQ75AN,4,3
158,4,object_10,object_04,1432.8000000119,7,2,746.10000002384,0.8888888888888888,1,object_01,1,2444,0,8,4,restaurant_7,2,memory-2step-stake-s,655,3625619,0.0-19.0-0.1-0.158,A1N1ULK71RHVMM,30UZJB2PPKSSO21QHKUJ0S8JS3B35M,3JC6VJ2SAFZVU6Y5G1EVCKICSQ75AN,8,7
159,1,object_03,object_08,1316.3000000119,1,1,611.70000004768,0.7777777777777778,1,object_01,5,2479,0,7,1,desert_3,2,memory-2step-stake-s,656,3634232,0.0-19.0-0.1-0.159,A1N1ULK71RHVMM,30UZJB2PPKSSO21QHKUJ0S8JS3B35M,3JC6VJ2SAFZVU6Y5G1EVCKICSQ75AN,1,2
160,3,object_07,object_02,346.10000002384,6,2,433.79999995232,0.3333333333333333,2,object_06,1,2482,0,5,3,library_6,2,memory-2step-stake-s,657,3642243,0.0-19.0-0.1-0.160,A1N1ULK71RHVMM,30UZJB2PPKSSO21QHKUJ0S8JS3B35M,3JC6VJ2SAFZVU6Y5G1EVCKICSQ75AN,5,6
161,1,object_08,object_03,454.10000002384,1,2,557.19999998808,0.6666666666666666,1,object_01,5,2512,0,6,0,desert_7,2,memory-2step-stake-s,658,3650698,0.0-19.0-0.1-0.161,A1N1ULK71RHVMM,30UZJB2PPKSSO21QHKUJ0S8JS3B35M,3JC6VJ2SAFZVU6Y5G1EVCKICSQ75AN,2,1
162,1,object_08,object_03,676.80000001192,2,1,692.19999998808,0.2222222222222222,2,object_06,5,2522,0,6,2,desert_1,2,memory-2step-stake-s,659,3658892,0.0-19.0-0.1-0.162,A1N1ULK71RHVMM,30UZJB2PPKSSO21QHKUJ0S8JS3B35M,3JC6VJ2SAFZVU6Y5G1EVCKICSQ75AN,2,1
163,3,object_07,object_02,426.59999996424,6,2,384.19999998808,0.3333333333333333,2,object_06,1,2525,0,3,3,library_5,2,memory-2step-stake-s,660,3666862,0.0-19.0-0.1-0.163,A1N1ULK71RHVMM,30UZJB2PPKSSO21QHKUJ0S8JS3B35M,3JC6VJ2SAFZVU6Y5G1EVCKICSQ75AN,5,6
164,4,object_10,object_04,299.80000001192,8,1,486.19999998808,0.5555555555555556,2,object_06,1,2530,0,6,5,restaurant_3,2,memory-2step-stake-s,661,3675140,0.0-19.0-0.1-0.164,A1N1ULK71RHVMM,30UZJB2PPKSSO21QHKUJ0S8JS3B35M,3JC6VJ2SAFZVU6Y5G1EVCKICSQ75AN,8,7
165,2,object_05,object_09,861.19999998808,3,2,592.69999998808,1.0,1,object_01,5,2575,0,9,4,forest_3,2,memory-2step-stake-s,662,3683941,0.0-19.0-0.1-0.165,A1N1ULK71RHVMM,30UZJB2PPKSSO21QHKUJ0S8JS3B35M,3JC6VJ2SAFZVU6Y5G1EVCKICSQ75AN,4,3
166,2,object_09,object_05,1048.8999999762,3,1,760.69999998808,0.7777777777777778,1,object_01,5,2610,0,7,4,forest_1,2,memory-2step-stake-s,663,3692725,0.0-19.0-0.1-0.166,A1N1ULK71RHVMM,30UZJB2PPKSSO21QHKUJ0S8JS3B35M,3JC6VJ2SAFZVU6Y5G1EVCKICSQ75AN,3,4
167,4,object_04,object_10,410.60000002384,8,2,442.19999998808,0.4444444444444444,2,object_06,1,2614,0,7,4,restaurant_3,2,memory-2step-stake-s,664,3700844,0.0-19.0-0.1-0.167,A1N1ULK71RHVMM,30UZJB2PPKSSO21QHKUJ0S8JS3B35M,3JC6VJ2SAFZVU6Y5G1EVCKICSQ75AN,7,8
168,3,object_07,object_02,312.0,5,1,410.89999997616,0.5555555555555556,1,object_01,1,2619,0,5,3,library_5,2,memory-2step-stake-s,665,3709068,0.0-19.0-0.1-0.168,A1N1ULK71RHVMM,30UZJB2PPKSSO21QHKUJ0S8JS3B35M,3JC6VJ2SAFZVU6Y5G1EVCKICSQ75AN,5,6
169,3,object_02,object_07,939.30000001192,6,1,1289.6999999881,0.2222222222222222,2,object_06,5,2629,0,4,2,library_5,2,memory-2step-stake-s,666,3717833,0.0-19.0-0.1-0.169,A1N1ULK71RHVMM,30UZJB2PPKSSO21QHKUJ0S8JS3B35M,3JC6VJ2SAFZVU6Y5G1EVCKICSQ75AN,6,5
170,3,object_02,object_07,516.79999995232,5,2,431.10000002384,0.8888888888888888,1,object_01,1,2637,0,8,3,library_3,2,memory-2step-stake-s,667,3726396,0.0-19.0-0.1-0.170,A1N1ULK71RHVMM,30UZJB2PPKSSO21QHKUJ0S8JS3B35M,3JC6VJ2SAFZVU6Y5G1EVCKICSQ75AN,6,5
171,2,object_09,object_05,599.80000001192,4,2,352.60000002384,0.4444444444444444,2,object_06,5,2657,0,9,4,forest_1,2,memory-2step-stake-s,668,3734456,0.0-19.0-0.1-0.171,A1N1ULK71RHVMM,30UZJB2PPKSSO21QHKUJ0S8JS3B35M,3JC6VJ2SAFZVU6Y5G1EVCKICSQ75AN,3,4
172,1,object_03,object_08,713.10000002384,1,1,343.89999997616,0.6666666666666666,1,object_01,5,2687,0,6,3,desert_7,2,memory-2step-stake-s,669,3742714,0.0-19.0-0.1-0.172,A1N1ULK71RHVMM,30UZJB2PPKSSO21QHKUJ0S8JS3B35M,3JC6VJ2SAFZVU6Y5G1EVCKICSQ75AN,1,2
173,2,object_05,object_09,474.19999998808,3,2,365.40000003576,0.4444444444444444,1,object_01,1,2691,0,4,3,forest_2,2,memory-2step-stake-s,670,3750764,0.0-19.0-0.1-0.173,A1N1ULK71RHVMM,30UZJB2PPKSSO21QHKUJ0S8JS3B35M,3JC6VJ2SAFZVU6Y5G1EVCKICSQ75AN,4,3
174,4,object_10,object_04,414.80000001192,7,2,615.10000002384,0.5555555555555556,1,object_01,1,2696,0,5,2,restaurant_4,2,memory-2step-stake-s,671,3759898,0.0-19.0-0.1-0.174,A1N1ULK71RHVMM,30UZJB2PPKSSO21QHKUJ0S8JS3B35M,3JC6VJ2SAFZVU6Y5G1EVCKICSQ75AN,8,7
175,2,object_05,object_09,469.89999997616,4,1,461.30000001192,0.2222222222222222,2,object_06,1,2698,0,6,2,forest_2,2,memory-2step-stake-s,672,3767831,0.0-19.0-0.1-0.175,A1N1ULK71RHVMM,30UZJB2PPKSSO21QHKUJ0S8JS3B35M,3JC6VJ2SAFZVU6Y5G1EVCKICSQ75AN,4,3
176,2,object_09,object_05,665.89999997616,3,1,435.89999997616,0.7777777777777778,1,object_01,5,2733,0,7,5,forest_3,2,memory-2step-stake-s,673,3776287,0.0-19.0-0.1-0.176,A1N1ULK71RHVMM,30UZJB2PPKSSO21QHKUJ0S8JS3B35M,3JC6VJ2SAFZVU6Y5G1EVCKICSQ75AN,3,4
177,3,object_07,object_02,618.09999996424,6,2,402.89999997616,0.8888888888888888,2,object_06,5,2773,0,7,8,library_3,2,memory-2step-stake-s,674,3784792,0.0-19.0-0.1-0.177,A1N1ULK71RHVMM,30UZJB2PPKSSO21QHKUJ0S8JS3B35M,3JC6VJ2SAFZVU6Y5G1EVCKICSQ75AN,5,6
178,1,object_08,object_03,774.30000001192,2,1,366.80000001192,0.7777777777777778,2,object_06,5,2808,0,7,7,desert_3,2,memory-2step-stake-s,675,3793177,0.0-19.0-0.1-0.178,A1N1ULK71RHVMM,30UZJB2PPKSSO21QHKUJ0S8JS3B35M,3JC6VJ2SAFZVU6Y5G1EVCKICSQ75AN,2,1
179,3,object_02,object_07,311.30000001192,5,2,410.80000001192,0.4444444444444444,1,object_01,1,2812,0,4,6,library_3,2,memory-2step-stake-s,676,3801277,0.0-19.0-0.1-0.179,A1N1ULK71RHVMM,30UZJB2PPKSSO21QHKUJ0S8JS3B35M,3JC6VJ2SAFZVU6Y5G1EVCKICSQ75AN,6,5
180,1,object_08,object_03,880.19999998808,2,1,430.40000003576,0.7777777777777778,2,object_06,5,2847,0,5,7,desert_1,2,memory-2step-stake-s,677,3809735,0.0-19.0-0.1-0.180,A1N1ULK71RHVMM,30UZJB2PPKSSO21QHKUJ0S8JS3B35M,3JC6VJ2SAFZVU6Y5G1EVCKICSQ75AN,2,1
181,3,object_07,object_02,396.39999997616,6,2,496.0,0.7777777777777778,2,object_06,1,2854,0,5,7,library_5,2,memory-2step-stake-s,678,3818257,0.0-19.0-0.1-0.181,A1N1ULK71RHVMM,30UZJB2PPKSSO21QHKUJ0S8JS3B35M,3JC6VJ2SAFZVU6Y5G1EVCKICSQ75AN,5,6
182,3,object_07,object_02,349.10000002384,6,2,433.0,0.8888888888888888,2,object_06,1,2862,0,3,8,library_4,2,memory-2step-stake-s,679,3826810,0.0-19.0-0.1-0.182,A1N1ULK71RHVMM,30UZJB2PPKSSO21QHKUJ0S8JS3B35M,3JC6VJ2SAFZVU6Y5G1EVCKICSQ75AN,5,6
183,2,object_09,object_05,693.90000003576,3,1,319.80000001192,0.3333333333333333,1,object_01,5,2877,0,3,8,forest_3,2,memory-2step-stake-s,680,3834715,0.0-19.0-0.1-0.183,A1N1ULK71RHVMM,30UZJB2PPKSSO21QHKUJ0S8JS3B35M,3JC6VJ2SAFZVU6Y5G1EVCKICSQ75AN,3,4
184,4,object_04,object_10,407.39999997616,8,2,392.5,0.6666666666666666,2,object_06,1,2883,0,1,6,restaurant_4,2,memory-2step-stake-s,681,3843042,0.0-19.0-0.1-0.184,A1N1ULK71RHVMM,30UZJB2PPKSSO21QHKUJ0S8JS3B35M,3JC6VJ2SAFZVU6Y5G1EVCKICSQ75AN,7,8
185,3,object_02,object_07,361.19999998808,5,2,582.5,0.0,1,object_01,1,2883,0,0,6,library_6,2,memory-2step-stake-s,682,3850892,0.0-19.0-0.1-0.185,A1N1ULK71RHVMM,30UZJB2PPKSSO21QHKUJ0S8JS3B35M,3JC6VJ2SAFZVU6Y5G1EVCKICSQ75AN,6,5
186,4,object_04,object_10,616.30000001192,7,1,572.5,0.2222222222222222,1,object_01,1,2885,0,2,6,restaurant_4,2,memory-2step-stake-s,683,3858921,0.0-19.0-0.1-0.186,A1N1ULK71RHVMM,30UZJB2PPKSSO21QHKUJ0S8JS3B35M,3JC6VJ2SAFZVU6Y5G1EVCKICSQ75AN,7,8
187,2,object_09,object_05,745.69999998808,4,2,503.60000002384,0.8888888888888888,2,object_06,5,2925,0,5,8,forest_3,2,memory-2step-stake-s,684,3867553,0.0-19.0-0.1-0.187,A1N1ULK71RHVMM,30UZJB2PPKSSO21QHKUJ0S8JS3B35M,3JC6VJ2SAFZVU6Y5G1EVCKICSQ75AN,3,4
188,3,object_02,object_07,349.10000002384,5,2,394.60000002384,0.6666666666666666,1,object_01,1,2931,0,6,9,library_3,2,memory-2step-stake-s,685,3875835,0.0-19.0-0.1-0.188,A1N1ULK71RHVMM,30UZJB2PPKSSO21QHKUJ0S8JS3B35M,3JC6VJ2SAFZVU6Y5G1EVCKICSQ75AN,6,5
189,2,object_05,object_09,-1.0,-1,-1,-1.0,0.0,-,0,5,2931,0,6,8,forest_2,2,memory-2step-stake-s,686,3882386,0.0-19.0-0.1-0.189,A1N1ULK71RHVMM,30UZJB2PPKSSO21QHKUJ0S8JS3B35M,3JC6VJ2SAFZVU6Y5G1EVCKICSQ75AN,4,3
190,1,object_08,object_03,829.90000003576,2,1,352.89999997616,0.7777777777777778,2,object_06,5,2966,0,8,7,desert_3,2,memory-2step-stake-s,687,3890759,0.0-19.0-0.1-0.190,A1N1ULK71RHVMM,30UZJB2PPKSSO21QHKUJ0S8JS3B35M,3JC6VJ2SAFZVU6Y5G1EVCKICSQ75AN,2,1
191,2,object_05,object_09,968.19999998808,4,1,401.60000002384,1.0,2,object_06,5,3011,0,7,9,forest_2,2,memory-2step-stake-s,688,3899367,0.0-19.0-0.1-0.191,A1N1ULK71RHVMM,30UZJB2PPKSSO21QHKUJ0S8JS3B35M,3JC6VJ2SAFZVU6Y5G1EVCKICSQ75AN,4,3
192,4,object_10,object_04,409.19999998808,7,2,406.30000001192,0.7777777777777778,1,object_01,1,3018,0,7,8,restaurant_3,2,memory-2step-stake-s,689,3907786,0.0-19.0-0.1-0.192,A1N1ULK71RHVMM,30UZJB2PPKSSO21QHKUJ0S8JS3B35M,3JC6VJ2SAFZVU6Y5G1EVCKICSQ75AN,8,7
193,3,object_07,object_02,542.40000003576,6,2,554.30000001192,0.8888888888888888,2,object_06,1,3026,0,8,8,library_6,2,memory-2step-stake-s,690,3916465,0.0-19.0-0.1-0.193,A1N1ULK71RHVMM,30UZJB2PPKSSO21QHKUJ0S8JS3B35M,3JC6VJ2SAFZVU6Y5G1EVCKICSQ75AN,5,6
194,1,object_08,object_03,332.59999996424,1,2,352.90000003576,0.7777777777777778,1,object_01,1,3033,0,7,8,desert_3,2,memory-2step-stake-s,691,3924829,0.0-19.0-0.1-0.194,A1N1ULK71RHVMM,30UZJB2PPKSSO21QHKUJ0S8JS3B35M,3JC6VJ2SAFZVU6Y5G1EVCKICSQ75AN,2,1
195,4,object_10,object_04,656.0,8,1,530.30000001192,0.3333333333333333,2,object_06,1,3036,0,7,3,restaurant_7,2,memory-2step-stake-s,692,3932952,0.0-19.0-0.1-0.195,A1N1ULK71RHVMM,30UZJB2PPKSSO21QHKUJ0S8JS3B35M,3JC6VJ2SAFZVU6Y5G1EVCKICSQ75AN,8,7
196,2,object_05,object_09,1027.3000000119,3,2,338.39999997616,1.0,1,object_01,5,3081,0,9,4,forest_1,2,memory-2step-stake-s,693,3941528,0.0-19.0-0.1-0.196,A1N1ULK71RHVMM,30UZJB2PPKSSO21QHKUJ0S8JS3B35M,3JC6VJ2SAFZVU6Y5G1EVCKICSQ75AN,4,3
197,1,object_08,object_03,951.89999997616,1,2,589.20000004768,0.7777777777777778,1,object_01,5,3116,0,7,6,desert_4,2,memory-2step-stake-s,694,3950121,0.0-19.0-0.1-0.197,A1N1ULK71RHVMM,30UZJB2PPKSSO21QHKUJ0S8JS3B35M,3JC6VJ2SAFZVU6Y5G1EVCKICSQ75AN,2,1
198,3,object_07,object_02,466.0,6,2,433.40000003576,0.8888888888888888,2,object_06,1,3124,0,3,8,library_3,2,memory-2step-stake-s,695,3958701,0.0-19.0-0.1-0.198,A1N1ULK71RHVMM,30UZJB2PPKSSO21QHKUJ0S8JS3B35M,3JC6VJ2SAFZVU6Y5G1EVCKICSQ75AN,5,6
199,2,object_09,object_05,446.39999997616,3,1,415.5,0.7777777777777778,1,object_01,1,3131,0,7,8,forest_3,2,memory-2step-stake-s,696,3967115,0.0-19.0-0.1-0.199,A1N1ULK71RHVMM,30UZJB2PPKSSO21QHKUJ0S8JS3B35M,3JC6VJ2SAFZVU6Y5G1EVCKICSQ75AN,3,4
200,1,object_08,object_03,886.60000002384,1,2,464.79999995232,0.4444444444444444,1,object_01,5,3151,0,4,7,desert_1,2,memory-2step-stake-s,697,3975291,0.0-19.0-0.1-0.200,A1N1ULK71RHVMM,30UZJB2PPKSSO21QHKUJ0S8JS3B35M,3JC6VJ2SAFZVU6Y5G1EVCKICSQ75AN,2,1
201,2,object_05,object_09,692.39999997616,4,1,417.69999998808,0.7777777777777778,2,object_06,5,3186,0,3,7,forest_6,2,memory-2step-stake-s,698,3983714,0.0-19.0-0.1-0.201,A1N1ULK71RHVMM,30UZJB2PPKSSO21QHKUJ0S8JS3B35M,3JC6VJ2SAFZVU6Y5G1EVCKICSQ75AN,4,3
202,2,object_05,object_09,436.40000003576,3,2,414.69999998808,0.3333333333333333,1,object_01,1,3189,0,3,7,forest_6,2,memory-2step-stake-s,699,3991707,0.0-19.0-0.1-0.202,A1N1ULK71RHVMM,30UZJB2PPKSSO21QHKUJ0S8JS3B35M,3JC6VJ2SAFZVU6Y5G1EVCKICSQ75AN,4,3
203,4,object_04,object_10,450.90000003576,8,2,437.19999998808,0.5555555555555556,2,object_06,1,3194,0,2,5,restaurant_7,2,memory-2step-stake-s,700,3999929,0.0-19.0-0.1-0.203,A1N1ULK71RHVMM,30UZJB2PPKSSO21QHKUJ0S8JS3B35M,3JC6VJ2SAFZVU6Y5G1EVCKICSQ75AN,7,8
204,1,object_08,object_03,444.30000001192,1,2,518.0,0.1111111111111111,1,object_01,1,3195,0,1,6,desert_7,2,memory-2step-stake-s,701,4007794,0.0-19.0-0.1-0.204,A1N1ULK71RHVMM,30UZJB2PPKSSO21QHKUJ0S8JS3B35M,3JC6VJ2SAFZVU6Y5G1EVCKICSQ75AN,2,1
205,2,object_05,object_09,1014.5,4,1,360.5,0.7777777777777778,2,object_06,5,3230,0,1,7,forest_1,2,memory-2step-stake-s,702,4016169,0.0-19.0-0.1-0.205,A1N1ULK71RHVMM,30UZJB2PPKSSO21QHKUJ0S8JS3B35M,3JC6VJ2SAFZVU6Y5G1EVCKICSQ75AN,4,3
206,1,object_08,object_03,647.60000002384,1,2,453.19999998808,0.1111111111111111,1,object_01,5,3235,0,1,5,desert_1,2,memory-2step-stake-s,703,4023987,0.0-19.0-0.1-0.206,A1N1ULK71RHVMM,30UZJB2PPKSSO21QHKUJ0S8JS3B35M,3JC6VJ2SAFZVU6Y5G1EVCKICSQ75AN,2,1
207,2,object_09,object_05,952.69999998808,4,2,404.29999995232,0.6666666666666666,2,object_06,5,3265,0,2,6,forest_2,2,memory-2step-stake-s,704,4032322,0.0-19.0-0.1-0.207,A1N1ULK71RHVMM,30UZJB2PPKSSO21QHKUJ0S8JS3B35M,3JC6VJ2SAFZVU6Y5G1EVCKICSQ75AN,3,4
208,2,object_05,object_09,344.40000003576,3,2,311.39999997616,0.3333333333333333,1,object_01,1,3268,0,3,8,forest_3,2,memory-2step-stake-s,705,4040206,0.0-19.0-0.1-0.208,A1N1ULK71RHVMM,30UZJB2PPKSSO21QHKUJ0S8JS3B35M,3JC6VJ2SAFZVU6Y5G1EVCKICSQ75AN,4,3
209,4,object_04,object_10,330.19999998808,8,2,362.69999998808,0.5555555555555556,2,object_06,1,3273,0,3,5,restaurant_2,2,memory-2step-stake-s,706,4048372,0.0-19.0-0.1-0.209,A1N1ULK71RHVMM,30UZJB2PPKSSO21QHKUJ0S8JS3B35M,3JC6VJ2SAFZVU6Y5G1EVCKICSQ75AN,7,8
210,2,object_05,object_09,719.39999997616,4,1,434.40000003576,0.2222222222222222,2,object_06,5,3283,0,1,2,forest_1,2,memory-2step-stake-s,707,4056309,0.0-19.0-0.1-0.210,A1N1ULK71RHVMM,30UZJB2PPKSSO21QHKUJ0S8JS3B35M,3JC6VJ2SAFZVU6Y5G1EVCKICSQ75AN,4,3
211,4,object_10,object_04,483.5,7,2,480.0,0.3333333333333333,1,object_01,5,3298,0,3,2,restaurant_4,2,memory-2step-stake-s,708,4064390,0.0-19.0-0.1-0.211,A1N1ULK71RHVMM,30UZJB2PPKSSO21QHKUJ0S8JS3B35M,3JC6VJ2SAFZVU6Y5G1EVCKICSQ75AN,8,7
212,3,object_07,object_02,590.30000001192,6,2,445.80000001192,0.1111111111111111,2,object_06,5,3303,0,2,1,library_5,2,memory-2step-stake-s,709,4072204,0.0-19.0-0.1-0.212,A1N1ULK71RHVMM,30UZJB2PPKSSO21QHKUJ0S8JS3B35M,3JC6VJ2SAFZVU6Y5G1EVCKICSQ75AN,5,6
213,4,object_04,object_10,407.60000002384,7,1,449.30000001192,0.1111111111111111,1,object_01,1,3304,0,1,2,restaurant_4,2,memory-2step-stake-s,710,4080033,0.0-19.0-0.1-0.213,A1N1ULK71RHVMM,30UZJB2PPKSSO21QHKUJ0S8JS3B35M,3JC6VJ2SAFZVU6Y5G1EVCKICSQ75AN,7,8
214,3,object_07,object_02,546.30000001192,6,2,412.90000003576,0.5555555555555556,2,object_06,5,3329,0,5,5,library_5,2,memory-2step-stake-s,711,4088237,0.0-19.0-0.1-0.214,A1N1ULK71RHVMM,30UZJB2PPKSSO21QHKUJ0S8JS3B35M,3JC6VJ2SAFZVU6Y5G1EVCKICSQ75AN,5,6
215,1,object_03,object_08,430.80000001192,2,2,408.0,0.6666666666666666,2,object_06,5,3359,0,2,6,desert_4,2,memory-2step-stake-s,712,4096565,0.0-19.0-0.1-0.215,A1N1ULK71RHVMM,30UZJB2PPKSSO21QHKUJ0S8JS3B35M,3JC6VJ2SAFZVU6Y5G1EVCKICSQ75AN,1,2
216,2,object_05,object_09,727.30000001192,4,1,502.69999998808,0.6666666666666666,2,object_06,5,3389,0,2,6,forest_3,2,memory-2step-stake-s,713,4104992,0.0-19.0-0.1-0.216,A1N1ULK71RHVMM,30UZJB2PPKSSO21QHKUJ0S8JS3B35M,3JC6VJ2SAFZVU6Y5G1EVCKICSQ75AN,4,3
217,4,object_04,object_10,349.19999998808,8,2,399.10000002384,0.3333333333333333,2,object_06,1,3392,0,1,3,restaurant_4,2,memory-2step-stake-s,714,4112956,0.0-19.0-0.1-0.217,A1N1ULK71RHVMM,30UZJB2PPKSSO21QHKUJ0S8JS3B35M,3JC6VJ2SAFZVU6Y5G1EVCKICSQ75AN,7,8
218,4,object_04,object_10,2.6000000238419,7,1,535.39999997616,0.1111111111111111,1,object_01,1,3393,0,1,4,restaurant_4,2,memory-2step-stake-s,715,4120854,0.0-19.0-0.1-0.218,A1N1ULK71RHVMM,30UZJB2PPKSSO21QHKUJ0S8JS3B35M,3JC6VJ2SAFZVU6Y5G1EVCKICSQ75AN,7,8
219,3,object_02,object_07,310.20000004768,5,2,353.30000001192,0.1111111111111111,1,object_01,1,3394,0,1,5,library_5,2,memory-2step-stake-s,716,4128577,0.0-19.0-0.1-0.219,A1N1ULK71RHVMM,30UZJB2PPKSSO21QHKUJ0S8JS3B35M,3JC6VJ2SAFZVU6Y5G1EVCKICSQ75AN,6,5
220,3,object_07,object_02,590.20000004768,6,2,367.5,0.3333333333333333,2,object_06,1,3397,0,1,3,library_4,2,memory-2step-stake-s,717,4136549,0.0-19.0-0.1-0.220,A1N1ULK71RHVMM,30UZJB2PPKSSO21QHKUJ0S8JS3B35M,3JC6VJ2SAFZVU6Y5G1EVCKICSQ75AN,5,6
221,1,object_03,object_08,962.90000003576,1,1,379.40000003576,0.1111111111111111,1,object_01,5,3402,0,1,3,desert_7,2,memory-2step-stake-s,718,4144313,0.0-19.0-0.1-0.221,A1N1ULK71RHVMM,30UZJB2PPKSSO21QHKUJ0S8JS3B35M,3JC6VJ2SAFZVU6Y5G1EVCKICSQ75AN,1,2
222,4,object_04,object_10,956.0,8,2,508.5,0.3333333333333333,2,object_06,5,3417,0,5,3,restaurant_7,2,memory-2step-stake-s,719,4152412,0.0-19.0-0.1-0.222,A1N1ULK71RHVMM,30UZJB2PPKSSO21QHKUJ0S8JS3B35M,3JC6VJ2SAFZVU6Y5G1EVCKICSQ75AN,7,8
223,1,object_08,object_03,343.39999997616,1,2,293.69999998808,0.6666666666666666,1,object_01,1,3423,0,6,0,desert_4,2,memory-2step-stake-s,720,4160623,0.0-19.0-0.1-0.223,A1N1ULK71RHVMM,30UZJB2PPKSSO21QHKUJ0S8JS3B35M,3JC6VJ2SAFZVU6Y5G1EVCKICSQ75AN,2,1
224,4,object_04,object_10,1134.1000000238,7,1,424.90000003576,0.7777777777777778,1,object_01,5,3458,0,7,3,restaurant_2,2,memory-2step-stake-s,721,4169079,0.0-19.0-0.1-0.224,A1N1ULK71RHVMM,30UZJB2PPKSSO21QHKUJ0S8JS3B35M,3JC6VJ2SAFZVU6Y5G1EVCKICSQ75AN,7,8
225,3,object_07,object_02,416.0,6,2,385.20000004768,0.2222222222222222,2,object_06,1,3460,0,8,2,library_6,2,memory-2step-stake-s,722,4176957,0.0-19.0-0.1-0.225,A1N1ULK71RHVMM,30UZJB2PPKSSO21QHKUJ0S8JS3B35M,3JC6VJ2SAFZVU6Y5G1EVCKICSQ75AN,5,6
226,3,object_07,object_02,440.19999998808,5,1,392.5,0.7777777777777778,1,object_01,1,3467,0,7,1,library_6,2,memory-2step-stake-s,723,4185357,0.0-19.0-0.1-0.226,A1N1ULK71RHVMM,30UZJB2PPKSSO21QHKUJ0S8JS3B35M,3JC6VJ2SAFZVU6Y5G1EVCKICSQ75AN,5,6
227,2,object_09,object_05,695.89999997616,4,2,601.30000001192,0.0,2,object_06,5,3467,0,7,0,forest_2,2,memory-2step-stake-s,724,4193237,0.0-19.0-0.1-0.227,A1N1ULK71RHVMM,30UZJB2PPKSSO21QHKUJ0S8JS3B35M,3JC6VJ2SAFZVU6Y5G1EVCKICSQ75AN,3,4
228,1,object_08,object_03,370.0,1,2,528.09999996424,0.7777777777777778,1,object_01,1,3474,0,7,1,desert_3,2,memory-2step-stake-s,725,4201776,0.0-19.0-0.1-0.228,A1N1ULK71RHVMM,30UZJB2PPKSSO21QHKUJ0S8JS3B35M,3JC6VJ2SAFZVU6Y5G1EVCKICSQ75AN,2,1
229,4,object_10,object_04,451.19999998808,8,1,380.40000003576,0.0,2,object_06,1,3474,0,7,0,restaurant_3,2,memory-2step-stake-s,726,4209423,0.0-19.0-0.1-0.229,A1N1ULK71RHVMM,30UZJB2PPKSSO21QHKUJ0S8JS3B35M,3JC6VJ2SAFZVU6Y5G1EVCKICSQ75AN,8,7
230,3,object_02,object_07,479.69999998808,5,2,1041.3000000119,0.8888888888888888,1,object_01,5,3514,0,8,0,library_4,2,memory-2step-stake-s,727,4218589,0.0-19.0-0.1-0.230,A1N1ULK71RHVMM,30UZJB2PPKSSO21QHKUJ0S8JS3B35M,3JC6VJ2SAFZVU6Y5G1EVCKICSQ75AN,6,5
231,3,object_02,object_07,385.5,5,2,517.5,0.6666666666666666,1,object_01,1,3520,0,6,0,library_5,2,memory-2step-stake-s,728,4227055,0.0-19.0-0.1-0.231,A1N1ULK71RHVMM,30UZJB2PPKSSO21QHKUJ0S8JS3B35M,3JC6VJ2SAFZVU6Y5G1EVCKICSQ75AN,6,5
232,1,object_08,object_03,664.39999997616,2,1,423.10000002384,0.1111111111111111,2,object_06,5,3525,0,5,1,desert_4,2,memory-2step-stake-s,729,4234848,0.0-19.0-0.1-0.232,A1N1ULK71RHVMM,30UZJB2PPKSSO21QHKUJ0S8JS3B35M,3JC6VJ2SAFZVU6Y5G1EVCKICSQ75AN,2,1
233,4,object_10,object_04,866.20000004768,7,2,512.60000002384,0.5555555555555556,1,object_01,1,3530,0,5,1,restaurant_3,2,memory-2step-stake-s,730,4243157,0.0-19.0-0.1-0.233,A1N1ULK71RHVMM,30UZJB2PPKSSO21QHKUJ0S8JS3B35M,3JC6VJ2SAFZVU6Y5G1EVCKICSQ75AN,8,7
234,1,object_08,object_03,405.0,1,2,425.59999996424,1.0,1,object_01,1,3539,0,9,1,desert_7,2,memory-2step-stake-s,731,4251803,0.0-19.0-0.1-0.234,A1N1ULK71RHVMM,30UZJB2PPKSSO21QHKUJ0S8JS3B35M,3JC6VJ2SAFZVU6Y5G1EVCKICSQ75AN,2,1
235,4,object_10,object_04,737.09999996424,8,1,416.39999997616,0.5555555555555556,2,object_06,1,3544,0,8,5,restaurant_3,2,memory-2step-stake-s,732,4260037,0.0-19.0-0.1-0.235,A1N1ULK71RHVMM,30UZJB2PPKSSO21QHKUJ0S8JS3B35M,3JC6VJ2SAFZVU6Y5G1EVCKICSQ75AN,8,7
236,1,object_03,object_08,917.30000001192,1,1,342.39999997616,0.7777777777777778,1,object_01,5,3579,0,7,5,desert_3,2,memory-2step-stake-s,733,4268395,0.0-19.0-0.1-0.236,A1N1ULK71RHVMM,30UZJB2PPKSSO21QHKUJ0S8JS3B35M,3JC6VJ2SAFZVU6Y5G1EVCKICSQ75AN,1,2
237,4,object_04,object_10,534.69999998808,8,2,459.90000003576,0.2222222222222222,2,object_06,1,3581,0,4,2,restaurant_2,2,memory-2step-stake-s,734,4276335,0.0-19.0-0.1-0.237,A1N1ULK71RHVMM,30UZJB2PPKSSO21QHKUJ0S8JS3B35M,3JC6VJ2SAFZVU6Y5G1EVCKICSQ75AN,7,8
238,4,object_04,object_10,420.40000003576,8,2,450.0,0.6666666666666666,2,object_06,1,3587,0,2,6,restaurant_4,2,memory-2step-stake-s,735,4284691,0.0-19.0-0.1-0.238,A1N1ULK71RHVMM,30UZJB2PPKSSO21QHKUJ0S8JS3B35M,3JC6VJ2SAFZVU6Y5G1EVCKICSQ75AN,7,8
239,4,object_10,object_04,398.0,8,1,444.30000001192,0.2222222222222222,2,object_06,1,3589,0,2,2,restaurant_2,2,memory-2step-stake-s,736,4292617,0.0-19.0-0.1-0.239,A1N1ULK71RHVMM,30UZJB2PPKSSO21QHKUJ0S8JS3B35M,3JC6VJ2SAFZVU6Y5G1EVCKICSQ75AN,8,7
240,4,object_04,object_10,364.5,8,2,389.10000002384,0.3333333333333333,2,object_06,1,3592,0,2,3,restaurant_7,2,memory-2step-stake-s,737,4300596,0.0-19.0-0.1-0.240,A1N1ULK71RHVMM,30UZJB2PPKSSO21QHKUJ0S8JS3B35M,3JC6VJ2SAFZVU6Y5G1EVCKICSQ75AN,7,8
241,4,object_10,object_04,394.39999997616,7,2,536.69999998808,0.1111111111111111,1,object_01,1,3593,0,1,2,restaurant_7,2,memory-2step-stake-s,738,4308498,0.0-19.0-0.1-0.241,A1N1ULK71RHVMM,30UZJB2PPKSSO21QHKUJ0S8JS3B35M,3JC6VJ2SAFZVU6Y5G1EVCKICSQ75AN,8,7
242,4,object_04,object_10,529.5,7,1,477.39999997616,0.7777777777777778,1,object_01,1,3600,0,7,1,restaurant_7,2,memory-2step-stake-s,739,4316987,0.0-19.0-0.1-0.242,A1N1ULK71RHVMM,30UZJB2PPKSSO21QHKUJ0S8JS3B35M,3JC6VJ2SAFZVU6Y5G1EVCKICSQ75AN,7,8
243,4,object_10,object_04,559.39999997616,8,1,384.10000002384,0.1111111111111111,2,object_06,1,3601,0,5,1,restaurant_3,2,memory-2step-stake-s,740,4324758,0.0-19.0-0.1-0.243,A1N1ULK71RHVMM,30UZJB2PPKSSO21QHKUJ0S8JS3B35M,3JC6VJ2SAFZVU6Y5G1EVCKICSQ75AN,8,7
244,3,object_02,object_07,995.10000002384,5,2,474.30000001192,0.5555555555555556,1,object_01,1,3606,0,5,0,library_6,2,memory-2step-stake-s,741,4333045,0.0-19.0-0.1-0.244,A1N1ULK71RHVMM,30UZJB2PPKSSO21QHKUJ0S8JS3B35M,3JC6VJ2SAFZVU6Y5G1EVCKICSQ75AN,6,5
245,3,object_07,object_02,788.59999996424,5,1,446.59999996424,0.6666666666666666,1,object_01,5,3636,0,6,1,library_3,2,memory-2step-stake-s,742,4341429,0.0-19.0-0.1-0.245,A1N1ULK71RHVMM,30UZJB2PPKSSO21QHKUJ0S8JS3B35M,3JC6VJ2SAFZVU6Y5G1EVCKICSQ75AN,5,6
246,4,object_04,object_10,438.5,8,2,536.89999997616,0.1111111111111111,2,object_06,1,3637,0,3,1,restaurant_3,2,memory-2step-stake-s,743,4349309,0.0-19.0-0.1-0.246,A1N1ULK71RHVMM,30UZJB2PPKSSO21QHKUJ0S8JS3B35M,3JC6VJ2SAFZVU6Y5G1EVCKICSQ75AN,7,8
247,4,object_04,object_10,446.5,8,2,453.80000001192,0.3333333333333333,2,object_06,1,3640,0,5,3,restaurant_3,2,memory-2step-stake-s,744,4357336,0.0-19.0-0.1-0.247,A1N1ULK71RHVMM,30UZJB2PPKSSO21QHKUJ0S8JS3B35M,3JC6VJ2SAFZVU6Y5G1EVCKICSQ75AN,7,8
248,4,object_04,object_10,440.89999997616,7,1,496.90000003576,0.8888888888888888,1,object_01,1,3648,0,8,3,restaurant_4,2,memory-2step-stake-s,745,4365995,0.0-19.0-0.1-0.248,A1N1ULK71RHVMM,30UZJB2PPKSSO21QHKUJ0S8JS3B35M,3JC6VJ2SAFZVU6Y5G1EVCKICSQ75AN,7,8
249,2,object_05,object_09,1128.3999999762,3,2,471.19999998808,0.8888888888888888,1,object_01,5,3688,0,8,3,forest_6,2,memory-2step-stake-s,746,4374582,0.0-19.0-0.1-0.249,A1N1ULK71RHVMM,30UZJB2PPKSSO21QHKUJ0S8JS3B35M,3JC6VJ2SAFZVU6Y5G1EVCKICSQ75AN,4,3
250,1,object_03,object_08,916.19999998808,1,1,381.5,0.7777777777777778,1,object_01,5,3723,0,7,2,desert_3,2,memory-2step-stake-s,747,4382969,0.0-19.0-0.1-0.250,A1N1ULK71RHVMM,30UZJB2PPKSSO21QHKUJ0S8JS3B35M,3JC6VJ2SAFZVU6Y5G1EVCKICSQ75AN,1,2
251,2,object_09,object_05,835.09999996424,3,1,507.80000001192,1.0,1,object_01,5,3768,0,9,2,forest_3,2,memory-2step-stake-s,748,4391692,0.0-19.0-0.1-0.251,A1N1ULK71RHVMM,30UZJB2PPKSSO21QHKUJ0S8JS3B35M,3JC6VJ2SAFZVU6Y5G1EVCKICSQ75AN,3,4
252,3,object_07,object_02,364.79999995232,6,2,439.39999997616,0.0,2,object_06,1,3768,0,9,0,library_6,2,memory-2step-stake-s,749,4399389,0.0-19.0-0.1-0.252,A1N1ULK71RHVMM,30UZJB2PPKSSO21QHKUJ0S8JS3B35M,3JC6VJ2SAFZVU6Y5G1EVCKICSQ75AN,5,6
253,2,object_09,object_05,657.19999998808,3,1,468.60000002384,0.8888888888888888,1,object_01,5,3808,0,8,2,forest_1,2,memory-2step-stake-s,750,4408003,0.0-19.0-0.1-0.253,A1N1ULK71RHVMM,30UZJB2PPKSSO21QHKUJ0S8JS3B35M,3JC6VJ2SAFZVU6Y5G1EVCKICSQ75AN,3,4
254,3,object_02,object_07,766.5,5,2,444.89999997616,0.8888888888888888,1,object_01,1,3816,0,8,3,library_5,2,memory-2step-stake-s,751,4416576,0.0-19.0-0.1-0.254,A1N1ULK71RHVMM,30UZJB2PPKSSO21QHKUJ0S8JS3B35M,3JC6VJ2SAFZVU6Y5G1EVCKICSQ75AN,6,5
255,4,object_10,object_04,749.30000001192,7,2,919.29999995232,1.0,1,object_01,1,3825,0,9,5,restaurant_7,2,memory-2step-stake-s,752,4425708,0.0-19.0-0.1-0.255,A1N1ULK71RHVMM,30UZJB2PPKSSO21QHKUJ0S8JS3B35M,3JC6VJ2SAFZVU6Y5G1EVCKICSQ75AN,8,7
