,state1,stim_left,stim_right,rt_1,choice1,response1,rt_2,points,state2,stim_state2,stake,score,practice,rews1,rews2,background,high_arm,trial_type,trial_index,time_elapsed,internal_node_id,subid,hitid,assignmentid,stim_left_num,stim_right_num
0,2,object_02,object_03,826.50000008289,3,2,1403.1350000296,0.2222222222222222,1,object_08,1,2,0,2,8,forest_8,2,memory-2step-stake-s,493,816972,0.0-19.0-0.0-0.0,A2HRUFTA09371Y,3SD15I2WE5AO7614M34OSYMJOYM362,3BQU611VFT00QAQCRLDCS5CU837990,4,3
1,1,object_01,object_05,650.29999997932,2,1,709.74500000011,0.7777777777777778,2,object_06,1,9,0,1,7,desert_7,2,memory-2step-stake-s,494,825612,0.0-19.0-0.0-0.1,A2HRUFTA09371Y,3SD15I2WE5AO7614M34OSYMJOYM362,3BQU611VFT00QAQCRLDCS5CU837990,2,1
2,2,object_03,object_02,855.41499999817,3,1,592.7049999591,0.3333333333333333,1,object_08,1,12,0,3,6,forest_8,2,memory-2step-stake-s,495,833727,0.0-19.0-0.0-0.2,A2HRUFTA09371Y,3SD15I2WE5AO7614M34OSYMJOYM362,3BQU611VFT00QAQCRLDCS5CU837990,3,4
3,2,object_02,object_03,862.90000006557,4,1,476.45499999635,0.6666666666666666,2,object_06,5,42,0,4,6,forest_5,2,memory-2step-stake-s,496,842045,0.0-19.0-0.0-0.3,A2HRUFTA09371Y,3SD15I2WE5AO7614M34OSYMJOYM362,3BQU611VFT00QAQCRLDCS5CU837990,4,3
4,3,object_04,object_09,800.13500002678,5,2,371.09000002965,0.5555555555555556,1,object_08,5,67,0,5,8,library_8,2,memory-2step-stake-s,497,850139,0.0-19.0-0.0-0.4,A2HRUFTA09371Y,3SD15I2WE5AO7614M34OSYMJOYM362,3BQU611VFT00QAQCRLDCS5CU837990,6,5
5,2,object_02,object_03,695.65000000875,3,2,465.51999996882,0.3333333333333333,1,object_08,5,82,0,3,7,forest_1,2,memory-2step-stake-s,498,858125,0.0-19.0-0.0-0.5,A2HRUFTA09371Y,3SD15I2WE5AO7614M34OSYMJOYM362,3BQU611VFT00QAQCRLDCS5CU837990,4,3
6,4,object_07,object_10,618.73999994714,8,1,388.64000001922,1.0,2,object_06,5,127,0,0,9,restaurant_4,2,memory-2step-stake-s,499,866651,0.0-19.0-0.0-0.6,A2HRUFTA09371Y,3SD15I2WE5AO7614M34OSYMJOYM362,3BQU611VFT00QAQCRLDCS5CU837990,8,7
7,3,object_04,object_09,307.31499998365,5,2,316.70500000473,0.0,1,object_08,5,127,0,0,9,library_5,2,memory-2step-stake-s,500,874184,0.0-19.0-0.0-0.7,A2HRUFTA09371Y,3SD15I2WE5AO7614M34OSYMJOYM362,3BQU611VFT00QAQCRLDCS5CU837990,6,5
8,4,object_07,object_10,733.63499995321,7,2,703.3400000073,0.4444444444444444,1,object_08,5,147,0,4,7,restaurant_1,2,memory-2step-stake-s,501,882513,0.0-19.0-0.0-0.8,A2HRUFTA09371Y,3SD15I2WE5AO7614M34OSYMJOYM362,3BQU611VFT00QAQCRLDCS5CU837990,8,7
9,4,object_10,object_07,459.12499993574,7,1,562.30999995023,0.3333333333333333,1,object_08,1,150,0,3,3,restaurant_1,2,memory-2step-stake-s,502,890598,0.0-19.0-0.0-0.9,A2HRUFTA09371Y,3SD15I2WE5AO7614M34OSYMJOYM362,3BQU611VFT00QAQCRLDCS5CU837990,7,8
10,4,object_07,object_10,598.57000003103,7,2,783.0800000811,0.3333333333333333,1,object_08,1,153,0,3,5,restaurant_4,2,memory-2step-stake-s,503,898914,0.0-19.0-0.0-0.10,A2HRUFTA09371Y,3SD15I2WE5AO7614M34OSYMJOYM362,3BQU611VFT00QAQCRLDCS5CU837990,8,7
11,2,object_03,object_02,670.81499996129,4,2,518.84500007145,0.3333333333333333,2,object_06,5,168,0,3,3,forest_1,2,memory-2step-stake-s,504,906955,0.0-19.0-0.0-0.11,A2HRUFTA09371Y,3SD15I2WE5AO7614M34OSYMJOYM362,3BQU611VFT00QAQCRLDCS5CU837990,3,4
12,4,object_07,object_10,562.81000003219,8,1,471.55999997631,0.4444444444444444,2,object_06,1,172,0,2,4,restaurant_7,2,memory-2step-stake-s,505,915047,0.0-19.0-0.0-0.12,A2HRUFTA09371Y,3SD15I2WE5AO7614M34OSYMJOYM362,3BQU611VFT00QAQCRLDCS5CU837990,8,7
13,1,object_01,object_05,407.6950000599,2,1,504.74000000395,0.3333333333333333,2,object_06,5,187,0,1,3,desert_6,2,memory-2step-stake-s,506,923072,0.0-19.0-0.0-0.13,A2HRUFTA09371Y,3SD15I2WE5AO7614M34OSYMJOYM362,3BQU611VFT00QAQCRLDCS5CU837990,2,1
14,2,object_02,object_03,558.18499997258,3,2,321.48499996401,0.2222222222222222,1,object_08,5,197,0,2,6,forest_8,2,memory-2step-stake-s,507,930811,0.0-19.0-0.0-0.14,A2HRUFTA09371Y,3SD15I2WE5AO7614M34OSYMJOYM362,3BQU611VFT00QAQCRLDCS5CU837990,4,3
15,1,object_01,object_05,571.16000005044,1,2,646.33000001777,0.3333333333333333,1,object_08,5,212,0,3,2,desert_2,2,memory-2step-stake-s,508,938978,0.0-19.0-0.0-0.15,A2HRUFTA09371Y,3SD15I2WE5AO7614M34OSYMJOYM362,3BQU611VFT00QAQCRLDCS5CU837990,2,1
16,2,object_02,object_03,685.41000003461,4,1,331.69499994256,0.2222222222222222,2,object_06,5,222,0,1,2,forest_4,2,memory-2step-stake-s,509,946725,0.0-19.0-0.0-0.16,A2HRUFTA09371Y,3SD15I2WE5AO7614M34OSYMJOYM362,3BQU611VFT00QAQCRLDCS5CU837990,4,3
17,2,object_02,object_03,361.01500003133,3,2,419.97499996796,0.0,1,object_08,1,222,0,0,4,forest_4,2,memory-2step-stake-s,510,954397,0.0-19.0-0.0-0.17,A2HRUFTA09371Y,3SD15I2WE5AO7614M34OSYMJOYM362,3BQU611VFT00QAQCRLDCS5CU837990,4,3
18,3,object_04,object_09,557.13500001002,6,1,504.53500007279,0.5555555555555556,2,object_06,1,227,0,1,5,library_5,2,memory-2step-stake-s,511,962635,0.0-19.0-0.0-0.18,A2HRUFTA09371Y,3SD15I2WE5AO7614M34OSYMJOYM362,3BQU611VFT00QAQCRLDCS5CU837990,6,5
19,4,object_07,object_10,364.04500005301,8,1,550.67500006407,1.0,2,object_06,5,272,0,0,9,restaurant_7,2,memory-2step-stake-s,512,971315,0.0-19.0-0.0-0.19,A2HRUFTA09371Y,3SD15I2WE5AO7614M34OSYMJOYM362,3BQU611VFT00QAQCRLDCS5CU837990,8,7
20,3,object_04,object_09,650.78000002541,6,1,316.01000006776,0.6666666666666666,2,object_06,1,278,0,3,6,library_8,2,memory-2step-stake-s,513,979465,0.0-19.0-0.0-0.20,A2HRUFTA09371Y,3SD15I2WE5AO7614M34OSYMJOYM362,3BQU611VFT00QAQCRLDCS5CU837990,6,5
21,4,object_07,object_10,465.48000001349,7,2,485.83000001963,0.1111111111111111,1,object_08,5,283,0,1,5,restaurant_4,2,memory-2step-stake-s,514,987269,0.0-19.0-0.0-0.21,A2HRUFTA09371Y,3SD15I2WE5AO7614M34OSYMJOYM362,3BQU611VFT00QAQCRLDCS5CU837990,8,7
22,4,object_07,object_10,540.75499996543,8,1,470.87499999907,0.5555555555555556,2,object_06,5,308,0,0,5,restaurant_6,2,memory-2step-stake-s,515,995467,0.0-19.0-0.0-0.22,A2HRUFTA09371Y,3SD15I2WE5AO7614M34OSYMJOYM362,3BQU611VFT00QAQCRLDCS5CU837990,8,7
23,3,object_04,object_09,387.8450000193,6,1,482.45000001043,0.5555555555555556,2,object_06,5,333,0,2,5,library_5,2,memory-2step-stake-s,516,1003679,0.0-19.0-0.0-0.23,A2HRUFTA09371Y,3SD15I2WE5AO7614M34OSYMJOYM362,3BQU611VFT00QAQCRLDCS5CU837990,6,5
24,4,object_10,object_07,359.11499999929,8,2,415.78000003938,0.7777777777777778,2,object_06,1,340,0,1,7,restaurant_1,2,memory-2step-stake-s,517,1012022,0.0-19.0-0.0-0.24,A2HRUFTA09371Y,3SD15I2WE5AO7614M34OSYMJOYM362,3BQU611VFT00QAQCRLDCS5CU837990,7,8
25,1,object_05,object_01,262.79999990948,1,1,424.46499993093,0.1111111111111111,1,object_08,5,345,0,1,8,desert_6,2,memory-2step-stake-s,518,1019764,0.0-19.0-0.0-0.25,A2HRUFTA09371Y,3SD15I2WE5AO7614M34OSYMJOYM362,3BQU611VFT00QAQCRLDCS5CU837990,1,2
26,2,object_03,object_02,372.99499998335,4,2,945.25500002783,0.6666666666666666,2,object_06,5,375,0,3,6,forest_4,2,memory-2step-stake-s,519,1028535,0.0-19.0-0.0-0.26,A2HRUFTA09371Y,3SD15I2WE5AO7614M34OSYMJOYM362,3BQU611VFT00QAQCRLDCS5CU837990,3,4
27,4,object_10,object_07,351.42500000075,7,1,343.99500000291,0.3333333333333333,1,object_08,1,378,0,3,2,restaurant_7,2,memory-2step-stake-s,520,1036400,0.0-19.0-0.0-0.27,A2HRUFTA09371Y,3SD15I2WE5AO7614M34OSYMJOYM362,3BQU611VFT00QAQCRLDCS5CU837990,7,8
28,1,object_05,object_01,773.49499997217,1,1,760.30500000343,0.3333333333333333,1,object_08,5,393,0,3,2,desert_5,2,memory-2step-stake-s,521,1044680,0.0-19.0-0.0-0.28,A2HRUFTA09371Y,3SD15I2WE5AO7614M34OSYMJOYM362,3BQU611VFT00QAQCRLDCS5CU837990,1,2
29,3,object_09,object_04,500.04499999341,6,2,499.42999996711,0.7777777777777778,2,object_06,1,400,0,1,7,library_1,2,memory-2step-stake-s,522,1053105,0.0-19.0-0.0-0.29,A2HRUFTA09371Y,3SD15I2WE5AO7614M34OSYMJOYM362,3BQU611VFT00QAQCRLDCS5CU837990,5,6
30,4,object_10,object_07,884.85499995295,7,1,918.08500001207,0.3333333333333333,1,object_08,1,403,0,3,7,restaurant_4,2,memory-2step-stake-s,523,1061552,0.0-19.0-0.0-0.30,A2HRUFTA09371Y,3SD15I2WE5AO7614M34OSYMJOYM362,3BQU611VFT00QAQCRLDCS5CU837990,7,8
31,4,object_07,object_10,343.01499999128,7,2,442.36500002444,0.4444444444444444,1,object_08,1,407,0,4,6,restaurant_4,2,memory-2step-stake-s,524,1069627,0.0-19.0-0.0-0.31,A2HRUFTA09371Y,3SD15I2WE5AO7614M34OSYMJOYM362,3BQU611VFT00QAQCRLDCS5CU837990,8,7
32,4,object_07,object_10,423.47000003792,8,1,628.10999993235,0.7777777777777778,2,object_06,1,414,0,3,7,restaurant_7,2,memory-2step-stake-s,525,1078178,0.0-19.0-0.0-0.32,A2HRUFTA09371Y,3SD15I2WE5AO7614M34OSYMJOYM362,3BQU611VFT00QAQCRLDCS5CU837990,8,7
33,1,object_01,object_05,382.03000009526,2,1,385.45499998145,0.5555555555555556,2,object_06,1,419,0,2,5,desert_2,2,memory-2step-stake-s,526,1086287,0.0-19.0-0.0-0.33,A2HRUFTA09371Y,3SD15I2WE5AO7614M34OSYMJOYM362,3BQU611VFT00QAQCRLDCS5CU837990,2,1
34,2,object_02,object_03,93.530000071041,3,2,360.2799999062,0.7777777777777778,1,object_08,5,454,0,7,3,forest_1,2,memory-2step-stake-s,527,1094582,0.0-19.0-0.0-0.34,A2HRUFTA09371Y,3SD15I2WE5AO7614M34OSYMJOYM362,3BQU611VFT00QAQCRLDCS5CU837990,4,3
35,4,object_10,object_07,664.87499990035,8,2,329.29499994498,0.0,2,object_06,1,454,0,3,0,restaurant_6,2,memory-2step-stake-s,528,1102126,0.0-19.0-0.0-0.35,A2HRUFTA09371Y,3SD15I2WE5AO7614M34OSYMJOYM362,3BQU611VFT00QAQCRLDCS5CU837990,7,8
36,1,object_01,object_05,477.94000001159,2,1,511.41999999527,0.2222222222222222,2,object_06,5,464,0,5,2,desert_2,2,memory-2step-stake-s,529,1110074,0.0-19.0-0.0-0.36,A2HRUFTA09371Y,3SD15I2WE5AO7614M34OSYMJOYM362,3BQU611VFT00QAQCRLDCS5CU837990,2,1
37,3,object_04,object_09,410.78000003472,5,2,404.08000000753,0.4444444444444444,1,object_08,5,484,0,4,2,library_5,2,memory-2step-stake-s,530,1118106,0.0-19.0-0.0-0.37,A2HRUFTA09371Y,3SD15I2WE5AO7614M34OSYMJOYM362,3BQU611VFT00QAQCRLDCS5CU837990,6,5
38,1,object_05,object_01,267.5599999493,1,1,661.07999999076,0.4444444444444444,1,object_08,5,504,0,4,3,desert_6,2,memory-2step-stake-s,531,1126396,0.0-19.0-0.0-0.38,A2HRUFTA09371Y,3SD15I2WE5AO7614M34OSYMJOYM362,3BQU611VFT00QAQCRLDCS5CU837990,1,2
39,2,object_02,object_03,193.96499998402,4,1,394.62999999523,0.1111111111111111,2,object_06,1,505,0,5,1,forest_4,2,memory-2step-stake-s,532,1134107,0.0-19.0-0.0-0.39,A2HRUFTA09371Y,3SD15I2WE5AO7614M34OSYMJOYM362,3BQU611VFT00QAQCRLDCS5CU837990,4,3
40,4,object_07,object_10,689.32999996468,8,1,461.69000002556,0.2222222222222222,2,object_06,5,515,0,2,2,restaurant_6,2,memory-2step-stake-s,533,1141987,0.0-19.0-0.0-0.40,A2HRUFTA09371Y,3SD15I2WE5AO7614M34OSYMJOYM362,3BQU611VFT00QAQCRLDCS5CU837990,8,7
41,4,object_10,object_07,313.47999989521,8,2,276.79999999236,0.5555555555555556,2,object_06,1,520,0,1,5,restaurant_4,2,memory-2step-stake-s,534,1149987,0.0-19.0-0.0-0.41,A2HRUFTA09371Y,3SD15I2WE5AO7614M34OSYMJOYM362,3BQU611VFT00QAQCRLDCS5CU837990,7,8
42,2,object_03,object_02,587.55000005476,3,1,326.45000005141,0.1111111111111111,1,object_08,1,521,0,1,5,forest_1,2,memory-2step-stake-s,535,1157643,0.0-19.0-0.0-0.42,A2HRUFTA09371Y,3SD15I2WE5AO7614M34OSYMJOYM362,3BQU611VFT00QAQCRLDCS5CU837990,3,4
43,4,object_07,object_10,217.72499999497,7,2,1188.3300000336,0.0,1,object_08,1,521,0,0,2,restaurant_4,2,memory-2step-stake-s,536,1166051,0.0-19.0-0.0-0.43,A2HRUFTA09371Y,3SD15I2WE5AO7614M34OSYMJOYM362,3BQU611VFT00QAQCRLDCS5CU837990,8,7
44,1,object_05,object_01,779.54999997746,1,1,402.67000009771,0.1111111111111111,1,object_08,5,526,0,1,2,desert_7,2,memory-2step-stake-s,537,1173785,0.0-19.0-0.0-0.44,A2HRUFTA09371Y,3SD15I2WE5AO7614M34OSYMJOYM362,3BQU611VFT00QAQCRLDCS5CU837990,1,2
45,3,object_04,object_09,566.48500007577,5,2,392.42499996908,0.5555555555555556,1,object_08,1,531,0,5,3,library_1,2,memory-2step-stake-s,538,1181898,0.0-19.0-0.0-0.45,A2HRUFTA09371Y,3SD15I2WE5AO7614M34OSYMJOYM362,3BQU611VFT00QAQCRLDCS5CU837990,6,5
46,2,object_03,object_02,772.33500010334,3,1,-1.0,0.0,1,object_08,5,531,0,5,2,forest_5,2,memory-2step-stake-s,539,1190417,0.0-19.0-0.0-0.46,A2HRUFTA09371Y,3SD15I2WE5AO7614M34OSYMJOYM362,3BQU611VFT00QAQCRLDCS5CU837990,3,4
47,3,object_04,object_09,381.59500004258,5,2,468.79000007175,0.5555555555555556,1,object_08,5,556,0,5,1,library_8,2,memory-2step-stake-s,540,1198608,0.0-19.0-0.0-0.47,A2HRUFTA09371Y,3SD15I2WE5AO7614M34OSYMJOYM362,3BQU611VFT00QAQCRLDCS5CU837990,6,5
48,1,object_01,object_05,277.20999997109,1,2,431.97500007227,0.5555555555555556,1,object_08,5,581,0,5,2,desert_2,2,memory-2step-stake-s,541,1206778,0.0-19.0-0.0-0.48,A2HRUFTA09371Y,3SD15I2WE5AO7614M34OSYMJOYM362,3BQU611VFT00QAQCRLDCS5CU837990,2,1
49,3,object_04,object_09,436.40000000596,6,1,440.47500006855,0.1111111111111111,2,object_06,1,582,0,1,1,library_5,2,memory-2step-stake-s,542,1214540,0.0-19.0-0.0-0.49,A2HRUFTA09371Y,3SD15I2WE5AO7614M34OSYMJOYM362,3BQU611VFT00QAQCRLDCS5CU837990,6,5
50,4,object_07,object_10,345.00500001013,7,2,397.89500006009,0.0,1,object_08,1,582,0,0,2,restaurant_7,2,memory-2step-stake-s,543,1222151,0.0-19.0-0.0-0.50,A2HRUFTA09371Y,3SD15I2WE5AO7614M34OSYMJOYM362,3BQU611VFT00QAQCRLDCS5CU837990,8,7
51,2,object_03,object_02,246.0049999645,3,1,499.4149999693,0.1111111111111111,1,object_08,1,583,0,1,4,forest_4,2,memory-2step-stake-s,544,1229973,0.0-19.0-0.0-0.51,A2HRUFTA09371Y,3SD15I2WE5AO7614M34OSYMJOYM362,3BQU611VFT00QAQCRLDCS5CU837990,3,4
52,1,object_05,object_01,536.68000001926,2,2,330.21500008181,0.6666666666666666,2,object_06,5,613,0,3,6,desert_7,2,memory-2step-stake-s,545,1238129,0.0-19.0-0.0-0.52,A2HRUFTA09371Y,3SD15I2WE5AO7614M34OSYMJOYM362,3BQU611VFT00QAQCRLDCS5CU837990,1,2
53,3,object_09,object_04,742.26000008639,6,2,728.86999999173,0.8888888888888888,2,object_06,1,621,0,1,8,library_5,2,memory-2step-stake-s,546,1246885,0.0-19.0-0.0-0.53,A2HRUFTA09371Y,3SD15I2WE5AO7614M34OSYMJOYM362,3BQU611VFT00QAQCRLDCS5CU837990,5,6
54,4,object_07,object_10,290.02499999478,8,1,477.15499997139,0.8888888888888888,2,object_06,1,629,0,0,8,restaurant_6,2,memory-2step-stake-s,547,1255390,0.0-19.0-0.0-0.54,A2HRUFTA09371Y,3SD15I2WE5AO7614M34OSYMJOYM362,3BQU611VFT00QAQCRLDCS5CU837990,8,7
55,4,object_10,object_07,463.74999999534,8,2,381.44499994814,0.5555555555555556,2,object_06,1,634,0,3,5,restaurant_6,2,memory-2step-stake-s,548,1263506,0.0-19.0-0.0-0.55,A2HRUFTA09371Y,3SD15I2WE5AO7614M34OSYMJOYM362,3BQU611VFT00QAQCRLDCS5CU837990,7,8
56,4,object_10,object_07,450.76999999583,7,1,422.85000008997,0.5555555555555556,1,object_08,1,639,0,5,6,restaurant_1,2,memory-2step-stake-s,549,1271663,0.0-19.0-0.0-0.56,A2HRUFTA09371Y,3SD15I2WE5AO7614M34OSYMJOYM362,3BQU611VFT00QAQCRLDCS5CU837990,7,8
57,2,object_02,object_03,400.65500000492,3,2,449.04499989934,0.5555555555555556,1,object_08,5,664,0,5,4,forest_8,2,memory-2step-stake-s,550,1279853,0.0-19.0-0.0-0.57,A2HRUFTA09371Y,3SD15I2WE5AO7614M34OSYMJOYM362,3BQU611VFT00QAQCRLDCS5CU837990,4,3
58,1,object_01,object_05,539.9449999677,1,2,323.57500004582,0.6666666666666666,1,object_08,1,670,0,6,2,desert_5,2,memory-2step-stake-s,551,1288006,0.0-19.0-0.0-0.58,A2HRUFTA09371Y,3SD15I2WE5AO7614M34OSYMJOYM362,3BQU611VFT00QAQCRLDCS5CU837990,2,1
59,3,object_09,object_04,416.62999999244,6,2,763.71500000823,0.0,2,object_06,5,670,0,8,0,library_1,2,memory-2step-stake-s,552,1295984,0.0-19.0-0.0-0.59,A2HRUFTA09371Y,3SD15I2WE5AO7614M34OSYMJOYM362,3BQU611VFT00QAQCRLDCS5CU837990,5,6
60,4,object_07,object_10,580.82000003196,8,1,358.59499999788,0.1111111111111111,2,object_06,5,675,0,4,1,restaurant_1,2,memory-2step-stake-s,553,1303662,0.0-19.0-0.0-0.60,A2HRUFTA09371Y,3SD15I2WE5AO7614M34OSYMJOYM362,3BQU611VFT00QAQCRLDCS5CU837990,8,7
61,3,object_09,object_04,561.11000000965,6,2,317.26000003982,0.1111111111111111,2,object_06,1,676,0,4,1,library_5,2,memory-2step-stake-s,554,1311310,0.0-19.0-0.0-0.61,A2HRUFTA09371Y,3SD15I2WE5AO7614M34OSYMJOYM362,3BQU611VFT00QAQCRLDCS5CU837990,5,6
62,4,object_07,object_10,736.12999997567,8,1,362.42499994114,0.1111111111111111,2,object_06,5,681,0,6,1,restaurant_6,2,memory-2step-stake-s,555,1318988,0.0-19.0-0.0-0.62,A2HRUFTA09371Y,3SD15I2WE5AO7614M34OSYMJOYM362,3BQU611VFT00QAQCRLDCS5CU837990,8,7
63,2,object_02,object_03,593.51499995682,3,2,715.22000001278,0.6666666666666666,1,object_08,1,687,0,6,2,forest_1,2,memory-2step-stake-s,556,1327532,0.0-19.0-0.0-0.63,A2HRUFTA09371Y,3SD15I2WE5AO7614M34OSYMJOYM362,3BQU611VFT00QAQCRLDCS5CU837990,4,3
64,1,object_01,object_05,755.14500006102,1,2,310.01999997534,0.5555555555555556,1,object_08,5,712,0,5,2,desert_6,2,memory-2step-stake-s,557,1335579,0.0-19.0-0.0-0.64,A2HRUFTA09371Y,3SD15I2WE5AO7614M34OSYMJOYM362,3BQU611VFT00QAQCRLDCS5CU837990,2,1
65,2,object_02,object_03,577.77499989606,3,2,316.74999999814,0.5555555555555556,1,object_08,5,737,0,5,2,forest_1,2,memory-2step-stake-s,558,1343628,0.0-19.0-0.0-0.65,A2HRUFTA09371Y,3SD15I2WE5AO7614M34OSYMJOYM362,3BQU611VFT00QAQCRLDCS5CU837990,4,3
66,4,object_10,object_07,392.17999996617,7,1,281.73499996774,0.5555555555555556,1,object_08,1,742,0,5,1,restaurant_7,2,memory-2step-stake-s,559,1351634,0.0-19.0-0.0-0.66,A2HRUFTA09371Y,3SD15I2WE5AO7614M34OSYMJOYM362,3BQU611VFT00QAQCRLDCS5CU837990,7,8
67,2,object_03,object_02,455.09499998298,3,1,414.77500007022,0.3333333333333333,1,object_08,1,745,0,3,1,forest_5,2,memory-2step-stake-s,560,1359569,0.0-19.0-0.0-0.67,A2HRUFTA09371Y,3SD15I2WE5AO7614M34OSYMJOYM362,3BQU611VFT00QAQCRLDCS5CU837990,3,4
68,3,object_04,object_09,365.19499996211,6,1,385.02000004519,0.6666666666666666,2,object_06,1,751,0,4,6,library_5,2,memory-2step-stake-s,561,1367777,0.0-19.0-0.0-0.68,A2HRUFTA09371Y,3SD15I2WE5AO7614M34OSYMJOYM362,3BQU611VFT00QAQCRLDCS5CU837990,6,5
69,1,object_05,object_01,573.7950000912,2,2,286.5649999585,0.5555555555555556,2,object_06,5,776,0,9,5,desert_5,2,memory-2step-stake-s,562,1375787,0.0-19.0-0.0-0.69,A2HRUFTA09371Y,3SD15I2WE5AO7614M34OSYMJOYM362,3BQU611VFT00QAQCRLDCS5CU837990,1,2
70,4,object_07,object_10,571.38500001747,7,2,494.77999994997,0.8888888888888888,1,object_08,1,784,0,8,2,restaurant_1,2,memory-2step-stake-s,563,1384306,0.0-19.0-0.0-0.70,A2HRUFTA09371Y,3SD15I2WE5AO7614M34OSYMJOYM362,3BQU611VFT00QAQCRLDCS5CU837990,8,7
71,2,object_03,object_02,387.60500005446,3,1,327.6949999854,1.0,1,object_08,5,829,0,9,3,forest_1,2,memory-2step-stake-s,564,1392774,0.0-19.0-0.0-0.71,A2HRUFTA09371Y,3SD15I2WE5AO7614M34OSYMJOYM362,3BQU611VFT00QAQCRLDCS5CU837990,3,4
72,2,object_03,object_02,592.49499998987,3,1,520.95000003465,0.6666666666666666,1,object_08,5,859,0,6,1,forest_8,2,memory-2step-stake-s,565,1401117,0.0-19.0-0.0-0.72,A2HRUFTA09371Y,3SD15I2WE5AO7614M34OSYMJOYM362,3BQU611VFT00QAQCRLDCS5CU837990,3,4
73,3,object_09,object_04,431.66000000201,6,2,479.97499990743,0.3333333333333333,2,object_06,1,862,0,8,3,library_2,2,memory-2step-stake-s,566,1409119,0.0-19.0-0.0-0.73,A2HRUFTA09371Y,3SD15I2WE5AO7614M34OSYMJOYM362,3BQU611VFT00QAQCRLDCS5CU837990,5,6
74,1,object_01,object_05,444.85500000883,1,2,291.12000006717,0.8888888888888888,1,object_08,5,902,0,8,3,desert_6,2,memory-2step-stake-s,567,1417444,0.0-19.0-0.0-0.74,A2HRUFTA09371Y,3SD15I2WE5AO7614M34OSYMJOYM362,3BQU611VFT00QAQCRLDCS5CU837990,2,1
75,1,object_01,object_05,554.72000001464,1,2,372.87500000093,0.6666666666666666,1,object_08,5,932,0,6,5,desert_6,2,memory-2step-stake-s,568,1425640,0.0-19.0-0.0-0.75,A2HRUFTA09371Y,3SD15I2WE5AO7614M34OSYMJOYM362,3BQU611VFT00QAQCRLDCS5CU837990,2,1
76,2,object_02,object_03,572.48500001151,3,2,390.56500000879,0.7777777777777778,1,object_08,5,967,0,7,5,forest_5,2,memory-2step-stake-s,569,1433979,0.0-19.0-0.0-0.76,A2HRUFTA09371Y,3SD15I2WE5AO7614M34OSYMJOYM362,3BQU611VFT00QAQCRLDCS5CU837990,4,3
77,3,object_04,object_09,548.97499992512,5,2,348.80500007421,0.5555555555555556,1,object_08,1,972,0,5,4,library_1,2,memory-2step-stake-s,570,1442071,0.0-19.0-0.0-0.77,A2HRUFTA09371Y,3SD15I2WE5AO7614M34OSYMJOYM362,3BQU611VFT00QAQCRLDCS5CU837990,6,5
78,4,object_07,object_10,1040.0049999589,7,2,379.0100000333,1.0,1,object_08,5,1017,0,9,4,restaurant_4,2,memory-2step-stake-s,571,1450575,0.0-19.0-0.0-0.78,A2HRUFTA09371Y,3SD15I2WE5AO7614M34OSYMJOYM362,3BQU611VFT00QAQCRLDCS5CU837990,8,7
79,2,object_02,object_03,534.90999992937,3,2,310.72000006679,0.7777777777777778,1,object_08,5,1052,0,7,3,forest_5,2,memory-2step-stake-s,572,1458823,0.0-19.0-0.0-0.79,A2HRUFTA09371Y,3SD15I2WE5AO7614M34OSYMJOYM362,3BQU611VFT00QAQCRLDCS5CU837990,4,3
80,3,object_09,object_04,526.00999991409,6,2,350.04000004847,0.2222222222222222,2,object_06,1,1054,0,5,2,library_1,2,memory-2step-stake-s,573,1466596,0.0-19.0-0.0-0.80,A2HRUFTA09371Y,3SD15I2WE5AO7614M34OSYMJOYM362,3BQU611VFT00QAQCRLDCS5CU837990,5,6
81,3,object_04,object_09,730.77000002377,6,1,461.12499991432,0.6666666666666666,2,object_06,1,1060,0,1,6,library_2,2,memory-2step-stake-s,574,1474880,0.0-19.0-0.0-0.81,A2HRUFTA09371Y,3SD15I2WE5AO7614M34OSYMJOYM362,3BQU611VFT00QAQCRLDCS5CU837990,6,5
82,2,object_02,object_03,563.11499990989,4,1,354.32000004221,0.7777777777777778,2,object_06,1,1067,0,5,7,forest_5,2,memory-2step-stake-s,575,1483158,0.0-19.0-0.0-0.82,A2HRUFTA09371Y,3SD15I2WE5AO7614M34OSYMJOYM362,3BQU611VFT00QAQCRLDCS5CU837990,4,3
83,3,object_04,object_09,648.03500007838,6,1,366.39999994077,0.5555555555555556,2,object_06,1,1072,0,6,5,library_8,2,memory-2step-stake-s,576,1491245,0.0-19.0-0.0-0.83,A2HRUFTA09371Y,3SD15I2WE5AO7614M34OSYMJOYM362,3BQU611VFT00QAQCRLDCS5CU837990,6,5
84,4,object_07,object_10,690.79499994405,7,2,483.21999993641,0.5555555555555556,1,object_08,1,1077,0,5,4,restaurant_4,2,memory-2step-stake-s,577,1499473,0.0-19.0-0.0-0.84,A2HRUFTA09371Y,3SD15I2WE5AO7614M34OSYMJOYM362,3BQU611VFT00QAQCRLDCS5CU837990,8,7
85,2,object_03,object_02,740.16499996651,3,1,570.16000000294,0.5555555555555556,1,object_08,5,1102,0,5,2,forest_1,2,memory-2step-stake-s,578,1507768,0.0-19.0-0.0-0.85,A2HRUFTA09371Y,3SD15I2WE5AO7614M34OSYMJOYM362,3BQU611VFT00QAQCRLDCS5CU837990,3,4
86,3,object_04,object_09,477.13000001386,5,2,366.5050000418,0.7777777777777778,1,object_08,1,1109,0,7,2,library_1,2,memory-2step-stake-s,579,1516061,0.0-19.0-0.0-0.86,A2HRUFTA09371Y,3SD15I2WE5AO7614M34OSYMJOYM362,3BQU611VFT00QAQCRLDCS5CU837990,6,5
87,4,object_07,object_10,313.26500000432,8,1,278.2850000076,0.1111111111111111,2,object_06,1,1110,0,8,1,restaurant_7,2,memory-2step-stake-s,580,1523675,0.0-19.0-0.0-0.87,A2HRUFTA09371Y,3SD15I2WE5AO7614M34OSYMJOYM362,3BQU611VFT00QAQCRLDCS5CU837990,8,7
88,3,object_09,object_04,678.27999999281,5,1,380.90999994893,1.0,1,object_08,5,1155,0,9,0,library_5,2,memory-2step-stake-s,581,1532185,0.0-19.0-0.0-0.88,A2HRUFTA09371Y,3SD15I2WE5AO7614M34OSYMJOYM362,3BQU611VFT00QAQCRLDCS5CU837990,5,6
89,3,object_09,object_04,738.93500003032,5,1,323.51999997627,0.6666666666666666,1,object_08,1,1161,0,6,1,library_1,2,memory-2step-stake-s,582,1540333,0.0-19.0-0.0-0.89,A2HRUFTA09371Y,3SD15I2WE5AO7614M34OSYMJOYM362,3BQU611VFT00QAQCRLDCS5CU837990,5,6
90,2,object_03,object_02,680.10999995749,3,1,456.40999998432,0.5555555555555556,1,object_08,5,1186,0,5,1,forest_8,2,memory-2step-stake-s,583,1548517,0.0-19.0-0.0-0.90,A2HRUFTA09371Y,3SD15I2WE5AO7614M34OSYMJOYM362,3BQU611VFT00QAQCRLDCS5CU837990,3,4
91,2,object_02,object_03,619.0400000196,3,2,387.68000004347,0.2222222222222222,1,object_08,5,1196,0,2,0,forest_5,2,memory-2step-stake-s,584,1556327,0.0-19.0-0.0-0.91,A2HRUFTA09371Y,3SD15I2WE5AO7614M34OSYMJOYM362,3BQU611VFT00QAQCRLDCS5CU837990,4,3
92,3,object_04,object_09,691.76499999594,5,2,513.33999994677,0.1111111111111111,1,object_08,1,1197,0,1,1,library_8,2,memory-2step-stake-s,585,1564158,0.0-19.0-0.0-0.92,A2HRUFTA09371Y,3SD15I2WE5AO7614M34OSYMJOYM362,3BQU611VFT00QAQCRLDCS5CU837990,6,5
93,4,object_07,object_10,655.15000000596,8,1,397.1250000177,0.2222222222222222,2,object_06,1,1199,0,1,2,restaurant_4,2,memory-2step-stake-s,586,1571982,0.0-19.0-0.0-0.93,A2HRUFTA09371Y,3SD15I2WE5AO7614M34OSYMJOYM362,3BQU611VFT00QAQCRLDCS5CU837990,8,7
94,1,object_01,object_05,896.41499996651,1,2,378.5800000187,0.1111111111111111,1,object_08,5,1204,0,1,0,desert_7,2,memory-2step-stake-s,587,1579676,0.0-19.0-0.0-0.94,A2HRUFTA09371Y,3SD15I2WE5AO7614M34OSYMJOYM362,3BQU611VFT00QAQCRLDCS5CU837990,2,1
95,1,object_01,object_05,921.65499995463,2,1,308.52000007872,0.1111111111111111,2,object_06,5,1209,0,1,1,desert_2,2,memory-2step-stake-s,588,1587301,0.0-19.0-0.0-0.95,A2HRUFTA09371Y,3SD15I2WE5AO7614M34OSYMJOYM362,3BQU611VFT00QAQCRLDCS5CU837990,2,1
96,3,object_04,object_09,793.59999997541,5,2,308.01999999676,0.2222222222222222,1,object_08,1,1211,0,2,2,library_2,2,memory-2step-stake-s,589,1595036,0.0-19.0-0.0-0.96,A2HRUFTA09371Y,3SD15I2WE5AO7614M34OSYMJOYM362,3BQU611VFT00QAQCRLDCS5CU837990,6,5
97,4,object_07,object_10,488.55999996886,8,1,528.84000004269,0.2222222222222222,2,object_06,1,1213,0,1,2,restaurant_6,2,memory-2step-stake-s,590,1602987,0.0-19.0-0.0-0.97,A2HRUFTA09371Y,3SD15I2WE5AO7614M34OSYMJOYM362,3BQU611VFT00QAQCRLDCS5CU837990,8,7
98,1,object_05,object_01,475.61500000302,1,1,369.72499999683,0.1111111111111111,1,object_08,5,1218,0,1,1,desert_7,2,memory-2step-stake-s,591,1610673,0.0-19.0-0.0-0.98,A2HRUFTA09371Y,3SD15I2WE5AO7614M34OSYMJOYM362,3BQU611VFT00QAQCRLDCS5CU837990,1,2
99,1,object_01,object_05,756.1299999943,2,1,431.06999993324,0.2222222222222222,2,object_06,5,1228,0,0,2,desert_2,2,memory-2step-stake-s,592,1618521,0.0-19.0-0.0-0.99,A2HRUFTA09371Y,3SD15I2WE5AO7614M34OSYMJOYM362,3BQU611VFT00QAQCRLDCS5CU837990,2,1
100,2,object_03,object_02,691.66000001132,4,2,350.92999995686,0.2222222222222222,2,object_06,1,1230,0,2,2,forest_4,2,memory-2step-stake-s,593,1626291,0.0-19.0-0.0-0.100,A2HRUFTA09371Y,3SD15I2WE5AO7614M34OSYMJOYM362,3BQU611VFT00QAQCRLDCS5CU837990,3,4
101,4,object_07,object_10,547.39000007976,8,1,396.73499995843,0.2222222222222222,2,object_06,1,1232,0,0,2,restaurant_6,2,memory-2step-stake-s,594,1634108,0.0-19.0-0.0-0.101,A2HRUFTA09371Y,3SD15I2WE5AO7614M34OSYMJOYM362,3BQU611VFT00QAQCRLDCS5CU837990,8,7
102,2,object_03,object_02,645.76500002295,4,2,561.69000000227,0.1111111111111111,2,object_06,5,1237,0,0,1,forest_4,2,memory-2step-stake-s,595,1641989,0.0-19.0-0.0-0.102,A2HRUFTA09371Y,3SD15I2WE5AO7614M34OSYMJOYM362,3BQU611VFT00QAQCRLDCS5CU837990,3,4
103,2,object_02,object_03,569.22499998473,3,2,396.10000001267,0.1111111111111111,1,object_08,5,1242,0,1,1,forest_8,2,memory-2step-stake-s,596,1649705,0.0-19.0-0.0-0.103,A2HRUFTA09371Y,3SD15I2WE5AO7614M34OSYMJOYM362,3BQU611VFT00QAQCRLDCS5CU837990,4,3
104,4,object_10,object_07,850.8800000418,7,1,416.59999999683,0.4444444444444444,1,object_08,1,1246,0,4,1,restaurant_4,2,memory-2step-stake-s,597,1657753,0.0-19.0-0.0-0.104,A2HRUFTA09371Y,3SD15I2WE5AO7614M34OSYMJOYM362,3BQU611VFT00QAQCRLDCS5CU837990,7,8
105,3,object_09,object_04,836.03500004392,5,1,578.36500008125,0.4444444444444444,1,object_08,1,1250,0,4,3,library_5,2,memory-2step-stake-s,598,1665974,0.0-19.0-0.0-0.105,A2HRUFTA09371Y,3SD15I2WE5AO7614M34OSYMJOYM362,3BQU611VFT00QAQCRLDCS5CU837990,5,6
106,2,object_02,object_03,627.84500000998,3,2,386.65499992203,0.5555555555555556,1,object_08,5,1275,0,5,3,forest_1,2,memory-2step-stake-s,599,1674089,0.0-19.0-0.0-0.106,A2HRUFTA09371Y,3SD15I2WE5AO7614M34OSYMJOYM362,3BQU611VFT00QAQCRLDCS5CU837990,4,3
107,1,object_01,object_05,652.11499994621,1,2,272.01000007335,0.4444444444444444,1,object_08,5,1295,0,4,0,desert_7,2,memory-2step-stake-s,600,1681988,0.0-19.0-0.0-0.107,A2HRUFTA09371Y,3SD15I2WE5AO7614M34OSYMJOYM362,3BQU611VFT00QAQCRLDCS5CU837990,2,1
108,4,object_10,object_07,808.86500002816,8,2,274.78500001598,0.0,2,object_06,1,1295,0,7,0,restaurant_6,2,memory-2step-stake-s,601,1689488,0.0-19.0-0.0-0.108,A2HRUFTA09371Y,3SD15I2WE5AO7614M34OSYMJOYM362,3BQU611VFT00QAQCRLDCS5CU837990,7,8
109,4,object_07,object_10,870.10500009637,7,2,352.10999997798,0.4444444444444444,1,object_08,5,1315,0,4,4,restaurant_4,2,memory-2step-stake-s,602,1697462,0.0-19.0-0.0-0.109,A2HRUFTA09371Y,3SD15I2WE5AO7614M34OSYMJOYM362,3BQU611VFT00QAQCRLDCS5CU837990,8,7
110,2,object_02,object_03,712.15999999549,3,2,352.29499998968,0.3333333333333333,1,object_08,5,1330,0,3,8,forest_4,2,memory-2step-stake-s,603,1705334,0.0-19.0-0.0-0.110,A2HRUFTA09371Y,3SD15I2WE5AO7614M34OSYMJOYM362,3BQU611VFT00QAQCRLDCS5CU837990,4,3
111,1,object_01,object_05,654.03500001412,1,2,369.53500006348,0.2222222222222222,1,object_08,5,1340,0,2,6,desert_7,2,memory-2step-stake-s,604,1713122,0.0-19.0-0.0-0.111,A2HRUFTA09371Y,3SD15I2WE5AO7614M34OSYMJOYM362,3BQU611VFT00QAQCRLDCS5CU837990,2,1
112,1,object_01,object_05,532.89999999106,2,1,361.33500002325,0.7777777777777778,2,object_06,5,1375,0,3,7,desert_2,2,memory-2step-stake-s,605,1721409,0.0-19.0-0.0-0.112,A2HRUFTA09371Y,3SD15I2WE5AO7614M34OSYMJOYM362,3BQU611VFT00QAQCRLDCS5CU837990,2,1
113,1,object_01,object_05,636.829999974,2,1,416.02999996394,0.6666666666666666,2,object_06,1,1381,0,3,6,desert_2,2,memory-2step-stake-s,606,1729666,0.0-19.0-0.0-0.113,A2HRUFTA09371Y,3SD15I2WE5AO7614M34OSYMJOYM362,3BQU611VFT00QAQCRLDCS5CU837990,2,1
114,1,object_05,object_01,568.63999995403,2,2,304.2050000513,0.4444444444444444,2,object_06,5,1401,0,4,4,desert_7,2,memory-2step-stake-s,607,1737590,0.0-19.0-0.0-0.114,A2HRUFTA09371Y,3SD15I2WE5AO7614M34OSYMJOYM362,3BQU611VFT00QAQCRLDCS5CU837990,1,2
115,1,object_05,object_01,567.09999998566,2,2,353.35500002839,0.2222222222222222,2,object_06,5,1411,0,6,2,desert_5,2,memory-2step-stake-s,608,1745378,0.0-19.0-0.0-0.115,A2HRUFTA09371Y,3SD15I2WE5AO7614M34OSYMJOYM362,3BQU611VFT00QAQCRLDCS5CU837990,1,2
116,4,object_07,object_10,907.70499990322,7,2,291.69500002172,0.7777777777777778,1,object_08,1,1418,0,7,2,restaurant_6,2,memory-2step-stake-s,609,1753592,0.0-19.0-0.0-0.116,A2HRUFTA09371Y,3SD15I2WE5AO7614M34OSYMJOYM362,3BQU611VFT00QAQCRLDCS5CU837990,8,7
117,4,object_10,object_07,866.23000004329,7,1,291.06499999762,0.6666666666666666,1,object_08,1,1424,0,6,4,restaurant_6,2,memory-2step-stake-s,610,1761717,0.0-19.0-0.0-0.117,A2HRUFTA09371Y,3SD15I2WE5AO7614M34OSYMJOYM362,3BQU611VFT00QAQCRLDCS5CU837990,7,8
118,4,object_10,object_07,942.48999992851,7,1,631.61000004038,0.5555555555555556,1,object_08,5,1449,0,5,6,restaurant_7,2,memory-2step-stake-s,611,1770088,0.0-19.0-0.0-0.118,A2HRUFTA09371Y,3SD15I2WE5AO7614M34OSYMJOYM362,3BQU611VFT00QAQCRLDCS5CU837990,7,8
119,3,object_09,object_04,1054.5449999627,6,2,1009.2600000789,0.6666666666666666,2,object_06,5,1479,0,6,6,library_2,2,memory-2step-stake-s,612,1778937,0.0-19.0-0.0-0.119,A2HRUFTA09371Y,3SD15I2WE5AO7614M34OSYMJOYM362,3BQU611VFT00QAQCRLDCS5CU837990,5,6
120,1,object_05,object_01,836.92000003066,2,2,366.83000007179,0.5555555555555556,2,object_06,5,1504,0,4,5,desert_2,2,memory-2step-stake-s,613,1787026,0.0-19.0-0.0-0.120,A2HRUFTA09371Y,3SD15I2WE5AO7614M34OSYMJOYM362,3BQU611VFT00QAQCRLDCS5CU837990,1,2
121,1,object_01,object_05,756.7450000206,2,1,300.93500006478,0.5555555555555556,2,object_06,5,1529,0,5,5,desert_6,2,memory-2step-stake-s,614,1795058,0.0-19.0-0.0-0.121,A2HRUFTA09371Y,3SD15I2WE5AO7614M34OSYMJOYM362,3BQU611VFT00QAQCRLDCS5CU837990,2,1
122,3,object_04,object_09,784.6300000092,5,2,362.80500004068,0.4444444444444444,1,object_08,1,1533,0,4,5,library_2,2,memory-2step-stake-s,615,1803055,0.0-19.0-0.0-0.122,A2HRUFTA09371Y,3SD15I2WE5AO7614M34OSYMJOYM362,3BQU611VFT00QAQCRLDCS5CU837990,6,5
123,3,object_09,object_04,790.41500005405,5,1,440.28500001878,0.3333333333333333,1,object_08,5,1548,0,3,8,library_8,2,memory-2step-stake-s,616,1811016,0.0-19.0-0.0-0.123,A2HRUFTA09371Y,3SD15I2WE5AO7614M34OSYMJOYM362,3BQU611VFT00QAQCRLDCS5CU837990,5,6
124,4,object_10,object_07,556.03999993764,8,2,370.07499998435,1.0,2,object_06,1,1557,0,1,9,restaurant_6,2,memory-2step-stake-s,617,1819516,0.0-19.0-0.0-0.124,A2HRUFTA09371Y,3SD15I2WE5AO7614M34OSYMJOYM362,3BQU611VFT00QAQCRLDCS5CU837990,7,8
125,1,object_05,object_01,646.22499991674,2,2,307.76500003412,0.6666666666666666,2,object_06,5,1587,0,2,6,desert_5,2,memory-2step-stake-s,618,1827658,0.0-19.0-0.0-0.125,A2HRUFTA09371Y,3SD15I2WE5AO7614M34OSYMJOYM362,3BQU611VFT00QAQCRLDCS5CU837990,1,2
126,1,object_05,object_01,675.9599999059,2,2,-1.0,0.0,2,object_06,5,1587,0,3,7,desert_2,2,memory-2step-stake-s,619,1836173,0.0-19.0-0.0-0.126,A2HRUFTA09371Y,3SD15I2WE5AO7614M34OSYMJOYM362,3BQU611VFT00QAQCRLDCS5CU837990,1,2
127,2,object_02,object_03,576.24500000384,3,2,306.72500003129,0.3333333333333333,1,object_08,5,1602,0,3,9,forest_1,2,memory-2step-stake-s,620,1844007,0.0-19.0-0.0-0.127,A2HRUFTA09371Y,3SD15I2WE5AO7614M34OSYMJOYM362,3BQU611VFT00QAQCRLDCS5CU837990,4,3
128,2,object_03,object_02,804.96500001755,3,1,596.84999997262,0.2222222222222222,1,object_08,1,1604,0,2,8,forest_5,2,memory-2step-stake-s,622,1907337,0.0-19.0-0.1-0.128,A2HRUFTA09371Y,3SD15I2WE5AO7614M34OSYMJOYM362,3BQU611VFT00QAQCRLDCS5CU837990,3,4
129,4,object_07,object_10,426.64999992121,7,2,365.42000004556,0.2222222222222222,1,object_08,1,1606,0,2,8,restaurant_4,2,memory-2step-stake-s,623,1915122,0.0-19.0-0.1-0.129,A2HRUFTA09371Y,3SD15I2WE5AO7614M34OSYMJOYM362,3BQU611VFT00QAQCRLDCS5CU837990,8,7
130,3,object_09,object_04,331.92999998573,5,1,589.98000004794,0.1111111111111111,1,object_08,1,1607,0,1,7,library_2,2,memory-2step-stake-s,624,1923030,0.0-19.0-0.1-0.130,A2HRUFTA09371Y,3SD15I2WE5AO7614M34OSYMJOYM362,3BQU611VFT00QAQCRLDCS5CU837990,5,6
131,3,object_04,object_09,494.6199998958,5,2,385.40499994997,0.1111111111111111,1,object_08,1,1608,0,1,6,library_1,2,memory-2step-stake-s,625,1930737,0.0-19.0-0.1-0.131,A2HRUFTA09371Y,3SD15I2WE5AO7614M34OSYMJOYM362,3BQU611VFT00QAQCRLDCS5CU837990,6,5
132,3,object_09,object_04,1124.7250000015,6,2,325.5750000244,0.5555555555555556,2,object_06,1,1613,0,1,5,library_5,2,memory-2step-stake-s,626,1938787,0.0-19.0-0.1-0.132,A2HRUFTA09371Y,3SD15I2WE5AO7614M34OSYMJOYM362,3BQU611VFT00QAQCRLDCS5CU837990,5,6
133,3,object_04,object_09,1132.7799999854,6,1,284.99499999452,0.3333333333333333,2,object_06,1,1616,0,2,3,library_1,2,memory-2step-stake-s,627,1946595,0.0-19.0-0.1-0.133,A2HRUFTA09371Y,3SD15I2WE5AO7614M34OSYMJOYM362,3BQU611VFT00QAQCRLDCS5CU837990,6,5
134,4,object_10,object_07,843.60999998171,7,1,326.74999989104,0.4444444444444444,1,object_08,1,1620,0,4,2,restaurant_1,2,memory-2step-stake-s,628,1954545,0.0-19.0-0.1-0.134,A2HRUFTA09371Y,3SD15I2WE5AO7614M34OSYMJOYM362,3BQU611VFT00QAQCRLDCS5CU837990,7,8
135,4,object_10,object_07,476.41999996267,8,2,469.21500004828,0.2222222222222222,2,object_06,1,1622,0,3,2,restaurant_4,2,memory-2step-stake-s,629,1962434,0.0-19.0-0.1-0.135,A2HRUFTA09371Y,3SD15I2WE5AO7614M34OSYMJOYM362,3BQU611VFT00QAQCRLDCS5CU837990,7,8
136,2,object_03,object_02,571.67500001378,3,1,342.40999992471,0.3333333333333333,1,object_08,5,1637,0,3,2,forest_8,2,memory-2step-stake-s,630,1970296,0.0-19.0-0.1-0.136,A2HRUFTA09371Y,3SD15I2WE5AO7614M34OSYMJOYM362,3BQU611VFT00QAQCRLDCS5CU837990,3,4
137,3,object_04,object_09,1020.6550000003,5,2,302.68999992404,0.2222222222222222,1,object_08,1,1639,0,2,3,library_2,2,memory-2step-stake-s,631,1978025,0.0-19.0-0.1-0.137,A2HRUFTA09371Y,3SD15I2WE5AO7614M34OSYMJOYM362,3BQU611VFT00QAQCRLDCS5CU837990,6,5
138,4,object_07,object_10,980.99999991246,8,1,375.6450000219,0.2222222222222222,2,object_06,5,1649,0,1,2,restaurant_1,2,memory-2step-stake-s,632,1985819,0.0-19.0-0.1-0.138,A2HRUFTA09371Y,3SD15I2WE5AO7614M34OSYMJOYM362,3BQU611VFT00QAQCRLDCS5CU837990,8,7
139,2,object_03,object_02,554.40000002272,4,2,988.96000010427,0.1111111111111111,2,object_06,1,1650,0,1,1,forest_1,2,memory-2step-stake-s,633,1994123,0.0-19.0-0.1-0.139,A2HRUFTA09371Y,3SD15I2WE5AO7614M34OSYMJOYM362,3BQU611VFT00QAQCRLDCS5CU837990,3,4
140,2,object_03,object_02,707.62999996077,3,1,342.65999996569,0.5555555555555556,1,object_08,5,1675,0,5,1,forest_4,2,memory-2step-stake-s,634,2002194,0.0-19.0-0.1-0.140,A2HRUFTA09371Y,3SD15I2WE5AO7614M34OSYMJOYM362,3BQU611VFT00QAQCRLDCS5CU837990,3,4
141,1,object_05,object_01,829.47999995667,1,1,448.71500006411,0.6666666666666666,1,object_08,5,1705,0,6,4,desert_5,2,memory-2step-stake-s,635,2010473,0.0-19.0-0.1-0.141,A2HRUFTA09371Y,3SD15I2WE5AO7614M34OSYMJOYM362,3BQU611VFT00QAQCRLDCS5CU837990,1,2
142,4,object_07,object_10,830.22999996319,7,2,1480.7949999813,0.6666666666666666,1,object_08,1,1711,0,6,1,restaurant_4,2,memory-2step-stake-s,636,2019773,0.0-19.0-0.1-0.142,A2HRUFTA09371Y,3SD15I2WE5AO7614M34OSYMJOYM362,3BQU611VFT00QAQCRLDCS5CU837990,8,7
143,1,object_05,object_01,809.69000002369,2,2,656.39000001829,0.0,2,object_06,1,1711,0,7,0,desert_2,2,memory-2step-stake-s,637,2027666,0.0-19.0-0.1-0.143,A2HRUFTA09371Y,3SD15I2WE5AO7614M34OSYMJOYM362,3BQU611VFT00QAQCRLDCS5CU837990,1,2
144,3,object_04,object_09,802.90000000969,5,2,550.04500003997,0.7777777777777778,1,object_08,1,1718,0,7,1,library_2,2,memory-2step-stake-s,638,2036140,0.0-19.0-0.1-0.144,A2HRUFTA09371Y,3SD15I2WE5AO7614M34OSYMJOYM362,3BQU611VFT00QAQCRLDCS5CU837990,6,5
145,2,object_03,object_02,584.87999998033,3,1,379.595000064,0.7777777777777778,1,object_08,5,1753,0,7,1,forest_8,2,memory-2step-stake-s,639,2044444,0.0-19.0-0.1-0.145,A2HRUFTA09371Y,3SD15I2WE5AO7614M34OSYMJOYM362,3BQU611VFT00QAQCRLDCS5CU837990,3,4
146,4,object_10,object_07,690.57499989867,7,1,396.38500008732,1.0,1,object_08,1,1762,0,9,0,restaurant_7,2,memory-2step-stake-s,640,2052967,0.0-19.0-0.1-0.146,A2HRUFTA09371Y,3SD15I2WE5AO7614M34OSYMJOYM362,3BQU611VFT00QAQCRLDCS5CU837990,7,8
147,2,object_02,object_03,631.02999993134,3,2,289.70500000287,0.7777777777777778,1,object_08,5,1797,0,7,1,forest_5,2,memory-2step-stake-s,641,2061187,0.0-19.0-0.1-0.147,A2HRUFTA09371Y,3SD15I2WE5AO7614M34OSYMJOYM362,3BQU611VFT00QAQCRLDCS5CU837990,4,3
148,1,object_01,object_05,626.50500005111,2,1,292.90000000037,0.3333333333333333,2,object_06,5,1812,0,4,3,desert_2,2,memory-2step-stake-s,642,2069002,0.0-19.0-0.1-0.148,A2HRUFTA09371Y,3SD15I2WE5AO7614M34OSYMJOYM362,3BQU611VFT00QAQCRLDCS5CU837990,2,1
149,3,object_09,object_04,741.05000006966,6,2,1295.6699999049,0.2222222222222222,2,object_06,1,1814,0,6,2,library_8,2,memory-2step-stake-s,643,2077724,0.0-19.0-0.1-0.149,A2HRUFTA09371Y,3SD15I2WE5AO7614M34OSYMJOYM362,3BQU611VFT00QAQCRLDCS5CU837990,5,6
150,1,object_01,object_05,604.16000010446,1,2,575.24999999441,0.8888888888888888,1,object_08,5,1854,0,8,2,desert_6,2,memory-2step-stake-s,644,2086340,0.0-19.0-0.1-0.150,A2HRUFTA09371Y,3SD15I2WE5AO7614M34OSYMJOYM362,3BQU611VFT00QAQCRLDCS5CU837990,2,1
151,2,object_03,object_02,633.41000000946,3,1,172.89499996696,0.7777777777777778,1,object_08,5,1889,0,7,2,forest_5,2,memory-2step-stake-s,645,2094442,0.0-19.0-0.1-0.151,A2HRUFTA09371Y,3SD15I2WE5AO7614M34OSYMJOYM362,3BQU611VFT00QAQCRLDCS5CU837990,3,4
152,4,object_10,object_07,820.47499995679,7,1,701.34000002872,0.7777777777777778,1,object_08,5,1924,0,7,4,restaurant_7,2,memory-2step-stake-s,646,2103078,0.0-19.0-0.1-0.152,A2HRUFTA09371Y,3SD15I2WE5AO7614M34OSYMJOYM362,3BQU611VFT00QAQCRLDCS5CU837990,7,8
153,4,object_10,object_07,752.94499995653,7,1,493.67500003427,0.7777777777777778,1,object_08,1,1931,0,7,9,restaurant_7,2,memory-2step-stake-s,647,2111493,0.0-19.0-0.1-0.153,A2HRUFTA09371Y,3SD15I2WE5AO7614M34OSYMJOYM362,3BQU611VFT00QAQCRLDCS5CU837990,7,8
154,1,object_05,object_01,944.66499995906,1,1,356.21500003617,0.8888888888888888,1,object_08,1,1939,0,8,9,desert_2,2,memory-2step-stake-s,648,2119873,0.0-19.0-0.1-0.154,A2HRUFTA09371Y,3SD15I2WE5AO7614M34OSYMJOYM362,3BQU611VFT00QAQCRLDCS5CU837990,1,2
155,2,object_02,object_03,645.32500004862,3,2,423.02999994718,0.6666666666666666,1,object_08,5,1969,0,6,7,forest_1,2,memory-2step-stake-s,649,2128123,0.0-19.0-0.1-0.155,A2HRUFTA09371Y,3SD15I2WE5AO7614M34OSYMJOYM362,3BQU611VFT00QAQCRLDCS5CU837990,4,3
156,3,object_09,object_04,913.11000008136,5,1,442.3100000713,0.6666666666666666,1,object_08,1,1975,0,6,9,library_1,2,memory-2step-stake-s,650,2136394,0.0-19.0-0.1-0.156,A2HRUFTA09371Y,3SD15I2WE5AO7614M34OSYMJOYM362,3BQU611VFT00QAQCRLDCS5CU837990,5,6
157,1,object_01,object_05,1175.0549999997,1,2,771.57499990426,0.6666666666666666,1,object_08,1,1981,0,6,6,desert_6,2,memory-2step-stake-s,651,2144993,0.0-19.0-0.1-0.157,A2HRUFTA09371Y,3SD15I2WE5AO7614M34OSYMJOYM362,3BQU611VFT00QAQCRLDCS5CU837990,2,1
158,2,object_02,object_03,595.71000002325,3,2,398.6749999458,0.2222222222222222,1,object_08,1,1983,0,2,4,forest_1,2,memory-2step-stake-s,652,2152821,0.0-19.0-0.1-0.158,A2HRUFTA09371Y,3SD15I2WE5AO7614M34OSYMJOYM362,3BQU611VFT00QAQCRLDCS5CU837990,4,3
159,3,object_04,object_09,775.89000004809,6,1,442.39500002004,0.4444444444444444,2,object_06,1,1987,0,0,4,library_1,2,memory-2step-stake-s,653,2160889,0.0-19.0-0.1-0.159,A2HRUFTA09371Y,3SD15I2WE5AO7614M34OSYMJOYM362,3BQU611VFT00QAQCRLDCS5CU837990,6,5
160,3,object_09,object_04,1108.4850000916,5,1,344.55999999773,0.3333333333333333,1,object_08,5,2002,0,3,6,library_2,2,memory-2step-stake-s,654,2168754,0.0-19.0-0.1-0.160,A2HRUFTA09371Y,3SD15I2WE5AO7614M34OSYMJOYM362,3BQU611VFT00QAQCRLDCS5CU837990,5,6
161,3,object_04,object_09,582.18999998644,6,1,326.48500008509,0.1111111111111111,2,object_06,1,2003,0,0,1,library_8,2,memory-2step-stake-s,655,2176396,0.0-19.0-0.1-0.161,A2HRUFTA09371Y,3SD15I2WE5AO7614M34OSYMJOYM362,3BQU611VFT00QAQCRLDCS5CU837990,6,5
162,3,object_09,object_04,706.17000001948,6,2,290.18999997061,0.4444444444444444,2,object_06,1,2007,0,0,4,library_1,2,memory-2step-stake-s,656,2184309,0.0-19.0-0.1-0.162,A2HRUFTA09371Y,3SD15I2WE5AO7614M34OSYMJOYM362,3BQU611VFT00QAQCRLDCS5CU837990,5,6
163,1,object_01,object_05,990.51499995403,2,1,322.96000001952,0.6666666666666666,2,object_06,5,2037,0,2,6,desert_7,2,memory-2step-stake-s,657,2192462,0.0-19.0-0.1-0.163,A2HRUFTA09371Y,3SD15I2WE5AO7614M34OSYMJOYM362,3BQU611VFT00QAQCRLDCS5CU837990,2,1
164,1,object_05,object_01,833.06500001345,2,2,466.28499997314,0.5555555555555556,2,object_06,1,2042,0,2,5,desert_7,2,memory-2step-stake-s,658,2200650,0.0-19.0-0.1-0.164,A2HRUFTA09371Y,3SD15I2WE5AO7614M34OSYMJOYM362,3BQU611VFT00QAQCRLDCS5CU837990,1,2
165,3,object_09,object_04,716.06500004418,6,2,388.35500006098,0.7777777777777778,2,object_06,1,2049,0,2,7,library_8,2,memory-2step-stake-s,659,2208985,0.0-19.0-0.1-0.165,A2HRUFTA09371Y,3SD15I2WE5AO7614M34OSYMJOYM362,3BQU611VFT00QAQCRLDCS5CU837990,5,6
166,2,object_02,object_03,580.84999991115,3,2,279.49500002433,0.2222222222222222,1,object_08,5,2059,0,2,8,forest_5,2,memory-2step-stake-s,660,2216680,0.0-19.0-0.1-0.166,A2HRUFTA09371Y,3SD15I2WE5AO7614M34OSYMJOYM362,3BQU611VFT00QAQCRLDCS5CU837990,4,3
167,3,object_04,object_09,853.48000004888,6,1,401.33000002243,0.7777777777777778,2,object_06,1,2066,0,2,7,library_8,2,memory-2step-stake-s,661,2225005,0.0-19.0-0.1-0.167,A2HRUFTA09371Y,3SD15I2WE5AO7614M34OSYMJOYM362,3BQU611VFT00QAQCRLDCS5CU837990,6,5
168,2,object_03,object_02,956.99500001501,4,2,265.95499995165,0.8888888888888888,2,object_06,1,2074,0,2,8,forest_4,2,memory-2step-stake-s,662,2233312,0.0-19.0-0.1-0.168,A2HRUFTA09371Y,3SD15I2WE5AO7614M34OSYMJOYM362,3BQU611VFT00QAQCRLDCS5CU837990,3,4
169,1,object_05,object_01,687.10500001907,2,2,338.07499997783,0.8888888888888888,2,object_06,5,2114,0,0,8,desert_5,2,memory-2step-stake-s,663,2241698,0.0-19.0-0.1-0.169,A2HRUFTA09371Y,3SD15I2WE5AO7614M34OSYMJOYM362,3BQU611VFT00QAQCRLDCS5CU837990,1,2
170,1,object_01,object_05,822.11500010453,1,2,372.97999998555,0.1111111111111111,1,object_08,1,2115,0,1,8,desert_6,2,memory-2step-stake-s,664,2249391,0.0-19.0-0.1-0.170,A2HRUFTA09371Y,3SD15I2WE5AO7614M34OSYMJOYM362,3BQU611VFT00QAQCRLDCS5CU837990,2,1
171,3,object_04,object_09,855.81500001717,6,1,241.45500001032,1.0,2,object_06,5,2160,0,1,9,library_2,2,memory-2step-stake-s,665,2257757,0.0-19.0-0.1-0.171,A2HRUFTA09371Y,3SD15I2WE5AO7614M34OSYMJOYM362,3BQU611VFT00QAQCRLDCS5CU837990,6,5
172,1,object_05,object_01,680.64499995671,2,2,315.78000006266,0.8888888888888888,2,object_06,5,2200,0,1,8,desert_2,2,memory-2step-stake-s,666,2266114,0.0-19.0-0.1-0.172,A2HRUFTA09371Y,3SD15I2WE5AO7614M34OSYMJOYM362,3BQU611VFT00QAQCRLDCS5CU837990,1,2
173,3,object_04,object_09,949.79999994393,6,1,287.85999992397,0.8888888888888888,2,object_06,1,2208,0,1,8,library_8,2,memory-2step-stake-s,667,2274425,0.0-19.0-0.1-0.173,A2HRUFTA09371Y,3SD15I2WE5AO7614M34OSYMJOYM362,3BQU611VFT00QAQCRLDCS5CU837990,6,5
174,1,object_01,object_05,859.31500000879,2,1,316.04499998502,0.5555555555555556,2,object_06,5,2233,0,1,5,desert_6,2,memory-2step-stake-s,668,2282461,0.0-19.0-0.1-0.174,A2HRUFTA09371Y,3SD15I2WE5AO7614M34OSYMJOYM362,3BQU611VFT00QAQCRLDCS5CU837990,2,1
175,2,object_03,object_02,721.16000007372,3,1,346.94999991916,0.1111111111111111,1,object_08,5,2238,0,1,2,forest_1,2,memory-2step-stake-s,669,2290125,0.0-19.0-0.1-0.175,A2HRUFTA09371Y,3SD15I2WE5AO7614M34OSYMJOYM362,3BQU611VFT00QAQCRLDCS5CU837990,3,4
176,1,object_05,object_01,735.27499998454,2,2,313.67499998305,0.2222222222222222,2,object_06,5,2248,0,1,2,desert_5,2,memory-2step-stake-s,670,2297859,0.0-19.0-0.1-0.176,A2HRUFTA09371Y,3SD15I2WE5AO7614M34OSYMJOYM362,3BQU611VFT00QAQCRLDCS5CU837990,1,2
177,1,object_01,object_05,1114.4650001079,1,2,405.32000001986,0.0,1,object_08,5,2248,0,0,2,desert_7,2,memory-2step-stake-s,671,2305484,0.0-19.0-0.1-0.177,A2HRUFTA09371Y,3SD15I2WE5AO7614M34OSYMJOYM362,3BQU611VFT00QAQCRLDCS5CU837990,2,1
178,3,object_04,object_09,1008.5550000658,5,2,491.54499999713,0.2222222222222222,1,object_08,1,2250,0,2,0,library_1,2,memory-2step-stake-s,672,2313398,0.0-19.0-0.1-0.178,A2HRUFTA09371Y,3SD15I2WE5AO7614M34OSYMJOYM362,3BQU611VFT00QAQCRLDCS5CU837990,6,5
179,3,object_09,object_04,679.55999996047,5,1,456.43500005826,0.2222222222222222,1,object_08,5,2260,0,2,1,library_8,2,memory-2step-stake-s,673,2321274,0.0-19.0-0.1-0.179,A2HRUFTA09371Y,3SD15I2WE5AO7614M34OSYMJOYM362,3BQU611VFT00QAQCRLDCS5CU837990,5,6
180,3,object_04,object_09,741.20000004768,5,2,407.46000001673,0.0,1,object_08,1,2260,0,0,3,library_5,2,memory-2step-stake-s,674,2328914,0.0-19.0-0.1-0.180,A2HRUFTA09371Y,3SD15I2WE5AO7614M34OSYMJOYM362,3BQU611VFT00QAQCRLDCS5CU837990,6,5
181,2,object_03,object_02,675.74500001501,4,2,358.44999994151,0.4444444444444444,2,object_06,1,2264,0,1,4,forest_5,2,memory-2step-stake-s,675,2336893,0.0-19.0-0.1-0.181,A2HRUFTA09371Y,3SD15I2WE5AO7614M34OSYMJOYM362,3BQU611VFT00QAQCRLDCS5CU837990,3,4
182,2,object_02,object_03,569.60499996785,4,1,299.31999999098,0.0,2,object_06,5,2264,0,5,0,forest_5,2,memory-2step-stake-s,676,2344408,0.0-19.0-0.1-0.182,A2HRUFTA09371Y,3SD15I2WE5AO7614M34OSYMJOYM362,3BQU611VFT00QAQCRLDCS5CU837990,4,3
183,1,object_05,object_01,880.19499997608,1,1,321.05999998748,0.6666666666666666,1,object_08,5,2294,0,6,4,desert_7,2,memory-2step-stake-s,677,2352552,0.0-19.0-0.1-0.183,A2HRUFTA09371Y,3SD15I2WE5AO7614M34OSYMJOYM362,3BQU611VFT00QAQCRLDCS5CU837990,1,2
184,4,object_07,object_10,784.82500009704,7,2,359.71999994945,0.3333333333333333,1,object_08,1,2297,0,3,1,restaurant_1,2,memory-2step-stake-s,678,2360432,0.0-19.0-0.1-0.184,A2HRUFTA09371Y,3SD15I2WE5AO7614M34OSYMJOYM362,3BQU611VFT00QAQCRLDCS5CU837990,8,7
185,3,object_04,object_09,945.09000005201,6,1,872.60500004049,0.2222222222222222,2,object_06,1,2299,0,3,2,library_1,2,memory-2step-stake-s,679,2368749,0.0-19.0-0.1-0.185,A2HRUFTA09371Y,3SD15I2WE5AO7614M34OSYMJOYM362,3BQU611VFT00QAQCRLDCS5CU837990,6,5
186,2,object_03,object_02,599.38499995042,3,1,412.43499994744,0.0,1,object_08,5,2299,0,0,5,forest_4,2,memory-2step-stake-s,680,2376378,0.0-19.0-0.1-0.186,A2HRUFTA09371Y,3SD15I2WE5AO7614M34OSYMJOYM362,3BQU611VFT00QAQCRLDCS5CU837990,3,4
187,2,object_02,object_03,986.1399999354,4,1,292.20999998506,1.0,2,object_06,5,2344,0,0,9,forest_5,2,memory-2step-stake-s,681,2384807,0.0-19.0-0.1-0.187,A2HRUFTA09371Y,3SD15I2WE5AO7614M34OSYMJOYM362,3BQU611VFT00QAQCRLDCS5CU837990,4,3
188,2,object_02,object_03,855.579999974,4,1,248.95000003744,1.0,2,object_06,5,2389,0,4,9,forest_4,2,memory-2step-stake-s,682,2393196,0.0-19.0-0.1-0.188,A2HRUFTA09371Y,3SD15I2WE5AO7614M34OSYMJOYM362,3BQU611VFT00QAQCRLDCS5CU837990,4,3
189,4,object_07,object_10,657.60499995667,7,2,224.53999996651,0.3333333333333333,1,object_08,1,2392,0,3,8,restaurant_1,2,memory-2step-stake-s,683,2400939,0.0-19.0-0.1-0.189,A2HRUFTA09371Y,3SD15I2WE5AO7614M34OSYMJOYM362,3BQU611VFT00QAQCRLDCS5CU837990,8,7
190,1,object_05,object_01,890.73999994434,2,2,340.82500007935,0.8888888888888888,2,object_06,1,2400,0,4,8,desert_6,2,memory-2step-stake-s,684,2409309,0.0-19.0-0.1-0.190,A2HRUFTA09371Y,3SD15I2WE5AO7614M34OSYMJOYM362,3BQU611VFT00QAQCRLDCS5CU837990,1,2
191,2,object_03,object_02,729.02500000782,4,2,374.10999997519,0.7777777777777778,2,object_06,5,2435,0,4,7,forest_4,2,memory-2step-stake-s,685,2417612,0.0-19.0-0.1-0.191,A2HRUFTA09371Y,3SD15I2WE5AO7614M34OSYMJOYM362,3BQU611VFT00QAQCRLDCS5CU837990,3,4
192,2,object_03,object_02,758.84999998379,4,2,369.34500001371,0.7777777777777778,2,object_06,5,2470,0,4,7,forest_5,2,memory-2step-stake-s,686,2425919,0.0-19.0-0.1-0.192,A2HRUFTA09371Y,3SD15I2WE5AO7614M34OSYMJOYM362,3BQU611VFT00QAQCRLDCS5CU837990,3,4
193,4,object_10,object_07,920.89999991003,8,2,274.58000008482,0.8888888888888888,2,object_06,1,2478,0,3,8,restaurant_7,2,memory-2step-stake-s,687,2434219,0.0-19.0-0.1-0.193,A2HRUFTA09371Y,3SD15I2WE5AO7614M34OSYMJOYM362,3BQU611VFT00QAQCRLDCS5CU837990,7,8
194,1,object_05,object_01,743.70500002988,2,2,57.870000018738,0.6666666666666666,2,object_06,1,2484,0,3,6,desert_7,2,memory-2step-stake-s,688,2442101,0.0-19.0-0.1-0.194,A2HRUFTA09371Y,3SD15I2WE5AO7614M34OSYMJOYM362,3BQU611VFT00QAQCRLDCS5CU837990,1,2
195,2,object_02,object_03,668.28499990515,4,1,340.07999999449,0.5555555555555556,2,object_06,5,2509,0,1,5,forest_5,2,memory-2step-stake-s,689,2450163,0.0-19.0-0.1-0.195,A2HRUFTA09371Y,3SD15I2WE5AO7614M34OSYMJOYM362,3BQU611VFT00QAQCRLDCS5CU837990,4,3
196,4,object_10,object_07,746.67500006035,8,2,292.68499999307,0.5555555555555556,2,object_06,1,2514,0,1,5,restaurant_6,2,memory-2step-stake-s,690,2458178,0.0-19.0-0.1-0.196,A2HRUFTA09371Y,3SD15I2WE5AO7614M34OSYMJOYM362,3BQU611VFT00QAQCRLDCS5CU837990,7,8
197,4,object_07,object_10,671.29500000738,7,2,372.19999998342,0.4444444444444444,1,object_08,1,2518,0,4,8,restaurant_6,2,memory-2step-stake-s,691,2466171,0.0-19.0-0.1-0.197,A2HRUFTA09371Y,3SD15I2WE5AO7614M34OSYMJOYM362,3BQU611VFT00QAQCRLDCS5CU837990,8,7
198,3,object_04,object_09,513.04999995045,6,1,412.70500002429,0.8888888888888888,2,object_06,1,2526,0,1,8,library_2,2,memory-2step-stake-s,692,2474610,0.0-19.0-0.1-0.198,A2HRUFTA09371Y,3SD15I2WE5AO7614M34OSYMJOYM362,3BQU611VFT00QAQCRLDCS5CU837990,6,5
199,3,object_04,object_09,875.37000002339,6,1,271.35000005364,0.7777777777777778,2,object_06,1,2533,0,3,7,library_8,2,memory-2step-stake-s,693,2482813,0.0-19.0-0.1-0.199,A2HRUFTA09371Y,3SD15I2WE5AO7614M34OSYMJOYM362,3BQU611VFT00QAQCRLDCS5CU837990,6,5
200,2,object_02,object_03,1185.5600000126,4,1,340.45499993954,0.7777777777777778,2,object_06,5,2568,0,2,7,forest_8,2,memory-2step-stake-s,694,2491079,0.0-19.0-0.1-0.200,A2HRUFTA09371Y,3SD15I2WE5AO7614M34OSYMJOYM362,3BQU611VFT00QAQCRLDCS5CU837990,4,3
201,1,object_05,object_01,676.71000002883,2,2,629.52500011306,0.6666666666666666,2,object_06,1,2574,0,3,6,desert_5,2,memory-2step-stake-s,695,2499539,0.0-19.0-0.1-0.201,A2HRUFTA09371Y,3SD15I2WE5AO7614M34OSYMJOYM362,3BQU611VFT00QAQCRLDCS5CU837990,1,2
202,3,object_09,object_04,643.28000007663,6,2,365.40000000969,0.7777777777777778,2,object_06,5,2609,0,5,7,library_1,2,memory-2step-stake-s,696,2507829,0.0-19.0-0.1-0.202,A2HRUFTA09371Y,3SD15I2WE5AO7614M34OSYMJOYM362,3BQU611VFT00QAQCRLDCS5CU837990,5,6
203,3,object_09,object_04,730.24000006262,5,1,301.63499992341,0.7777777777777778,1,object_08,1,2616,0,7,8,library_8,2,memory-2step-stake-s,697,2516050,0.0-19.0-0.1-0.203,A2HRUFTA09371Y,3SD15I2WE5AO7614M34OSYMJOYM362,3BQU611VFT00QAQCRLDCS5CU837990,5,6
204,1,object_05,object_01,684.90500003099,2,2,295.67000002135,0.8888888888888888,2,object_06,5,2656,0,7,8,desert_7,2,memory-2step-stake-s,698,2524370,0.0-19.0-0.1-0.204,A2HRUFTA09371Y,3SD15I2WE5AO7614M34OSYMJOYM362,3BQU611VFT00QAQCRLDCS5CU837990,1,2
205,3,object_09,object_04,700.87499998044,6,2,267.36499997787,0.6666666666666666,2,object_06,5,2686,0,7,6,library_8,2,memory-2step-stake-s,699,2532490,0.0-19.0-0.1-0.205,A2HRUFTA09371Y,3SD15I2WE5AO7614M34OSYMJOYM362,3BQU611VFT00QAQCRLDCS5CU837990,5,6
206,2,object_03,object_02,793.98499999661,3,1,299.89000002388,0.5555555555555556,1,object_08,5,2711,0,5,5,forest_8,2,memory-2step-stake-s,700,2540520,0.0-19.0-0.1-0.206,A2HRUFTA09371Y,3SD15I2WE5AO7614M34OSYMJOYM362,3BQU611VFT00QAQCRLDCS5CU837990,3,4
207,3,object_09,object_04,758.72000004165,5,1,1457.0800000802,0.4444444444444444,1,object_08,1,2715,0,4,5,library_5,2,memory-2step-stake-s,701,2549608,0.0-19.0-0.1-0.207,A2HRUFTA09371Y,3SD15I2WE5AO7614M34OSYMJOYM362,3BQU611VFT00QAQCRLDCS5CU837990,5,6
208,2,object_02,object_03,1160.1500000106,3,2,614.51500002295,0.2222222222222222,1,object_08,5,2725,0,2,2,forest_1,2,memory-2step-stake-s,702,2557651,0.0-19.0-0.1-0.208,A2HRUFTA09371Y,3SD15I2WE5AO7614M34OSYMJOYM362,3BQU611VFT00QAQCRLDCS5CU837990,4,3
209,1,object_05,object_01,939.78500005323,1,1,308.22500004433,0.1111111111111111,1,object_08,5,2730,0,1,4,desert_5,2,memory-2step-stake-s,703,2565277,0.0-19.0-0.1-0.209,A2HRUFTA09371Y,3SD15I2WE5AO7614M34OSYMJOYM362,3BQU611VFT00QAQCRLDCS5CU837990,1,2
210,1,object_01,object_05,664.36000005342,2,1,305.06499996409,0.4444444444444444,2,object_06,5,2750,0,3,4,desert_2,2,memory-2step-stake-s,704,2573204,0.0-19.0-0.1-0.210,A2HRUFTA09371Y,3SD15I2WE5AO7614M34OSYMJOYM362,3BQU611VFT00QAQCRLDCS5CU837990,2,1
211,2,object_03,object_02,690.24499994703,4,2,256.37499999721,0.2222222222222222,2,object_06,5,2760,0,7,2,forest_8,2,memory-2step-stake-s,705,2580877,0.0-19.0-0.1-0.211,A2HRUFTA09371Y,3SD15I2WE5AO7614M34OSYMJOYM362,3BQU611VFT00QAQCRLDCS5CU837990,3,4
212,1,object_01,object_05,991.92499998026,2,1,355.63499992713,0.3333333333333333,2,object_06,1,2763,0,5,3,desert_6,2,memory-2step-stake-s,706,2588753,0.0-19.0-0.1-0.212,A2HRUFTA09371Y,3SD15I2WE5AO7614M34OSYMJOYM362,3BQU611VFT00QAQCRLDCS5CU837990,2,1
213,1,object_01,object_05,656.48999996483,1,2,286.58499999437,0.5555555555555556,1,object_08,5,2788,0,5,3,desert_5,2,memory-2step-stake-s,707,2596762,0.0-19.0-0.1-0.213,A2HRUFTA09371Y,3SD15I2WE5AO7614M34OSYMJOYM362,3BQU611VFT00QAQCRLDCS5CU837990,2,1
214,4,object_10,object_07,645.31000005081,7,1,274.55500001088,0.8888888888888888,1,object_08,1,2796,0,8,5,restaurant_6,2,memory-2step-stake-s,708,2605072,0.0-19.0-0.1-0.214,A2HRUFTA09371Y,3SD15I2WE5AO7614M34OSYMJOYM362,3BQU611VFT00QAQCRLDCS5CU837990,7,8
215,2,object_02,object_03,518.17000005394,3,2,47.894999966957,1.0,1,object_08,5,2841,0,9,6,forest_8,2,memory-2step-stake-s,709,2613247,0.0-19.0-0.1-0.215,A2HRUFTA09371Y,3SD15I2WE5AO7614M34OSYMJOYM362,3BQU611VFT00QAQCRLDCS5CU837990,4,3
216,2,object_03,object_02,581.73500001431,3,1,310.02500001341,1.0,1,object_08,5,2886,0,9,7,forest_4,2,memory-2step-stake-s,710,2621698,0.0-19.0-0.1-0.216,A2HRUFTA09371Y,3SD15I2WE5AO7614M34OSYMJOYM362,3BQU611VFT00QAQCRLDCS5CU837990,3,4
217,4,object_10,object_07,856.41500004567,7,1,661.09499998856,1.0,1,object_08,1,2895,0,9,7,restaurant_7,2,memory-2step-stake-s,711,2630488,0.0-19.0-0.1-0.217,A2HRUFTA09371Y,3SD15I2WE5AO7614M34OSYMJOYM362,3BQU611VFT00QAQCRLDCS5CU837990,7,8
218,3,object_04,object_09,889.51999996789,6,1,351.15500004031,0.6666666666666666,2,object_06,1,2901,0,7,6,library_5,2,memory-2step-stake-s,712,2638663,0.0-19.0-0.1-0.218,A2HRUFTA09371Y,3SD15I2WE5AO7614M34OSYMJOYM362,3BQU611VFT00QAQCRLDCS5CU837990,6,5
219,2,object_03,object_02,693.29500000458,4,2,271.82999998331,0.7777777777777778,2,object_06,5,2936,0,8,7,forest_8,2,memory-2step-stake-s,713,2646876,0.0-19.0-0.1-0.219,A2HRUFTA09371Y,3SD15I2WE5AO7614M34OSYMJOYM362,3BQU611VFT00QAQCRLDCS5CU837990,3,4
220,4,object_07,object_10,781.44500008784,8,1,378.57499998063,0.6666666666666666,2,object_06,1,2942,0,8,6,restaurant_1,2,memory-2step-stake-s,714,2655079,0.0-19.0-0.1-0.220,A2HRUFTA09371Y,3SD15I2WE5AO7614M34OSYMJOYM362,3BQU611VFT00QAQCRLDCS5CU837990,8,7
221,2,object_02,object_03,630.84499991965,4,1,286.13500006031,0.3333333333333333,2,object_06,5,2957,0,7,3,forest_1,2,memory-2step-stake-s,715,2662888,0.0-19.0-0.1-0.221,A2HRUFTA09371Y,3SD15I2WE5AO7614M34OSYMJOYM362,3BQU611VFT00QAQCRLDCS5CU837990,4,3
222,3,object_04,object_09,1004.1249999776,5,2,335.61499998905,0.8888888888888888,1,object_08,1,2965,0,8,6,library_5,2,memory-2step-stake-s,716,2671254,0.0-19.0-0.1-0.222,A2HRUFTA09371Y,3SD15I2WE5AO7614M34OSYMJOYM362,3BQU611VFT00QAQCRLDCS5CU837990,6,5
223,4,object_07,object_10,695.73999999557,7,2,2.5750000495464,0.8888888888888888,1,object_08,5,3005,0,8,5,restaurant_7,2,memory-2step-stake-s,717,2679285,0.0-19.0-0.1-0.223,A2HRUFTA09371Y,3SD15I2WE5AO7614M34OSYMJOYM362,3BQU611VFT00QAQCRLDCS5CU837990,8,7
224,3,object_09,object_04,712.034999975,6,2,354.55000004731,0.3333333333333333,2,object_06,1,3008,0,6,3,library_2,2,memory-2step-stake-s,718,2687164,0.0-19.0-0.1-0.224,A2HRUFTA09371Y,3SD15I2WE5AO7614M34OSYMJOYM362,3BQU611VFT00QAQCRLDCS5CU837990,5,6
225,1,object_01,object_05,752.75499990676,1,2,315.37500000559,0.5555555555555556,1,object_08,5,3033,0,5,3,desert_6,2,memory-2step-stake-s,719,2695210,0.0-19.0-0.1-0.225,A2HRUFTA09371Y,3SD15I2WE5AO7614M34OSYMJOYM362,3BQU611VFT00QAQCRLDCS5CU837990,2,1
226,1,object_05,object_01,707.24999997765,1,1,284.94499996305,0.6666666666666666,1,object_08,5,3063,0,6,2,desert_5,2,memory-2step-stake-s,720,2703325,0.0-19.0-0.1-0.226,A2HRUFTA09371Y,3SD15I2WE5AO7614M34OSYMJOYM362,3BQU611VFT00QAQCRLDCS5CU837990,1,2
227,3,object_09,object_04,719.81000003871,5,1,281.6350000212,0.6666666666666666,1,object_08,1,3069,0,6,5,library_2,2,memory-2step-stake-s,721,2711435,0.0-19.0-0.1-0.227,A2HRUFTA09371Y,3SD15I2WE5AO7614M34OSYMJOYM362,3BQU611VFT00QAQCRLDCS5CU837990,5,6
228,3,object_09,object_04,697.41500006057,5,1,251.70999998227,0.6666666666666666,1,object_08,1,3075,0,6,2,library_2,2,memory-2step-stake-s,722,2719516,0.0-19.0-0.1-0.228,A2HRUFTA09371Y,3SD15I2WE5AO7614M34OSYMJOYM362,3BQU611VFT00QAQCRLDCS5CU837990,5,6
229,4,object_07,object_10,745.4199999338,7,2,316.22500007506,0.7777777777777778,1,object_08,1,3082,0,7,2,restaurant_4,2,memory-2step-stake-s,723,2727756,0.0-19.0-0.1-0.229,A2HRUFTA09371Y,3SD15I2WE5AO7614M34OSYMJOYM362,3BQU611VFT00QAQCRLDCS5CU837990,8,7
230,1,object_05,object_01,834.4700000016,1,1,318.09000007343,0.8888888888888888,1,object_08,5,3122,0,8,4,desert_7,2,memory-2step-stake-s,724,2736098,0.0-19.0-0.1-0.230,A2HRUFTA09371Y,3SD15I2WE5AO7614M34OSYMJOYM362,3BQU611VFT00QAQCRLDCS5CU837990,1,2
231,4,object_10,object_07,781.45999996923,7,1,252.86999996752,0.7777777777777778,1,object_08,1,3129,0,7,0,restaurant_1,2,memory-2step-stake-s,725,2744284,0.0-19.0-0.1-0.231,A2HRUFTA09371Y,3SD15I2WE5AO7614M34OSYMJOYM362,3BQU611VFT00QAQCRLDCS5CU837990,7,8
232,2,object_03,object_02,552.42000008002,3,1,322.2250000108,0.8888888888888888,1,object_08,5,3169,0,8,1,forest_4,2,memory-2step-stake-s,726,2752634,0.0-19.0-0.1-0.232,A2HRUFTA09371Y,3SD15I2WE5AO7614M34OSYMJOYM362,3BQU611VFT00QAQCRLDCS5CU837990,3,4
233,4,object_07,object_10,1092.4900000682,8,1,346.24500002246,0.1111111111111111,2,object_06,1,3170,0,7,1,restaurant_7,2,memory-2step-stake-s,727,2760301,0.0-19.0-0.1-0.233,A2HRUFTA09371Y,3SD15I2WE5AO7614M34OSYMJOYM362,3BQU611VFT00QAQCRLDCS5CU837990,8,7
234,2,object_02,object_03,884.96499997564,3,2,465.83000000101,0.8888888888888888,1,object_08,5,3210,0,8,2,forest_8,2,memory-2step-stake-s,728,2768796,0.0-19.0-0.1-0.234,A2HRUFTA09371Y,3SD15I2WE5AO7614M34OSYMJOYM362,3BQU611VFT00QAQCRLDCS5CU837990,4,3
235,3,object_04,object_09,874.76499995682,6,1,301.81999993511,0.1111111111111111,2,object_06,1,3211,0,7,1,library_2,2,memory-2step-stake-s,729,2776413,0.0-19.0-0.1-0.235,A2HRUFTA09371Y,3SD15I2WE5AO7614M34OSYMJOYM362,3BQU611VFT00QAQCRLDCS5CU837990,6,5
236,3,object_04,object_09,678.90499997884,5,2,378.99999995716,0.6666666666666666,1,object_08,1,3217,0,6,4,library_5,2,memory-2step-stake-s,730,2784625,0.0-19.0-0.1-0.236,A2HRUFTA09371Y,3SD15I2WE5AO7614M34OSYMJOYM362,3BQU611VFT00QAQCRLDCS5CU837990,6,5
237,4,object_10,object_07,788.09499996714,7,1,440.15999999829,0.4444444444444444,1,object_08,1,3221,0,4,6,restaurant_1,2,memory-2step-stake-s,731,2792696,0.0-19.0-0.1-0.237,A2HRUFTA09371Y,3SD15I2WE5AO7614M34OSYMJOYM362,3BQU611VFT00QAQCRLDCS5CU837990,7,8
238,1,object_05,object_01,694.62500000373,2,2,349.93999998551,0.3333333333333333,2,object_06,5,3236,0,4,3,desert_5,2,memory-2step-stake-s,732,2800577,0.0-19.0-0.1-0.238,A2HRUFTA09371Y,3SD15I2WE5AO7614M34OSYMJOYM362,3BQU611VFT00QAQCRLDCS5CU837990,1,2
239,4,object_10,object_07,548.97000000346,7,1,302.59500001557,0.3333333333333333,1,object_08,5,3251,0,3,5,restaurant_6,2,memory-2step-stake-s,733,2808398,0.0-19.0-0.1-0.239,A2HRUFTA09371Y,3SD15I2WE5AO7614M34OSYMJOYM362,3BQU611VFT00QAQCRLDCS5CU837990,7,8
240,4,object_10,object_07,824.08999989275,8,2,260.07499999832,0.1111111111111111,2,object_06,1,3252,0,1,1,restaurant_7,2,memory-2step-stake-s,734,2815973,0.0-19.0-0.1-0.240,A2HRUFTA09371Y,3SD15I2WE5AO7614M34OSYMJOYM362,3BQU611VFT00QAQCRLDCS5CU837990,7,8
241,1,object_05,object_01,744.81499998365,1,1,322.88999995217,0.1111111111111111,1,object_08,5,3257,0,1,0,desert_5,2,memory-2step-stake-s,735,2823614,0.0-19.0-0.1-0.241,A2HRUFTA09371Y,3SD15I2WE5AO7614M34OSYMJOYM362,3BQU611VFT00QAQCRLDCS5CU837990,1,2
242,4,object_10,object_07,857.82999999356,8,2,280.26999998838,0.2222222222222222,2,object_06,1,3259,0,3,2,restaurant_1,2,memory-2step-stake-s,736,2831318,0.0-19.0-0.1-0.242,A2HRUFTA09371Y,3SD15I2WE5AO7614M34OSYMJOYM362,3BQU611VFT00QAQCRLDCS5CU837990,7,8
243,1,object_05,object_01,823.9449999528,2,2,282.42000006139,0.2222222222222222,2,object_06,5,3269,0,3,2,desert_2,2,memory-2step-stake-s,737,2839045,0.0-19.0-0.1-0.243,A2HRUFTA09371Y,3SD15I2WE5AO7614M34OSYMJOYM362,3BQU611VFT00QAQCRLDCS5CU837990,1,2
244,4,object_10,object_07,752.80500005465,8,2,272.8899999056,0.1111111111111111,2,object_06,1,3270,0,2,1,restaurant_1,2,memory-2step-stake-s,738,2846643,0.0-19.0-0.1-0.244,A2HRUFTA09371Y,3SD15I2WE5AO7614M34OSYMJOYM362,3BQU611VFT00QAQCRLDCS5CU837990,7,8
245,4,object_10,object_07,722.945000045,7,1,245.55500003044,0.4444444444444444,1,object_08,1,3274,0,4,1,restaurant_1,2,memory-2step-stake-s,739,2854517,0.0-19.0-0.1-0.245,A2HRUFTA09371Y,3SD15I2WE5AO7614M34OSYMJOYM362,3BQU611VFT00QAQCRLDCS5CU837990,7,8
246,1,object_01,object_05,791.35499999393,1,2,264.42999998108,0.4444444444444444,1,object_08,1,3278,0,4,0,desert_5,2,memory-2step-stake-s,740,2862406,0.0-19.0-0.1-0.246,A2HRUFTA09371Y,3SD15I2WE5AO7614M34OSYMJOYM362,3BQU611VFT00QAQCRLDCS5CU837990,2,1
247,3,object_04,object_09,750.54000003729,5,2,280.65999993123,0.5555555555555556,1,object_08,1,3283,0,5,0,library_1,2,memory-2step-stake-s,741,2870425,0.0-19.0-0.1-0.247,A2HRUFTA09371Y,3SD15I2WE5AO7614M34OSYMJOYM362,3BQU611VFT00QAQCRLDCS5CU837990,6,5
248,1,object_05,object_01,768.6049999902,1,1,279.10500008147,0.6666666666666666,1,object_08,5,3313,0,6,3,desert_6,2,memory-2step-stake-s,742,2878528,0.0-19.0-0.1-0.248,A2HRUFTA09371Y,3SD15I2WE5AO7614M34OSYMJOYM362,3BQU611VFT00QAQCRLDCS5CU837990,1,2
249,1,object_05,object_01,645.39499999955,1,1,415.86999990977,0.7777777777777778,1,object_08,5,3348,0,7,7,desert_6,2,memory-2step-stake-s,743,2886882,0.0-19.0-0.1-0.249,A2HRUFTA09371Y,3SD15I2WE5AO7614M34OSYMJOYM362,3BQU611VFT00QAQCRLDCS5CU837990,1,2
250,1,object_05,object_01,1000.2549999626,2,2,254.13999997545,0.6666666666666666,2,object_06,1,3354,0,6,6,desert_7,2,memory-2step-stake-s,744,2894964,0.0-19.0-0.1-0.250,A2HRUFTA09371Y,3SD15I2WE5AO7614M34OSYMJOYM362,3BQU611VFT00QAQCRLDCS5CU837990,1,2
251,3,object_09,object_04,800.08499999531,6,2,306.98999995366,0.7777777777777778,2,object_06,1,3361,0,5,7,library_8,2,memory-2step-stake-s,745,2903195,0.0-19.0-0.1-0.251,A2HRUFTA09371Y,3SD15I2WE5AO7614M34OSYMJOYM362,3BQU611VFT00QAQCRLDCS5CU837990,5,6
252,3,object_04,object_09,676.09500000253,5,2,278.70999998413,0.6666666666666666,1,object_08,1,3367,0,6,7,library_2,2,memory-2step-stake-s,746,2911305,0.0-19.0-0.1-0.252,A2HRUFTA09371Y,3SD15I2WE5AO7614M34OSYMJOYM362,3BQU611VFT00QAQCRLDCS5CU837990,6,5
253,1,object_05,object_01,581.58999995794,1,1,296.00500001106,1.0,1,object_08,1,3376,0,9,3,desert_5,2,memory-2step-stake-s,747,2919730,0.0-19.0-0.1-0.253,A2HRUFTA09371Y,3SD15I2WE5AO7614M34OSYMJOYM362,3BQU611VFT00QAQCRLDCS5CU837990,1,2
254,2,object_02,object_03,564.37499995809,3,2,262.65000004787,0.8888888888888888,1,object_08,5,3416,0,8,7,forest_4,2,memory-2step-stake-s,748,2928017,0.0-19.0-0.1-0.254,A2HRUFTA09371Y,3SD15I2WE5AO7614M34OSYMJOYM362,3BQU611VFT00QAQCRLDCS5CU837990,4,3
255,2,object_02,object_03,556.06500001159,3,2,431.39499996323,1.0,1,object_08,5,3461,0,9,4,forest_8,2,memory-2step-stake-s,749,2936593,0.0-19.0-0.1-0.255,A2HRUFTA09371Y,3SD15I2WE5AO7614M34OSYMJOYM362,3BQU611VFT00QAQCRLDCS5CU837990,4,3
