,state1,stim_left,stim_right,rt_1,choice1,response1,rt_2,points,state2,stim_state2,stake,score,practice,rews1,rews2,background,high_arm,trial_type,trial_index,time_elapsed,internal_node_id,subid,hitid,assignmentid,stim_left_num,stim_right_num
0,3,object_09,object_02,1069.1950000003,6,1,-1.0,0.0,2,object_10,5,0,0,6,0,library_3,1,memory-2step-stake-s,496,2191375,0.0-19.0-0.0-0.0,AAURS65ZO4SXC,3QGHA0EA1MGR4GKNSEWY8BJ80SRWBM,3EQHHY4HQW8W4XB8216586TFQKL5GY,6,5
1,1,object_07,object_06,603.62500000047,2,2,337.91000000015,0.1111111111111111,2,object_10,1,1,0,5,1,desert_7,1,memory-2step-stake-s,497,2199033,0.0-19.0-0.0-0.1,AAURS65ZO4SXC,3QGHA0EA1MGR4GKNSEWY8BJ80SRWBM,3EQHHY4HQW8W4XB8216586TFQKL5GY,1,2
2,1,object_06,object_07,655.82499999972,1,2,554.72999999998,0.6666666666666666,1,object_05,5,31,0,6,0,desert_2,1,memory-2step-stake-s,498,2207408,0.0-19.0-0.0-0.2,AAURS65ZO4SXC,3QGHA0EA1MGR4GKNSEWY8BJ80SRWBM,3EQHHY4HQW8W4XB8216586TFQKL5GY,2,1
3,4,object_04,object_08,886.44000000041,7,1,451.43499999959,0.7777777777777778,1,object_05,5,66,0,7,0,restaurant_5,1,memory-2step-stake-s,499,2215784,0.0-19.0-0.0-0.3,AAURS65ZO4SXC,3QGHA0EA1MGR4GKNSEWY8BJ80SRWBM,3EQHHY4HQW8W4XB8216586TFQKL5GY,7,8
4,1,object_06,object_07,714.42500000028,2,1,331.74500000011,0.2222222222222222,2,object_10,1,68,0,6,2,desert_2,1,memory-2step-stake-s,500,2223534,0.0-19.0-0.0-0.4,AAURS65ZO4SXC,3QGHA0EA1MGR4GKNSEWY8BJ80SRWBM,3EQHHY4HQW8W4XB8216586TFQKL5GY,2,1
5,1,object_06,object_07,889.18500000006,2,1,353.81999999937,0.2222222222222222,2,object_10,1,70,0,7,2,desert_5,1,memory-2step-stake-s,501,2231303,0.0-19.0-0.0-0.5,AAURS65ZO4SXC,3QGHA0EA1MGR4GKNSEWY8BJ80SRWBM,3EQHHY4HQW8W4XB8216586TFQKL5GY,2,1
6,3,object_02,object_09,957.39500000048,5,1,283.31499999994,0.7777777777777778,1,object_05,5,105,0,7,1,library_3,1,memory-2step-stake-s,502,2239518,0.0-19.0-0.0-0.6,AAURS65ZO4SXC,3QGHA0EA1MGR4GKNSEWY8BJ80SRWBM,3EQHHY4HQW8W4XB8216586TFQKL5GY,5,6
7,1,object_06,object_07,742.21499999892,1,2,322.26500000013,0.8888888888888888,1,object_05,1,113,0,8,1,desert_7,1,memory-2step-stake-s,503,2247862,0.0-19.0-0.0-0.7,AAURS65ZO4SXC,3QGHA0EA1MGR4GKNSEWY8BJ80SRWBM,3EQHHY4HQW8W4XB8216586TFQKL5GY,2,1
8,4,object_04,object_08,621.45499999961,8,2,301.38999999966,0.1111111111111111,2,object_10,1,114,0,8,1,restaurant_5,1,memory-2step-stake-s,504,2255480,0.0-19.0-0.0-0.8,AAURS65ZO4SXC,3QGHA0EA1MGR4GKNSEWY8BJ80SRWBM,3EQHHY4HQW8W4XB8216586TFQKL5GY,7,8
9,3,object_02,object_09,868.71999999974,6,2,312.10999999987,0.0,2,object_10,1,114,0,9,0,library_5,1,memory-2step-stake-s,505,2263006,0.0-19.0-0.0-0.9,AAURS65ZO4SXC,3QGHA0EA1MGR4GKNSEWY8BJ80SRWBM,3EQHHY4HQW8W4XB8216586TFQKL5GY,5,6
10,2,object_01,object_03,791.2200000002,3,2,262.62000000011,0.6666666666666666,1,object_05,5,144,0,6,0,forest_3,1,memory-2step-stake-s,506,2271094,0.0-19.0-0.0-0.10,AAURS65ZO4SXC,3QGHA0EA1MGR4GKNSEWY8BJ80SRWBM,3EQHHY4HQW8W4XB8216586TFQKL5GY,4,3
11,4,object_04,object_08,813.12999999942,8,2,276.88000000035,0.0,2,object_10,5,144,0,5,0,restaurant_5,1,memory-2step-stake-s,507,2278583,0.0-19.0-0.0-0.11,AAURS65ZO4SXC,3QGHA0EA1MGR4GKNSEWY8BJ80SRWBM,3EQHHY4HQW8W4XB8216586TFQKL5GY,7,8
12,1,object_07,object_06,836.86499999929,1,1,249.14500000002,0.5555555555555556,1,object_05,1,149,0,5,1,desert_2,1,memory-2step-stake-s,508,2286552,0.0-19.0-0.0-0.12,AAURS65ZO4SXC,3QGHA0EA1MGR4GKNSEWY8BJ80SRWBM,3EQHHY4HQW8W4XB8216586TFQKL5GY,1,2
13,3,object_09,object_02,1174.835,6,1,334.21499999985,0.2222222222222222,2,object_10,5,159,0,5,2,library_5,1,memory-2step-stake-s,509,2294302,0.0-19.0-0.0-0.13,AAURS65ZO4SXC,3QGHA0EA1MGR4GKNSEWY8BJ80SRWBM,3EQHHY4HQW8W4XB8216586TFQKL5GY,6,5
14,4,object_04,object_08,790.54500000086,8,2,276.71000000043,0.1111111111111111,2,object_10,5,164,0,1,1,restaurant_1,1,memory-2step-stake-s,510,2301892,0.0-19.0-0.0-0.14,AAURS65ZO4SXC,3QGHA0EA1MGR4GKNSEWY8BJ80SRWBM,3EQHHY4HQW8W4XB8216586TFQKL5GY,7,8
15,4,object_04,object_08,1392.9900000002,7,1,335.8900000006,0.1111111111111111,1,object_05,5,169,0,1,1,restaurant_1,1,memory-2step-stake-s,511,2309543,0.0-19.0-0.0-0.15,AAURS65ZO4SXC,3QGHA0EA1MGR4GKNSEWY8BJ80SRWBM,3EQHHY4HQW8W4XB8216586TFQKL5GY,7,8
16,2,object_03,object_01,868.53499999968,4,2,279.73999999976,0.0,2,object_10,5,169,0,3,0,forest_7,1,memory-2step-stake-s,512,2317039,0.0-19.0-0.0-0.16,AAURS65ZO4SXC,3QGHA0EA1MGR4GKNSEWY8BJ80SRWBM,3EQHHY4HQW8W4XB8216586TFQKL5GY,3,4
17,3,object_02,object_09,1085.0599999996,6,2,263.97499999963,0.2222222222222222,2,object_10,5,179,0,3,2,library_6,1,memory-2step-stake-s,513,2324721,0.0-19.0-0.0-0.17,AAURS65ZO4SXC,3QGHA0EA1MGR4GKNSEWY8BJ80SRWBM,3EQHHY4HQW8W4XB8216586TFQKL5GY,5,6
18,4,object_04,object_08,892.00999999978,8,2,253.20500000007,0.1111111111111111,2,object_10,1,180,0,5,1,restaurant_6,1,memory-2step-stake-s,514,2332289,0.0-19.0-0.0-0.18,AAURS65ZO4SXC,3QGHA0EA1MGR4GKNSEWY8BJ80SRWBM,3EQHHY4HQW8W4XB8216586TFQKL5GY,7,8
19,3,object_02,object_09,1059.665,6,2,298.30499999924,0.1111111111111111,2,object_10,5,185,0,7,1,library_2,1,memory-2step-stake-s,515,2339905,0.0-19.0-0.0-0.19,AAURS65ZO4SXC,3QGHA0EA1MGR4GKNSEWY8BJ80SRWBM,3EQHHY4HQW8W4XB8216586TFQKL5GY,5,6
20,3,object_09,object_02,809.99999999953,6,1,285.99500000011,0.4444444444444444,2,object_10,5,205,0,5,4,library_5,1,memory-2step-stake-s,516,2347811,0.0-19.0-0.0-0.20,AAURS65ZO4SXC,3QGHA0EA1MGR4GKNSEWY8BJ80SRWBM,3EQHHY4HQW8W4XB8216586TFQKL5GY,6,5
21,2,object_01,object_03,1034.8199999998,4,1,275.52000000048,0.3333333333333333,2,object_10,1,208,0,3,3,forest_3,1,memory-2step-stake-s,517,2355602,0.0-19.0-0.0-0.21,AAURS65ZO4SXC,3QGHA0EA1MGR4GKNSEWY8BJ80SRWBM,3EQHHY4HQW8W4XB8216586TFQKL5GY,4,3
22,1,object_07,object_06,987.18000000017,1,1,258.93499999959,0.3333333333333333,1,object_05,1,211,0,3,2,desert_5,1,memory-2step-stake-s,518,2363376,0.0-19.0-0.0-0.22,AAURS65ZO4SXC,3QGHA0EA1MGR4GKNSEWY8BJ80SRWBM,3EQHHY4HQW8W4XB8216586TFQKL5GY,1,2
23,1,object_07,object_06,838.84499999927,2,2,510.61000000034,0.1111111111111111,2,object_10,1,212,0,2,1,desert_1,1,memory-2step-stake-s,519,2371201,0.0-19.0-0.0-0.23,AAURS65ZO4SXC,3QGHA0EA1MGR4GKNSEWY8BJ80SRWBM,3EQHHY4HQW8W4XB8216586TFQKL5GY,1,2
24,1,object_06,object_07,691.15000000084,1,2,445.26999999955,0.3333333333333333,1,object_05,1,215,0,3,6,desert_7,1,memory-2step-stake-s,520,2379169,0.0-19.0-0.0-0.24,AAURS65ZO4SXC,3QGHA0EA1MGR4GKNSEWY8BJ80SRWBM,3EQHHY4HQW8W4XB8216586TFQKL5GY,2,1
25,2,object_03,object_01,1185.6949999998,3,1,299.32999999961,0.2222222222222222,1,object_05,5,225,0,2,7,forest_4,1,memory-2step-stake-s,521,2386886,0.0-19.0-0.0-0.25,AAURS65ZO4SXC,3QGHA0EA1MGR4GKNSEWY8BJ80SRWBM,3EQHHY4HQW8W4XB8216586TFQKL5GY,3,4
26,1,object_07,object_06,782.64499999955,2,2,293.95999999996,0.7777777777777778,2,object_10,1,232,0,3,7,desert_5,1,memory-2step-stake-s,522,2395101,0.0-19.0-0.0-0.26,AAURS65ZO4SXC,3QGHA0EA1MGR4GKNSEWY8BJ80SRWBM,3EQHHY4HQW8W4XB8216586TFQKL5GY,1,2
27,3,object_02,object_09,1007.5050000004,5,1,249.8450000002,0.0,1,object_05,1,232,0,0,6,library_2,1,memory-2step-stake-s,523,2402565,0.0-19.0-0.0-0.27,AAURS65ZO4SXC,3QGHA0EA1MGR4GKNSEWY8BJ80SRWBM,3EQHHY4HQW8W4XB8216586TFQKL5GY,5,6
28,3,object_02,object_09,422.2649999992,5,1,310.625,0.2222222222222222,1,object_05,5,242,0,2,3,library_2,1,memory-2step-stake-s,524,2410292,0.0-19.0-0.0-0.28,AAURS65ZO4SXC,3QGHA0EA1MGR4GKNSEWY8BJ80SRWBM,3EQHHY4HQW8W4XB8216586TFQKL5GY,5,6
29,1,object_07,object_06,745.53500000015,2,2,297.32499999925,0.3333333333333333,2,object_10,5,257,0,0,3,desert_5,1,memory-2step-stake-s,525,2418108,0.0-19.0-0.0-0.29,AAURS65ZO4SXC,3QGHA0EA1MGR4GKNSEWY8BJ80SRWBM,3EQHHY4HQW8W4XB8216586TFQKL5GY,1,2
30,2,object_01,object_03,727.9049999998,3,2,299.75999999978,0.1111111111111111,1,object_05,1,258,0,1,2,forest_3,1,memory-2step-stake-s,526,2425726,0.0-19.0-0.0-0.30,AAURS65ZO4SXC,3QGHA0EA1MGR4GKNSEWY8BJ80SRWBM,3EQHHY4HQW8W4XB8216586TFQKL5GY,4,3
31,4,object_08,object_04,1037.8700000001,8,1,234.0549999997,0.4444444444444444,2,object_10,5,278,0,0,4,restaurant_5,1,memory-2step-stake-s,527,2433579,0.0-19.0-0.0-0.31,AAURS65ZO4SXC,3QGHA0EA1MGR4GKNSEWY8BJ80SRWBM,3EQHHY4HQW8W4XB8216586TFQKL5GY,8,7
32,3,object_09,object_02,884.0549999997,6,1,113.81999999983,0.5555555555555556,2,object_10,5,303,0,3,5,library_5,1,memory-2step-stake-s,528,2441412,0.0-19.0-0.0-0.32,AAURS65ZO4SXC,3QGHA0EA1MGR4GKNSEWY8BJ80SRWBM,3EQHHY4HQW8W4XB8216586TFQKL5GY,6,5
33,1,object_07,object_06,865.60499999998,1,1,301.72999999998,0.5555555555555556,1,object_05,1,308,0,5,6,desert_1,1,memory-2step-stake-s,529,2449432,0.0-19.0-0.0-0.33,AAURS65ZO4SXC,3QGHA0EA1MGR4GKNSEWY8BJ80SRWBM,3EQHHY4HQW8W4XB8216586TFQKL5GY,1,2
34,3,object_02,object_09,1010.1299999999,6,2,230.95999999996,1.0,2,object_10,5,353,0,6,9,library_2,1,memory-2step-stake-s,530,2457785,0.0-19.0-0.0-0.34,AAURS65ZO4SXC,3QGHA0EA1MGR4GKNSEWY8BJ80SRWBM,3EQHHY4HQW8W4XB8216586TFQKL5GY,5,6
35,2,object_01,object_03,927.87499999907,3,2,211.48499999987,0.6666666666666666,1,object_05,1,359,0,6,8,forest_5,1,memory-2step-stake-s,531,2465819,0.0-19.0-0.0-0.35,AAURS65ZO4SXC,3QGHA0EA1MGR4GKNSEWY8BJ80SRWBM,3EQHHY4HQW8W4XB8216586TFQKL5GY,4,3
36,1,object_06,object_07,1327.9050000003,2,1,318.5549999997,0.8888888888888888,2,object_10,5,399,0,7,8,desert_1,1,memory-2step-stake-s,532,2474159,0.0-19.0-0.0-0.36,AAURS65ZO4SXC,3QGHA0EA1MGR4GKNSEWY8BJ80SRWBM,3EQHHY4HQW8W4XB8216586TFQKL5GY,2,1
37,1,object_06,object_07,876.51500000013,2,1,306.12999999989,0.7777777777777778,2,object_10,1,406,0,8,7,desert_5,1,memory-2step-stake-s,533,2482384,0.0-19.0-0.0-0.37,AAURS65ZO4SXC,3QGHA0EA1MGR4GKNSEWY8BJ80SRWBM,3EQHHY4HQW8W4XB8216586TFQKL5GY,2,1
38,2,object_03,object_01,1170.9450000008,3,1,303.70000000019,0.7777777777777778,1,object_05,1,413,0,7,9,forest_7,1,memory-2step-stake-s,534,2490608,0.0-19.0-0.0-0.38,AAURS65ZO4SXC,3QGHA0EA1MGR4GKNSEWY8BJ80SRWBM,3EQHHY4HQW8W4XB8216586TFQKL5GY,3,4
39,4,object_04,object_08,1445.4400000004,8,2,630.0950000002,0.7777777777777778,2,object_10,5,448,0,7,7,restaurant_5,1,memory-2step-stake-s,535,2499160,0.0-19.0-0.0-0.39,AAURS65ZO4SXC,3QGHA0EA1MGR4GKNSEWY8BJ80SRWBM,3EQHHY4HQW8W4XB8216586TFQKL5GY,7,8
40,4,object_08,object_04,784.34499999974,8,1,353.87999999989,0.6666666666666666,2,object_10,5,478,0,5,6,restaurant_1,1,memory-2step-stake-s,536,2507334,0.0-19.0-0.0-0.40,AAURS65ZO4SXC,3QGHA0EA1MGR4GKNSEWY8BJ80SRWBM,3EQHHY4HQW8W4XB8216586TFQKL5GY,8,7
41,1,object_06,object_07,994.79000000004,2,1,319.27499999991,0.3333333333333333,2,object_10,1,481,0,3,3,desert_7,1,memory-2step-stake-s,537,2515171,0.0-19.0-0.0-0.41,AAURS65ZO4SXC,3QGHA0EA1MGR4GKNSEWY8BJ80SRWBM,3EQHHY4HQW8W4XB8216586TFQKL5GY,2,1
42,2,object_01,object_03,823.6400000006,3,2,283.29999999981,0.3333333333333333,1,object_05,5,496,0,3,1,forest_3,1,memory-2step-stake-s,538,2522970,0.0-19.0-0.0-0.42,AAURS65ZO4SXC,3QGHA0EA1MGR4GKNSEWY8BJ80SRWBM,3EQHHY4HQW8W4XB8216586TFQKL5GY,4,3
43,4,object_04,object_08,736.83499999996,8,2,283.80999999959,0.3333333333333333,2,object_10,5,511,0,3,3,restaurant_7,1,memory-2step-stake-s,539,2530770,0.0-19.0-0.0-0.43,AAURS65ZO4SXC,3QGHA0EA1MGR4GKNSEWY8BJ80SRWBM,3EQHHY4HQW8W4XB8216586TFQKL5GY,7,8
44,2,object_01,object_03,603.1549999998,3,2,273.55000000028,0.4444444444444444,1,object_05,1,515,0,4,4,forest_5,1,memory-2step-stake-s,540,2538661,0.0-19.0-0.0-0.44,AAURS65ZO4SXC,3QGHA0EA1MGR4GKNSEWY8BJ80SRWBM,3EQHHY4HQW8W4XB8216586TFQKL5GY,4,3
45,1,object_06,object_07,710.375,2,1,230.60000000009,0.5555555555555556,2,object_10,1,520,0,6,5,desert_7,1,memory-2step-stake-s,541,2546610,0.0-19.0-0.0-0.45,AAURS65ZO4SXC,3QGHA0EA1MGR4GKNSEWY8BJ80SRWBM,3EQHHY4HQW8W4XB8216586TFQKL5GY,2,1
46,3,object_09,object_02,854.625,6,1,243.33499999996,0.8888888888888888,2,object_10,5,560,0,0,8,library_2,1,memory-2step-stake-s,542,2554878,0.0-19.0-0.0-0.46,AAURS65ZO4SXC,3QGHA0EA1MGR4GKNSEWY8BJ80SRWBM,3EQHHY4HQW8W4XB8216586TFQKL5GY,6,5
47,3,object_02,object_09,849.78000000026,6,2,262.46999999974,0.7777777777777778,2,object_10,5,595,0,5,7,library_3,1,memory-2step-stake-s,543,2563061,0.0-19.0-0.0-0.47,AAURS65ZO4SXC,3QGHA0EA1MGR4GKNSEWY8BJ80SRWBM,3EQHHY4HQW8W4XB8216586TFQKL5GY,5,6
48,4,object_04,object_08,750.50999999978,8,2,282.7799999998,0.4444444444444444,2,object_10,5,615,0,7,4,restaurant_7,1,memory-2step-stake-s,544,2570962,0.0-19.0-0.0-0.48,AAURS65ZO4SXC,3QGHA0EA1MGR4GKNSEWY8BJ80SRWBM,3EQHHY4HQW8W4XB8216586TFQKL5GY,7,8
49,1,object_06,object_07,673.02000000002,2,1,401.60499999998,0.4444444444444444,2,object_10,1,619,0,7,4,desert_1,1,memory-2step-stake-s,545,2578979,0.0-19.0-0.0-0.49,AAURS65ZO4SXC,3QGHA0EA1MGR4GKNSEWY8BJ80SRWBM,3EQHHY4HQW8W4XB8216586TFQKL5GY,2,1
50,2,object_01,object_03,688.57999999961,3,2,300.18999999994,1.0,1,object_05,1,628,0,9,9,forest_7,1,memory-2step-stake-s,546,2587400,0.0-19.0-0.0-0.50,AAURS65ZO4SXC,3QGHA0EA1MGR4GKNSEWY8BJ80SRWBM,3EQHHY4HQW8W4XB8216586TFQKL5GY,4,3
51,3,object_02,object_09,871.3899999992,6,2,311.34000000032,0.7777777777777778,2,object_10,5,663,0,8,7,library_2,1,memory-2step-stake-s,547,2595631,0.0-19.0-0.0-0.51,AAURS65ZO4SXC,3QGHA0EA1MGR4GKNSEWY8BJ80SRWBM,3EQHHY4HQW8W4XB8216586TFQKL5GY,5,6
52,4,object_04,object_08,488.37999999942,8,2,266.35499999952,0.5555555555555556,2,object_10,5,688,0,7,5,restaurant_6,1,memory-2step-stake-s,548,2603618,0.0-19.0-0.0-0.52,AAURS65ZO4SXC,3QGHA0EA1MGR4GKNSEWY8BJ80SRWBM,3EQHHY4HQW8W4XB8216586TFQKL5GY,7,8
53,1,object_06,object_07,914.4049999998,2,1,304.92499999935,0.8888888888888888,2,object_10,5,728,0,9,8,desert_1,1,memory-2step-stake-s,549,2611944,0.0-19.0-0.0-0.53,AAURS65ZO4SXC,3QGHA0EA1MGR4GKNSEWY8BJ80SRWBM,3EQHHY4HQW8W4XB8216586TFQKL5GY,2,1
54,1,object_07,object_06,615.86499999976,2,2,232.9150000005,0.5555555555555556,2,object_10,1,733,0,4,5,desert_7,1,memory-2step-stake-s,550,2619897,0.0-19.0-0.0-0.54,AAURS65ZO4SXC,3QGHA0EA1MGR4GKNSEWY8BJ80SRWBM,3EQHHY4HQW8W4XB8216586TFQKL5GY,1,2
55,2,object_01,object_03,720.37000000011,3,2,575.5849999995,0.1111111111111111,1,object_05,1,734,0,1,4,forest_4,1,memory-2step-stake-s,551,2627787,0.0-19.0-0.0-0.55,AAURS65ZO4SXC,3QGHA0EA1MGR4GKNSEWY8BJ80SRWBM,3EQHHY4HQW8W4XB8216586TFQKL5GY,4,3
56,1,object_07,object_06,624.30500000017,2,2,308.80500000063,0.1111111111111111,2,object_10,1,735,0,2,1,desert_1,1,memory-2step-stake-s,552,2635411,0.0-19.0-0.0-0.56,AAURS65ZO4SXC,3QGHA0EA1MGR4GKNSEWY8BJ80SRWBM,3EQHHY4HQW8W4XB8216586TFQKL5GY,1,2
57,3,object_02,object_09,757.33500000043,6,2,231.54499999993,0.2222222222222222,2,object_10,5,745,0,0,2,library_5,1,memory-2step-stake-s,553,2643057,0.0-19.0-0.0-0.57,AAURS65ZO4SXC,3QGHA0EA1MGR4GKNSEWY8BJ80SRWBM,3EQHHY4HQW8W4XB8216586TFQKL5GY,5,6
58,2,object_01,object_03,690.28499999968,3,2,198.14999999991,0.0,1,object_05,1,745,0,0,4,forest_3,1,memory-2step-stake-s,554,2650471,0.0-19.0-0.0-0.58,AAURS65ZO4SXC,3QGHA0EA1MGR4GKNSEWY8BJ80SRWBM,3EQHHY4HQW8W4XB8216586TFQKL5GY,4,3
59,1,object_06,object_07,822.27500000037,1,2,197.48499999987,0.2222222222222222,1,object_05,1,747,0,2,4,desert_5,1,memory-2step-stake-s,555,2658084,0.0-19.0-0.0-0.59,AAURS65ZO4SXC,3QGHA0EA1MGR4GKNSEWY8BJ80SRWBM,3EQHHY4HQW8W4XB8216586TFQKL5GY,2,1
60,4,object_08,object_04,1192.8650000002,7,2,232.3450000002,0.3333333333333333,1,object_05,5,762,0,3,2,restaurant_7,1,memory-2step-stake-s,556,2665832,0.0-19.0-0.0-0.60,AAURS65ZO4SXC,3QGHA0EA1MGR4GKNSEWY8BJ80SRWBM,3EQHHY4HQW8W4XB8216586TFQKL5GY,8,7
61,2,object_01,object_03,1051.2100000004,4,1,242.8900000006,0.0,2,object_10,1,762,0,2,0,forest_7,1,memory-2step-stake-s,557,2673288,0.0-19.0-0.0-0.61,AAURS65ZO4SXC,3QGHA0EA1MGR4GKNSEWY8BJ80SRWBM,3EQHHY4HQW8W4XB8216586TFQKL5GY,4,3
62,2,object_01,object_03,755.42999999924,3,2,210.68999999994,0.0,1,object_05,1,762,0,0,1,forest_3,1,memory-2step-stake-s,558,2680714,0.0-19.0-0.0-0.62,AAURS65ZO4SXC,3QGHA0EA1MGR4GKNSEWY8BJ80SRWBM,3EQHHY4HQW8W4XB8216586TFQKL5GY,4,3
63,3,object_09,object_02,844.18000000017,5,2,200.66999999993,0.3333333333333333,1,object_05,5,777,0,3,2,library_6,1,memory-2step-stake-s,559,2688430,0.0-19.0-0.0-0.63,AAURS65ZO4SXC,3QGHA0EA1MGR4GKNSEWY8BJ80SRWBM,3EQHHY4HQW8W4XB8216586TFQKL5GY,6,5
64,3,object_02,object_09,762.17499999981,5,1,591.14499999955,0.3333333333333333,1,object_05,5,792,0,3,3,library_2,1,memory-2step-stake-s,560,2696539,0.0-19.0-0.0-0.64,AAURS65ZO4SXC,3QGHA0EA1MGR4GKNSEWY8BJ80SRWBM,3EQHHY4HQW8W4XB8216586TFQKL5GY,5,6
65,3,object_09,object_02,641.49499999965,6,1,254.34000000078,0.3333333333333333,2,object_10,5,807,0,1,3,library_6,1,memory-2step-stake-s,561,2704314,0.0-19.0-0.0-0.65,AAURS65ZO4SXC,3QGHA0EA1MGR4GKNSEWY8BJ80SRWBM,3EQHHY4HQW8W4XB8216586TFQKL5GY,6,5
66,1,object_07,object_06,1480.0300000007,1,1,311.30000000028,0.2222222222222222,1,object_05,1,809,0,2,1,desert_2,1,memory-2step-stake-s,562,2712040,0.0-19.0-0.0-0.66,AAURS65ZO4SXC,3QGHA0EA1MGR4GKNSEWY8BJ80SRWBM,3EQHHY4HQW8W4XB8216586TFQKL5GY,1,2
67,2,object_03,object_01,1116.8999999999,4,2,222.25999999978,0.0,2,object_10,1,809,0,1,0,forest_4,1,memory-2step-stake-s,563,2719480,0.0-19.0-0.0-0.67,AAURS65ZO4SXC,3QGHA0EA1MGR4GKNSEWY8BJ80SRWBM,3EQHHY4HQW8W4XB8216586TFQKL5GY,3,4
68,3,object_09,object_02,975.84999999963,6,1,207.5849999995,0.3333333333333333,2,object_10,5,824,0,1,3,library_3,1,memory-2step-stake-s,564,2727207,0.0-19.0-0.0-0.68,AAURS65ZO4SXC,3QGHA0EA1MGR4GKNSEWY8BJ80SRWBM,3EQHHY4HQW8W4XB8216586TFQKL5GY,6,5
69,4,object_08,object_04,1270.625,8,1,289.21999999974,0.4444444444444444,2,object_10,5,844,0,5,4,restaurant_7,1,memory-2step-stake-s,565,2735114,0.0-19.0-0.0-0.69,AAURS65ZO4SXC,3QGHA0EA1MGR4GKNSEWY8BJ80SRWBM,3EQHHY4HQW8W4XB8216586TFQKL5GY,8,7
70,1,object_06,object_07,1083.3899999997,2,1,248.81499999994,0.2222222222222222,2,object_10,1,846,0,5,2,desert_1,1,memory-2step-stake-s,566,2742777,0.0-19.0-0.0-0.70,AAURS65ZO4SXC,3QGHA0EA1MGR4GKNSEWY8BJ80SRWBM,3EQHHY4HQW8W4XB8216586TFQKL5GY,2,1
71,4,object_08,object_04,1354.5549999997,7,2,300.38000000082,0.3333333333333333,1,object_05,5,861,0,3,2,restaurant_1,1,memory-2step-stake-s,567,2750594,0.0-19.0-0.0-0.71,AAURS65ZO4SXC,3QGHA0EA1MGR4GKNSEWY8BJ80SRWBM,3EQHHY4HQW8W4XB8216586TFQKL5GY,8,7
72,1,object_07,object_06,890.46000000043,2,2,331.14000000013,0.5555555555555556,2,object_10,1,866,0,1,5,desert_5,1,memory-2step-stake-s,568,2758644,0.0-19.0-0.0-0.72,AAURS65ZO4SXC,3QGHA0EA1MGR4GKNSEWY8BJ80SRWBM,3EQHHY4HQW8W4XB8216586TFQKL5GY,1,2
73,2,object_03,object_01,1283.23,3,1,234.3900000006,0.1111111111111111,1,object_05,1,867,0,1,3,forest_3,1,memory-2step-stake-s,569,2766192,0.0-19.0-0.0-0.73,AAURS65ZO4SXC,3QGHA0EA1MGR4GKNSEWY8BJ80SRWBM,3EQHHY4HQW8W4XB8216586TFQKL5GY,3,4
74,4,object_08,object_04,1051.6800000002,8,1,213.29499999946,0.4444444444444444,2,object_10,1,871,0,0,4,restaurant_6,1,memory-2step-stake-s,570,2774025,0.0-19.0-0.0-0.74,AAURS65ZO4SXC,3QGHA0EA1MGR4GKNSEWY8BJ80SRWBM,3EQHHY4HQW8W4XB8216586TFQKL5GY,8,7
75,4,object_04,object_08,1392.6549999993,8,2,226.03499999968,0.4444444444444444,2,object_10,5,891,0,2,4,restaurant_5,1,memory-2step-stake-s,571,2781872,0.0-19.0-0.0-0.75,AAURS65ZO4SXC,3QGHA0EA1MGR4GKNSEWY8BJ80SRWBM,3EQHHY4HQW8W4XB8216586TFQKL5GY,7,8
76,4,object_04,object_08,1015.3849999998,7,1,246.46999999974,0.1111111111111111,1,object_05,5,896,0,1,9,restaurant_6,1,memory-2step-stake-s,572,2789434,0.0-19.0-0.0-0.76,AAURS65ZO4SXC,3QGHA0EA1MGR4GKNSEWY8BJ80SRWBM,3EQHHY4HQW8W4XB8216586TFQKL5GY,7,8
77,2,object_01,object_03,1042.8200000003,3,2,100.31500000041,0.1111111111111111,1,object_05,1,897,0,1,5,forest_5,1,memory-2step-stake-s,573,2796851,0.0-19.0-0.0-0.77,AAURS65ZO4SXC,3QGHA0EA1MGR4GKNSEWY8BJ80SRWBM,3EQHHY4HQW8W4XB8216586TFQKL5GY,4,3
78,4,object_08,object_04,1442.8449999997,7,2,271.16999999993,0.4444444444444444,1,object_05,5,917,0,4,4,restaurant_6,1,memory-2step-stake-s,574,2804739,0.0-19.0-0.0-0.78,AAURS65ZO4SXC,3QGHA0EA1MGR4GKNSEWY8BJ80SRWBM,3EQHHY4HQW8W4XB8216586TFQKL5GY,8,7
79,4,object_04,object_08,1338.1300000004,7,1,252.15000000037,0.4444444444444444,1,object_05,5,937,0,4,3,restaurant_6,1,memory-2step-stake-s,575,2812614,0.0-19.0-0.0-0.79,AAURS65ZO4SXC,3QGHA0EA1MGR4GKNSEWY8BJ80SRWBM,3EQHHY4HQW8W4XB8216586TFQKL5GY,7,8
80,2,object_03,object_01,997.61500000022,4,2,266.59999999963,0.6666666666666666,2,object_10,1,943,0,2,6,forest_7,1,memory-2step-stake-s,576,2820700,0.0-19.0-0.0-0.80,AAURS65ZO4SXC,3QGHA0EA1MGR4GKNSEWY8BJ80SRWBM,3EQHHY4HQW8W4XB8216586TFQKL5GY,3,4
81,3,object_09,object_02,1256.7749999999,5,2,247.40000000037,0.3333333333333333,1,object_05,5,958,0,3,8,library_6,1,memory-2step-stake-s,577,2828464,0.0-19.0-0.0-0.81,AAURS65ZO4SXC,3QGHA0EA1MGR4GKNSEWY8BJ80SRWBM,3EQHHY4HQW8W4XB8216586TFQKL5GY,6,5
82,2,object_01,object_03,622.06999999937,3,2,247.12999999989,0.6666666666666666,1,object_05,1,964,0,6,3,forest_4,1,memory-2step-stake-s,578,2836527,0.0-19.0-0.0-0.82,AAURS65ZO4SXC,3QGHA0EA1MGR4GKNSEWY8BJ80SRWBM,3EQHHY4HQW8W4XB8216586TFQKL5GY,4,3
83,4,object_08,object_04,760.40999999968,8,1,209.93999999948,0.3333333333333333,2,object_10,1,967,0,5,3,restaurant_5,1,memory-2step-stake-s,579,2844255,0.0-19.0-0.0-0.83,AAURS65ZO4SXC,3QGHA0EA1MGR4GKNSEWY8BJ80SRWBM,3EQHHY4HQW8W4XB8216586TFQKL5GY,8,7
84,2,object_03,object_01,1018.8999999999,4,2,274.79499999946,0.1111111111111111,2,object_10,1,968,0,4,1,forest_4,1,memory-2step-stake-s,580,2851846,0.0-19.0-0.0-0.84,AAURS65ZO4SXC,3QGHA0EA1MGR4GKNSEWY8BJ80SRWBM,3EQHHY4HQW8W4XB8216586TFQKL5GY,3,4
85,1,object_06,object_07,873.35500000091,2,1,288.27000000002,0.2222222222222222,2,object_10,1,970,0,2,2,desert_1,1,memory-2step-stake-s,581,2859550,0.0-19.0-0.0-0.85,AAURS65ZO4SXC,3QGHA0EA1MGR4GKNSEWY8BJ80SRWBM,3EQHHY4HQW8W4XB8216586TFQKL5GY,2,1
86,3,object_02,object_09,1387.8450000002,5,1,292.14499999955,0.3333333333333333,1,object_05,5,985,0,3,4,library_2,1,memory-2step-stake-s,582,2867360,0.0-19.0-0.0-0.86,AAURS65ZO4SXC,3QGHA0EA1MGR4GKNSEWY8BJ80SRWBM,3EQHHY4HQW8W4XB8216586TFQKL5GY,5,6
87,4,object_08,object_04,1051.1099999994,8,1,358.82500000019,0.7777777777777778,2,object_10,5,1020,0,4,7,restaurant_6,1,memory-2step-stake-s,583,2875641,0.0-19.0-0.0-0.87,AAURS65ZO4SXC,3QGHA0EA1MGR4GKNSEWY8BJ80SRWBM,3EQHHY4HQW8W4XB8216586TFQKL5GY,8,7
88,2,object_01,object_03,1002.5549999997,3,2,268.62000000011,0.1111111111111111,1,object_05,5,1025,0,1,6,forest_4,1,memory-2step-stake-s,584,2883224,0.0-19.0-0.0-0.88,AAURS65ZO4SXC,3QGHA0EA1MGR4GKNSEWY8BJ80SRWBM,3EQHHY4HQW8W4XB8216586TFQKL5GY,4,3
89,1,object_06,object_07,1123.5249999999,1,2,277.85499999952,0.5555555555555556,1,object_05,5,1050,0,5,7,desert_7,1,memory-2step-stake-s,585,2891218,0.0-19.0-0.0-0.89,AAURS65ZO4SXC,3QGHA0EA1MGR4GKNSEWY8BJ80SRWBM,3EQHHY4HQW8W4XB8216586TFQKL5GY,2,1
90,2,object_03,object_01,990.70000000019,4,2,278.22500000009,0.5555555555555556,2,object_10,5,1075,0,4,5,forest_4,1,memory-2step-stake-s,586,2899217,0.0-19.0-0.0-0.90,AAURS65ZO4SXC,3QGHA0EA1MGR4GKNSEWY8BJ80SRWBM,3EQHHY4HQW8W4XB8216586TFQKL5GY,3,4
91,4,object_04,object_08,1110.875,7,1,272.46999999974,0.4444444444444444,1,object_05,1,1079,0,4,4,restaurant_1,1,memory-2step-stake-s,587,2907107,0.0-19.0-0.0-0.91,AAURS65ZO4SXC,3QGHA0EA1MGR4GKNSEWY8BJ80SRWBM,3EQHHY4HQW8W4XB8216586TFQKL5GY,7,8
92,1,object_07,object_06,996.83000000007,2,2,911.38500000024,0.3333333333333333,2,object_10,1,1082,0,0,3,desert_5,1,memory-2step-stake-s,588,2915538,0.0-19.0-0.0-0.92,AAURS65ZO4SXC,3QGHA0EA1MGR4GKNSEWY8BJ80SRWBM,3EQHHY4HQW8W4XB8216586TFQKL5GY,1,2
93,2,object_01,object_03,933.46499999939,4,1,461.4599999995,0.5555555555555556,2,object_10,1,1087,0,0,5,forest_5,1,memory-2step-stake-s,589,2923719,0.0-19.0-0.0-0.93,AAURS65ZO4SXC,3QGHA0EA1MGR4GKNSEWY8BJ80SRWBM,3EQHHY4HQW8W4XB8216586TFQKL5GY,4,3
94,4,object_04,object_08,931.70000000019,8,2,230.50499999989,0.8888888888888888,2,object_10,5,1127,0,4,8,restaurant_7,1,memory-2step-stake-s,590,2931972,0.0-19.0-0.0-0.94,AAURS65ZO4SXC,3QGHA0EA1MGR4GKNSEWY8BJ80SRWBM,3EQHHY4HQW8W4XB8216586TFQKL5GY,7,8
95,2,object_03,object_01,865.89999999991,4,2,165.625,0.7777777777777778,2,object_10,1,1134,0,2,7,forest_3,1,memory-2step-stake-s,591,2940058,0.0-19.0-0.0-0.95,AAURS65ZO4SXC,3QGHA0EA1MGR4GKNSEWY8BJ80SRWBM,3EQHHY4HQW8W4XB8216586TFQKL5GY,3,4
96,4,object_04,object_08,1238.7799999998,7,1,238.58000000007,0.3333333333333333,1,object_05,5,1149,0,3,8,restaurant_7,1,memory-2step-stake-s,592,2947814,0.0-19.0-0.0-0.96,AAURS65ZO4SXC,3QGHA0EA1MGR4GKNSEWY8BJ80SRWBM,3EQHHY4HQW8W4XB8216586TFQKL5GY,7,8
97,2,object_03,object_01,936.51000000024,4,2,550.83499999996,0.8888888888888888,2,object_10,1,1157,0,3,8,forest_5,1,memory-2step-stake-s,593,2956386,0.0-19.0-0.0-0.97,AAURS65ZO4SXC,3QGHA0EA1MGR4GKNSEWY8BJ80SRWBM,3EQHHY4HQW8W4XB8216586TFQKL5GY,3,4
98,3,object_09,object_02,868.28999999957,5,2,244.09000000032,0.1111111111111111,1,object_05,1,1158,0,1,8,library_5,1,memory-2step-stake-s,594,2963945,0.0-19.0-0.0-0.98,AAURS65ZO4SXC,3QGHA0EA1MGR4GKNSEWY8BJ80SRWBM,3EQHHY4HQW8W4XB8216586TFQKL5GY,6,5
99,1,object_06,object_07,948.61500000022,1,2,250.52500000037,0.1111111111111111,1,object_05,1,1159,0,1,7,desert_2,1,memory-2step-stake-s,595,2971511,0.0-19.0-0.0-0.99,AAURS65ZO4SXC,3QGHA0EA1MGR4GKNSEWY8BJ80SRWBM,3EQHHY4HQW8W4XB8216586TFQKL5GY,2,1
100,4,object_04,object_08,921.96999999927,8,2,300.40000000037,0.5555555555555556,2,object_10,5,1184,0,2,5,restaurant_7,1,memory-2step-stake-s,596,2979530,0.0-19.0-0.0-0.100,AAURS65ZO4SXC,3QGHA0EA1MGR4GKNSEWY8BJ80SRWBM,3EQHHY4HQW8W4XB8216586TFQKL5GY,7,8
101,3,object_09,object_02,800.88500000024,6,1,272.73500000034,0.5555555555555556,2,object_10,5,1209,0,3,5,library_2,1,memory-2step-stake-s,597,2987522,0.0-19.0-0.0-0.101,AAURS65ZO4SXC,3QGHA0EA1MGR4GKNSEWY8BJ80SRWBM,3EQHHY4HQW8W4XB8216586TFQKL5GY,6,5
102,2,object_01,object_03,1259.79,3,2,760.89500000002,0.6666666666666666,1,object_05,1,1215,0,6,2,forest_4,1,memory-2step-stake-s,598,2996102,0.0-19.0-0.0-0.102,AAURS65ZO4SXC,3QGHA0EA1MGR4GKNSEWY8BJ80SRWBM,3EQHHY4HQW8W4XB8216586TFQKL5GY,4,3
103,3,object_09,object_02,717.3450000002,6,1,407.93999999994,0.3333333333333333,2,object_10,1,1218,0,8,3,library_3,1,memory-2step-stake-s,599,3004026,0.0-19.0-0.0-0.103,AAURS65ZO4SXC,3QGHA0EA1MGR4GKNSEWY8BJ80SRWBM,3EQHHY4HQW8W4XB8216586TFQKL5GY,6,5
104,2,object_01,object_03,991.66499999957,4,1,180.5400000005,0.5555555555555556,2,object_10,1,1223,0,6,5,forest_7,1,memory-2step-stake-s,600,3011929,0.0-19.0-0.0-0.104,AAURS65ZO4SXC,3QGHA0EA1MGR4GKNSEWY8BJ80SRWBM,3EQHHY4HQW8W4XB8216586TFQKL5GY,4,3
105,1,object_07,object_06,1199.9349999996,2,2,279.84999999963,1.0,2,object_10,1,1232,0,7,9,desert_7,1,memory-2step-stake-s,601,3020331,0.0-19.0-0.0-0.105,AAURS65ZO4SXC,3QGHA0EA1MGR4GKNSEWY8BJ80SRWBM,3EQHHY4HQW8W4XB8216586TFQKL5GY,1,2
106,4,object_08,object_04,917.14999999944,8,1,307.96499999985,0.6666666666666666,2,object_10,5,1262,0,8,6,restaurant_1,1,memory-2step-stake-s,602,3028469,0.0-19.0-0.0-0.106,AAURS65ZO4SXC,3QGHA0EA1MGR4GKNSEWY8BJ80SRWBM,3EQHHY4HQW8W4XB8216586TFQKL5GY,8,7
107,1,object_06,object_07,1024.5799999996,2,1,275.24999999953,0.5555555555555556,2,object_10,1,1267,0,7,5,desert_5,1,memory-2step-stake-s,603,3036463,0.0-19.0-0.0-0.107,AAURS65ZO4SXC,3QGHA0EA1MGR4GKNSEWY8BJ80SRWBM,3EQHHY4HQW8W4XB8216586TFQKL5GY,2,1
108,1,object_06,object_07,1010.3249999997,2,1,315.0299999998,0.4444444444444444,2,object_10,1,1271,0,5,4,desert_7,1,memory-2step-stake-s,604,3044395,0.0-19.0-0.0-0.108,AAURS65ZO4SXC,3QGHA0EA1MGR4GKNSEWY8BJ80SRWBM,3EQHHY4HQW8W4XB8216586TFQKL5GY,2,1
109,3,object_09,object_02,767.16999999993,6,1,316.85000000009,0.3333333333333333,2,object_10,5,1286,0,5,3,library_3,1,memory-2step-stake-s,605,3052230,0.0-19.0-0.0-0.109,AAURS65ZO4SXC,3QGHA0EA1MGR4GKNSEWY8BJ80SRWBM,3EQHHY4HQW8W4XB8216586TFQKL5GY,6,5
110,2,object_01,object_03,966.59499999974,3,2,342.94500000076,0.8888888888888888,1,object_05,5,1326,0,8,2,forest_5,1,memory-2step-stake-s,606,3060595,0.0-19.0-0.0-0.110,AAURS65ZO4SXC,3QGHA0EA1MGR4GKNSEWY8BJ80SRWBM,3EQHHY4HQW8W4XB8216586TFQKL5GY,4,3
111,4,object_08,object_04,841.51500000013,8,1,284.35499999998,0.1111111111111111,2,object_10,5,1331,0,6,1,restaurant_6,1,memory-2step-stake-s,607,3068193,0.0-19.0-0.0-0.111,AAURS65ZO4SXC,3QGHA0EA1MGR4GKNSEWY8BJ80SRWBM,3EQHHY4HQW8W4XB8216586TFQKL5GY,8,7
112,2,object_03,object_01,1458.5749999997,4,2,325.89500000002,0.2222222222222222,2,object_10,1,1333,0,8,2,forest_3,1,memory-2step-stake-s,608,3075936,0.0-19.0-0.0-0.112,AAURS65ZO4SXC,3QGHA0EA1MGR4GKNSEWY8BJ80SRWBM,3EQHHY4HQW8W4XB8216586TFQKL5GY,3,4
113,3,object_02,object_09,1347.8049999992,5,1,334.91000000061,0.5555555555555556,1,object_05,5,1358,0,5,5,library_5,1,memory-2step-stake-s,609,3083993,0.0-19.0-0.0-0.113,AAURS65ZO4SXC,3QGHA0EA1MGR4GKNSEWY8BJ80SRWBM,3EQHHY4HQW8W4XB8216586TFQKL5GY,5,6
114,2,object_03,object_01,1107.4599999995,3,1,306.48000000045,0.4444444444444444,1,object_05,1,1362,0,4,8,forest_7,1,memory-2step-stake-s,610,3091922,0.0-19.0-0.0-0.114,AAURS65ZO4SXC,3QGHA0EA1MGR4GKNSEWY8BJ80SRWBM,3EQHHY4HQW8W4XB8216586TFQKL5GY,3,4
115,4,object_04,object_08,-1.0,-1,-1,-1.0,0.0,-,0,5,1362,0,4,6,restaurant_7,1,memory-2step-stake-s,611,3098432,0.0-19.0-0.0-0.115,AAURS65ZO4SXC,3QGHA0EA1MGR4GKNSEWY8BJ80SRWBM,3EQHHY4HQW8W4XB8216586TFQKL5GY,7,8
116,3,object_09,object_02,1185.4350000005,5,2,207.24499999965,0.6666666666666666,1,object_05,1,1368,0,6,5,library_3,1,memory-2step-stake-s,612,3106461,0.0-19.0-0.0-0.116,AAURS65ZO4SXC,3QGHA0EA1MGR4GKNSEWY8BJ80SRWBM,3EQHHY4HQW8W4XB8216586TFQKL5GY,6,5
117,3,object_02,object_09,899.44499999983,5,1,252.23999999976,0.7777777777777778,1,object_05,5,1403,0,7,4,library_6,1,memory-2step-stake-s,613,3114636,0.0-19.0-0.0-0.117,AAURS65ZO4SXC,3QGHA0EA1MGR4GKNSEWY8BJ80SRWBM,3EQHHY4HQW8W4XB8216586TFQKL5GY,5,6
118,4,object_08,object_04,894.66499999957,7,2,159.28500000015,0.7777777777777778,1,object_05,1,1410,0,7,5,restaurant_7,1,memory-2step-stake-s,614,3122714,0.0-19.0-0.0-0.118,AAURS65ZO4SXC,3QGHA0EA1MGR4GKNSEWY8BJ80SRWBM,3EQHHY4HQW8W4XB8216586TFQKL5GY,8,7
119,1,object_06,object_07,1091.3200000003,2,1,319.70500000007,0.6666666666666666,2,object_10,1,1416,0,8,6,desert_7,1,memory-2step-stake-s,615,3130852,0.0-19.0-0.0-0.119,AAURS65ZO4SXC,3QGHA0EA1MGR4GKNSEWY8BJ80SRWBM,3EQHHY4HQW8W4XB8216586TFQKL5GY,2,1
120,2,object_01,object_03,1090.665,3,2,285.24000000022,1.0,1,object_05,1,1425,0,9,8,forest_4,1,memory-2step-stake-s,616,3139263,0.0-19.0-0.0-0.120,AAURS65ZO4SXC,3QGHA0EA1MGR4GKNSEWY8BJ80SRWBM,3EQHHY4HQW8W4XB8216586TFQKL5GY,4,3
121,2,object_01,object_03,821.56999999983,3,2,325.15999999968,1.0,1,object_05,1,1434,0,9,8,forest_7,1,memory-2step-stake-s,617,3147711,0.0-19.0-0.0-0.121,AAURS65ZO4SXC,3QGHA0EA1MGR4GKNSEWY8BJ80SRWBM,3EQHHY4HQW8W4XB8216586TFQKL5GY,4,3
122,4,object_08,object_04,-1.0,-1,-1,-1.0,0.0,-,0,5,1434,0,7,8,restaurant_5,1,memory-2step-stake-s,618,3154221,0.0-19.0-0.0-0.122,AAURS65ZO4SXC,3QGHA0EA1MGR4GKNSEWY8BJ80SRWBM,3EQHHY4HQW8W4XB8216586TFQKL5GY,8,7
123,1,object_06,object_07,834.71999999974,2,1,215.4700000002,0.7777777777777778,2,object_10,5,1469,0,7,7,desert_7,1,memory-2step-stake-s,619,3162357,0.0-19.0-0.0-0.123,AAURS65ZO4SXC,3QGHA0EA1MGR4GKNSEWY8BJ80SRWBM,3EQHHY4HQW8W4XB8216586TFQKL5GY,2,1
124,2,object_03,object_01,951.47999999998,3,1,218.41999999946,0.4444444444444444,1,object_05,5,1489,0,4,5,forest_5,1,memory-2step-stake-s,620,3170195,0.0-19.0-0.0-0.124,AAURS65ZO4SXC,3QGHA0EA1MGR4GKNSEWY8BJ80SRWBM,3EQHHY4HQW8W4XB8216586TFQKL5GY,3,4
125,3,object_09,object_02,808.12999999942,6,1,340.52999999933,1.0,2,object_10,5,1534,0,1,9,library_6,1,memory-2step-stake-s,621,3178656,0.0-19.0-0.0-0.125,AAURS65ZO4SXC,3QGHA0EA1MGR4GKNSEWY8BJ80SRWBM,3EQHHY4HQW8W4XB8216586TFQKL5GY,6,5
126,4,object_08,object_04,1049.3050000006,8,1,244.5400000005,0.6666666666666666,2,object_10,5,1564,0,1,6,restaurant_7,1,memory-2step-stake-s,622,3186720,0.0-19.0-0.0-0.126,AAURS65ZO4SXC,3QGHA0EA1MGR4GKNSEWY8BJ80SRWBM,3EQHHY4HQW8W4XB8216586TFQKL5GY,8,7
127,3,object_02,object_09,777.78500000015,6,2,241.05500000063,0.4444444444444444,2,object_10,5,1584,0,6,4,library_3,1,memory-2step-stake-s,623,3194579,0.0-19.0-0.0-0.127,AAURS65ZO4SXC,3QGHA0EA1MGR4GKNSEWY8BJ80SRWBM,3EQHHY4HQW8W4XB8216586TFQKL5GY,5,6
128,2,object_01,object_03,1070.27,3,2,330.96999999974,1.0,1,object_05,1,1593,0,9,8,forest_4,1,memory-2step-stake-s,625,3396317,0.0-19.0-0.1-0.128,AAURS65ZO4SXC,3QGHA0EA1MGR4GKNSEWY8BJ80SRWBM,3EQHHY4HQW8W4XB8216586TFQKL5GY,4,3
129,4,object_04,object_08,897.27500000037,8,2,308.72499999963,0.4444444444444444,2,object_10,5,1613,0,6,4,restaurant_1,1,memory-2step-stake-s,626,3404245,0.0-19.0-0.1-0.129,AAURS65ZO4SXC,3QGHA0EA1MGR4GKNSEWY8BJ80SRWBM,3EQHHY4HQW8W4XB8216586TFQKL5GY,7,8
130,4,object_04,object_08,650.06999999983,8,2,379.17500000028,0.6666666666666666,2,object_10,5,1643,0,5,6,restaurant_7,1,memory-2step-stake-s,627,3412446,0.0-19.0-0.1-0.130,AAURS65ZO4SXC,3QGHA0EA1MGR4GKNSEWY8BJ80SRWBM,3EQHHY4HQW8W4XB8216586TFQKL5GY,7,8
131,1,object_07,object_06,986.21999999974,2,2,207.47500000009,0.2222222222222222,2,object_10,5,1653,0,5,2,desert_7,1,memory-2step-stake-s,628,3420070,0.0-19.0-0.1-0.131,AAURS65ZO4SXC,3QGHA0EA1MGR4GKNSEWY8BJ80SRWBM,3EQHHY4HQW8W4XB8216586TFQKL5GY,1,2
132,2,object_01,object_03,744.51000000071,3,2,186.06999999983,0.5555555555555556,1,object_05,1,1658,0,5,1,forest_4,1,memory-2step-stake-s,629,3427975,0.0-19.0-0.1-0.132,AAURS65ZO4SXC,3QGHA0EA1MGR4GKNSEWY8BJ80SRWBM,3EQHHY4HQW8W4XB8216586TFQKL5GY,4,3
133,1,object_06,object_07,894.0,1,2,229.85500000091,0.6666666666666666,1,object_05,5,1688,0,6,0,desert_1,1,memory-2step-stake-s,630,3436031,0.0-19.0-0.1-0.133,AAURS65ZO4SXC,3QGHA0EA1MGR4GKNSEWY8BJ80SRWBM,3EQHHY4HQW8W4XB8216586TFQKL5GY,2,1
134,2,object_01,object_03,440.13499999978,3,2,211.04500000039,1.0,1,object_05,1,1697,0,9,2,forest_4,1,memory-2step-stake-s,631,3444380,0.0-19.0-0.1-0.134,AAURS65ZO4SXC,3QGHA0EA1MGR4GKNSEWY8BJ80SRWBM,3EQHHY4HQW8W4XB8216586TFQKL5GY,4,3
135,3,object_02,object_09,-1.0,-1,-1,-1.0,0.0,-,0,5,1697,0,7,2,library_5,1,memory-2step-stake-s,632,3450889,0.0-19.0-0.1-0.135,AAURS65ZO4SXC,3QGHA0EA1MGR4GKNSEWY8BJ80SRWBM,3EQHHY4HQW8W4XB8216586TFQKL5GY,5,6
136,3,object_09,object_02,535.27500000037,6,1,189.83000000054,0.2222222222222222,2,object_10,5,1707,0,8,2,library_2,1,memory-2step-stake-s,633,3458495,0.0-19.0-0.1-0.136,AAURS65ZO4SXC,3QGHA0EA1MGR4GKNSEWY8BJ80SRWBM,3EQHHY4HQW8W4XB8216586TFQKL5GY,6,5
137,3,object_02,object_09,724.47500000009,6,2,242.97499999916,0.4444444444444444,2,object_10,5,1727,0,7,4,library_6,1,memory-2step-stake-s,634,3466359,0.0-19.0-0.1-0.137,AAURS65ZO4SXC,3QGHA0EA1MGR4GKNSEWY8BJ80SRWBM,3EQHHY4HQW8W4XB8216586TFQKL5GY,5,6
138,1,object_07,object_06,810.01500000013,1,1,201.1650000005,0.7777777777777778,1,object_05,1,1734,0,7,1,desert_7,1,memory-2step-stake-s,635,3474481,0.0-19.0-0.1-0.138,AAURS65ZO4SXC,3QGHA0EA1MGR4GKNSEWY8BJ80SRWBM,3EQHHY4HQW8W4XB8216586TFQKL5GY,1,2
139,3,object_02,object_09,902.21500000032,5,1,235.80500000017,0.5555555555555556,1,object_05,5,1759,0,5,3,library_3,1,memory-2step-stake-s,636,3482434,0.0-19.0-0.1-0.139,AAURS65ZO4SXC,3QGHA0EA1MGR4GKNSEWY8BJ80SRWBM,3EQHHY4HQW8W4XB8216586TFQKL5GY,5,6
140,2,object_01,object_03,545.64000000013,3,2,549.94499999937,0.4444444444444444,1,object_05,5,1779,0,4,7,forest_7,1,memory-2step-stake-s,637,3490602,0.0-19.0-0.1-0.140,AAURS65ZO4SXC,3QGHA0EA1MGR4GKNSEWY8BJ80SRWBM,3EQHHY4HQW8W4XB8216586TFQKL5GY,4,3
141,2,object_03,object_01,760.19999999972,3,1,286.28500000015,0.7777777777777778,1,object_05,5,1814,0,7,8,forest_7,1,memory-2step-stake-s,638,3498809,0.0-19.0-0.1-0.141,AAURS65ZO4SXC,3QGHA0EA1MGR4GKNSEWY8BJ80SRWBM,3EQHHY4HQW8W4XB8216586TFQKL5GY,3,4
142,1,object_06,object_07,844.07499999972,2,1,194.88999999966,0.8888888888888888,2,object_10,5,1854,0,5,8,desert_1,1,memory-2step-stake-s,639,3507025,0.0-19.0-0.1-0.142,AAURS65ZO4SXC,3QGHA0EA1MGR4GKNSEWY8BJ80SRWBM,3EQHHY4HQW8W4XB8216586TFQKL5GY,2,1
143,4,object_08,object_04,666.64499999955,8,1,194.13500000024,1.0,2,object_10,5,1899,0,6,9,restaurant_5,1,memory-2step-stake-s,640,3515341,0.0-19.0-0.1-0.143,AAURS65ZO4SXC,3QGHA0EA1MGR4GKNSEWY8BJ80SRWBM,3EQHHY4HQW8W4XB8216586TFQKL5GY,8,7
144,4,object_08,object_04,753.98999999976,8,1,254.71499999985,0.8888888888888888,2,object_10,5,1939,0,5,8,restaurant_1,1,memory-2step-stake-s,641,3523618,0.0-19.0-0.1-0.144,AAURS65ZO4SXC,3QGHA0EA1MGR4GKNSEWY8BJ80SRWBM,3EQHHY4HQW8W4XB8216586TFQKL5GY,8,7
145,4,object_08,object_04,480.31999999983,8,1,301.38500000071,1.0,2,object_10,5,1984,0,2,9,restaurant_5,1,memory-2step-stake-s,642,3532040,0.0-19.0-0.1-0.145,AAURS65ZO4SXC,3QGHA0EA1MGR4GKNSEWY8BJ80SRWBM,3EQHHY4HQW8W4XB8216586TFQKL5GY,8,7
146,2,object_01,object_03,656.98999999929,3,2,223.20999999996,0.4444444444444444,1,object_05,1,1988,0,4,9,forest_5,1,memory-2step-stake-s,643,3539881,0.0-19.0-0.1-0.146,AAURS65ZO4SXC,3QGHA0EA1MGR4GKNSEWY8BJ80SRWBM,3EQHHY4HQW8W4XB8216586TFQKL5GY,4,3
147,4,object_08,object_04,827.75000000047,7,2,271.28999999957,0.1111111111111111,1,object_05,5,1993,0,1,7,restaurant_1,1,memory-2step-stake-s,644,3547466,0.0-19.0-0.1-0.147,AAURS65ZO4SXC,3QGHA0EA1MGR4GKNSEWY8BJ80SRWBM,3EQHHY4HQW8W4XB8216586TFQKL5GY,8,7
148,3,object_09,object_02,894.79000000004,5,2,229.0,0.1111111111111111,1,object_05,5,1998,0,1,7,library_5,1,memory-2step-stake-s,645,3555011,0.0-19.0-0.1-0.148,AAURS65ZO4SXC,3QGHA0EA1MGR4GKNSEWY8BJ80SRWBM,3EQHHY4HQW8W4XB8216586TFQKL5GY,6,5
149,3,object_09,object_02,1050.4049999998,6,1,206.02000000048,0.8888888888888888,2,object_10,1,2006,0,4,8,library_5,1,memory-2step-stake-s,646,3563241,0.0-19.0-0.1-0.149,AAURS65ZO4SXC,3QGHA0EA1MGR4GKNSEWY8BJ80SRWBM,3EQHHY4HQW8W4XB8216586TFQKL5GY,6,5
150,1,object_06,object_07,1030.1049999995,2,1,188.49999999953,0.6666666666666666,2,object_10,1,2012,0,7,6,desert_1,1,memory-2step-stake-s,647,3571249,0.0-19.0-0.1-0.150,AAURS65ZO4SXC,3QGHA0EA1MGR4GKNSEWY8BJ80SRWBM,3EQHHY4HQW8W4XB8216586TFQKL5GY,2,1
151,1,object_07,object_06,790.02499999944,2,2,206.43000000017,0.5555555555555556,2,object_10,1,2017,0,8,5,desert_2,1,memory-2step-stake-s,648,3579175,0.0-19.0-0.1-0.151,AAURS65ZO4SXC,3QGHA0EA1MGR4GKNSEWY8BJ80SRWBM,3EQHHY4HQW8W4XB8216586TFQKL5GY,1,2
152,2,object_01,object_03,603.85500000045,3,2,266.05000000028,0.8888888888888888,1,object_05,1,2025,0,8,9,forest_5,1,memory-2step-stake-s,649,3587465,0.0-19.0-0.1-0.152,AAURS65ZO4SXC,3QGHA0EA1MGR4GKNSEWY8BJ80SRWBM,3EQHHY4HQW8W4XB8216586TFQKL5GY,4,3
153,4,object_04,object_08,1067.98,8,2,166.7200000002,0.8888888888888888,2,object_10,5,2065,0,9,8,restaurant_6,1,memory-2step-stake-s,650,3595656,0.0-19.0-0.1-0.153,AAURS65ZO4SXC,3QGHA0EA1MGR4GKNSEWY8BJ80SRWBM,3EQHHY4HQW8W4XB8216586TFQKL5GY,7,8
154,2,object_01,object_03,614.89999999944,3,2,41.714999999385,0.8888888888888888,1,object_05,1,2073,0,8,8,forest_3,1,memory-2step-stake-s,651,3603718,0.0-19.0-0.1-0.154,AAURS65ZO4SXC,3QGHA0EA1MGR4GKNSEWY8BJ80SRWBM,3EQHHY4HQW8W4XB8216586TFQKL5GY,4,3
155,1,object_06,object_07,1026.3299999996,1,2,201.17000000039,0.6666666666666666,1,object_05,5,2103,0,6,6,desert_2,1,memory-2step-stake-s,652,3611740,0.0-19.0-0.1-0.155,AAURS65ZO4SXC,3QGHA0EA1MGR4GKNSEWY8BJ80SRWBM,3EQHHY4HQW8W4XB8216586TFQKL5GY,2,1
156,1,object_06,object_07,585.11499999976,2,1,92.489999999758,0.6666666666666666,2,object_10,1,2109,0,6,6,desert_7,1,memory-2step-stake-s,653,3619652,0.0-19.0-0.1-0.156,AAURS65ZO4SXC,3QGHA0EA1MGR4GKNSEWY8BJ80SRWBM,3EQHHY4HQW8W4XB8216586TFQKL5GY,2,1
157,1,object_07,object_06,918.62999999896,1,1,201.10000000056,0.8888888888888888,1,object_05,1,2117,0,8,7,desert_2,1,memory-2step-stake-s,654,3627877,0.0-19.0-0.1-0.157,AAURS65ZO4SXC,3QGHA0EA1MGR4GKNSEWY8BJ80SRWBM,3EQHHY4HQW8W4XB8216586TFQKL5GY,1,2
158,4,object_04,object_08,960.41000000061,7,1,225.87999999989,0.8888888888888888,1,object_05,5,2157,0,8,8,restaurant_5,1,memory-2step-stake-s,655,3636129,0.0-19.0-0.1-0.158,AAURS65ZO4SXC,3QGHA0EA1MGR4GKNSEWY8BJ80SRWBM,3EQHHY4HQW8W4XB8216586TFQKL5GY,7,8
159,1,object_07,object_06,836.57499999925,2,2,320.66999999993,0.8888888888888888,2,object_10,1,2165,0,7,8,desert_5,1,memory-2step-stake-s,656,3644471,0.0-19.0-0.1-0.159,AAURS65ZO4SXC,3QGHA0EA1MGR4GKNSEWY8BJ80SRWBM,3EQHHY4HQW8W4XB8216586TFQKL5GY,1,2
160,2,object_01,object_03,637.70999999996,3,2,320.7650000006,0.6666666666666666,1,object_05,1,2171,0,6,6,forest_7,1,memory-2step-stake-s,657,3652610,0.0-19.0-0.1-0.160,AAURS65ZO4SXC,3QGHA0EA1MGR4GKNSEWY8BJ80SRWBM,3EQHHY4HQW8W4XB8216586TFQKL5GY,4,3
161,4,object_04,object_08,799.26000000071,8,2,281.83499999996,1.0,2,object_10,5,2216,0,8,9,restaurant_1,1,memory-2step-stake-s,658,3661014,0.0-19.0-0.1-0.161,AAURS65ZO4SXC,3QGHA0EA1MGR4GKNSEWY8BJ80SRWBM,3EQHHY4HQW8W4XB8216586TFQKL5GY,7,8
162,1,object_06,object_07,991.85499999905,1,2,239.84499999881,0.8888888888888888,1,object_05,1,2224,0,8,6,desert_2,1,memory-2step-stake-s,659,3669276,0.0-19.0-0.1-0.162,AAURS65ZO4SXC,3QGHA0EA1MGR4GKNSEWY8BJ80SRWBM,3EQHHY4HQW8W4XB8216586TFQKL5GY,2,1
163,1,object_07,object_06,775.02500000084,1,1,189.71500000032,0.5555555555555556,1,object_05,1,2229,0,5,8,desert_1,1,memory-2step-stake-s,660,3677184,0.0-19.0-0.1-0.163,AAURS65ZO4SXC,3QGHA0EA1MGR4GKNSEWY8BJ80SRWBM,3EQHHY4HQW8W4XB8216586TFQKL5GY,1,2
164,3,object_09,object_02,1103.3149999999,5,2,235.37500000047,0.5555555555555556,1,object_05,5,2254,0,5,8,library_5,1,memory-2step-stake-s,661,3685137,0.0-19.0-0.1-0.164,AAURS65ZO4SXC,3QGHA0EA1MGR4GKNSEWY8BJ80SRWBM,3EQHHY4HQW8W4XB8216586TFQKL5GY,6,5
165,3,object_02,object_09,872.70000000112,5,1,809.38499999931,0.7777777777777778,1,object_05,5,2289,0,7,9,library_6,1,memory-2step-stake-s,662,3693865,0.0-19.0-0.1-0.165,AAURS65ZO4SXC,3QGHA0EA1MGR4GKNSEWY8BJ80SRWBM,3EQHHY4HQW8W4XB8216586TFQKL5GY,5,6
166,4,object_08,object_04,647.41999999993,7,2,321.68000000017,0.7777777777777778,1,object_05,5,2324,0,7,8,restaurant_5,1,memory-2step-stake-s,663,3702106,0.0-19.0-0.1-0.166,AAURS65ZO4SXC,3QGHA0EA1MGR4GKNSEWY8BJ80SRWBM,3EQHHY4HQW8W4XB8216586TFQKL5GY,8,7
167,2,object_01,object_03,677.15000000084,3,2,420.52999999933,0.6666666666666666,1,object_05,1,2330,0,6,7,forest_5,1,memory-2step-stake-s,664,3710346,0.0-19.0-0.1-0.167,AAURS65ZO4SXC,3QGHA0EA1MGR4GKNSEWY8BJ80SRWBM,3EQHHY4HQW8W4XB8216586TFQKL5GY,4,3
168,2,object_03,object_01,953.56999999983,4,2,338.66999999993,0.5555555555555556,2,object_10,1,2335,0,5,5,forest_3,1,memory-2step-stake-s,665,3718406,0.0-19.0-0.1-0.168,AAURS65ZO4SXC,3QGHA0EA1MGR4GKNSEWY8BJ80SRWBM,3EQHHY4HQW8W4XB8216586TFQKL5GY,3,4
169,4,object_08,object_04,769.55000000028,8,1,277.34999999916,0.5555555555555556,2,object_10,5,2360,0,6,5,restaurant_1,1,memory-2step-stake-s,666,3726402,0.0-19.0-0.1-0.169,AAURS65ZO4SXC,3QGHA0EA1MGR4GKNSEWY8BJ80SRWBM,3EQHHY4HQW8W4XB8216586TFQKL5GY,8,7
170,1,object_07,object_06,773.96000000043,2,2,36.044999999925,0.5555555555555556,2,object_10,5,2385,0,5,5,desert_2,1,memory-2step-stake-s,667,3734156,0.0-19.0-0.1-0.170,AAURS65ZO4SXC,3QGHA0EA1MGR4GKNSEWY8BJ80SRWBM,3EQHHY4HQW8W4XB8216586TFQKL5GY,1,2
171,2,object_01,object_03,898.05500000063,4,1,100.24499999965,0.6666666666666666,2,object_10,5,2415,0,6,6,forest_5,1,memory-2step-stake-s,668,3742075,0.0-19.0-0.1-0.171,AAURS65ZO4SXC,3QGHA0EA1MGR4GKNSEWY8BJ80SRWBM,3EQHHY4HQW8W4XB8216586TFQKL5GY,4,3
172,2,object_03,object_01,661.86999999965,4,2,180.20499999961,0.8888888888888888,2,object_10,1,2423,0,3,8,forest_3,1,memory-2step-stake-s,669,3750278,0.0-19.0-0.1-0.172,AAURS65ZO4SXC,3QGHA0EA1MGR4GKNSEWY8BJ80SRWBM,3EQHHY4HQW8W4XB8216586TFQKL5GY,3,4
173,1,object_06,object_07,808.32499999972,1,2,541.79999999981,0.5555555555555556,1,object_05,5,2448,0,5,7,desert_5,1,memory-2step-stake-s,670,3758541,0.0-19.0-0.1-0.173,AAURS65ZO4SXC,3QGHA0EA1MGR4GKNSEWY8BJ80SRWBM,3EQHHY4HQW8W4XB8216586TFQKL5GY,2,1
174,2,object_01,object_03,645.61499999929,3,2,186.06499999994,0.5555555555555556,1,object_05,1,2453,0,5,6,forest_3,1,memory-2step-stake-s,671,3766446,0.0-19.0-0.1-0.174,AAURS65ZO4SXC,3QGHA0EA1MGR4GKNSEWY8BJ80SRWBM,3EQHHY4HQW8W4XB8216586TFQKL5GY,4,3
175,3,object_02,object_09,635.67000000039,6,2,136.43500000052,0.7777777777777778,2,object_10,5,2488,0,5,7,library_6,1,memory-2step-stake-s,672,3774504,0.0-19.0-0.1-0.175,AAURS65ZO4SXC,3QGHA0EA1MGR4GKNSEWY8BJ80SRWBM,3EQHHY4HQW8W4XB8216586TFQKL5GY,5,6
176,2,object_01,object_03,667.23499999987,4,1,126.72999999952,0.7777777777777778,2,object_10,1,2495,0,5,7,forest_3,1,memory-2step-stake-s,673,3782549,0.0-19.0-0.1-0.176,AAURS65ZO4SXC,3QGHA0EA1MGR4GKNSEWY8BJ80SRWBM,3EQHHY4HQW8W4XB8216586TFQKL5GY,4,3
177,1,object_07,object_06,919.8200000003,1,1,205.08499999996,0.5555555555555556,1,object_05,1,2500,0,5,9,desert_2,1,memory-2step-stake-s,674,3790472,0.0-19.0-0.1-0.177,AAURS65ZO4SXC,3QGHA0EA1MGR4GKNSEWY8BJ80SRWBM,3EQHHY4HQW8W4XB8216586TFQKL5GY,1,2
178,2,object_01,object_03,398.79499999993,3,2,242.11499999976,0.5555555555555556,1,object_05,1,2505,0,5,7,forest_5,1,memory-2step-stake-s,675,3798431,0.0-19.0-0.1-0.178,AAURS65ZO4SXC,3QGHA0EA1MGR4GKNSEWY8BJ80SRWBM,3EQHHY4HQW8W4XB8216586TFQKL5GY,4,3
179,3,object_02,object_09,956.72500000009,5,1,396.9300000011,0.4444444444444444,1,object_05,5,2525,0,4,3,library_6,1,memory-2step-stake-s,676,3806447,0.0-19.0-0.1-0.179,AAURS65ZO4SXC,3QGHA0EA1MGR4GKNSEWY8BJ80SRWBM,3EQHHY4HQW8W4XB8216586TFQKL5GY,5,6
180,3,object_02,object_09,749.98499999987,6,2,276.52000000048,0.1111111111111111,2,object_10,5,2530,0,6,1,library_2,1,memory-2step-stake-s,677,3814041,0.0-19.0-0.1-0.180,AAURS65ZO4SXC,3QGHA0EA1MGR4GKNSEWY8BJ80SRWBM,3EQHHY4HQW8W4XB8216586TFQKL5GY,5,6
181,4,object_04,object_08,763.87499999953,8,2,271.74500000011,0.0,2,object_10,1,2530,0,8,0,restaurant_1,1,memory-2step-stake-s,678,3821527,0.0-19.0-0.1-0.181,AAURS65ZO4SXC,3QGHA0EA1MGR4GKNSEWY8BJ80SRWBM,3EQHHY4HQW8W4XB8216586TFQKL5GY,7,8
182,4,object_04,object_08,733.71000000043,7,1,204.68999999948,0.7777777777777778,1,object_05,5,2565,0,7,0,restaurant_1,1,memory-2step-stake-s,679,3829657,0.0-19.0-0.1-0.182,AAURS65ZO4SXC,3QGHA0EA1MGR4GKNSEWY8BJ80SRWBM,3EQHHY4HQW8W4XB8216586TFQKL5GY,7,8
183,2,object_01,object_03,720.8599999994,3,2,223.79999999981,0.7777777777777778,1,object_05,1,2572,0,7,1,forest_7,1,memory-2step-stake-s,680,3837801,0.0-19.0-0.1-0.183,AAURS65ZO4SXC,3QGHA0EA1MGR4GKNSEWY8BJ80SRWBM,3EQHHY4HQW8W4XB8216586TFQKL5GY,4,3
184,1,object_07,object_06,812.93000000017,2,2,287.02499999944,0.1111111111111111,2,object_10,5,2577,0,2,1,desert_5,1,memory-2step-stake-s,681,3845404,0.0-19.0-0.1-0.184,AAURS65ZO4SXC,3QGHA0EA1MGR4GKNSEWY8BJ80SRWBM,3EQHHY4HQW8W4XB8216586TFQKL5GY,1,2
185,4,object_04,object_08,809.74500000058,7,1,300.21000000043,0.6666666666666666,1,object_05,5,2607,0,6,1,restaurant_6,1,memory-2step-stake-s,682,3853525,0.0-19.0-0.1-0.185,AAURS65ZO4SXC,3QGHA0EA1MGR4GKNSEWY8BJ80SRWBM,3EQHHY4HQW8W4XB8216586TFQKL5GY,7,8
186,4,object_08,object_04,744.41000000015,7,2,234.79499999993,0.6666666666666666,1,object_05,5,2637,0,6,1,restaurant_7,1,memory-2step-stake-s,683,3861579,0.0-19.0-0.1-0.186,AAURS65ZO4SXC,3QGHA0EA1MGR4GKNSEWY8BJ80SRWBM,3EQHHY4HQW8W4XB8216586TFQKL5GY,8,7
187,2,object_03,object_01,1127.7349999999,3,1,335.68999999994,0.6666666666666666,1,object_05,5,2667,0,6,3,forest_5,1,memory-2step-stake-s,684,3869737,0.0-19.0-0.1-0.187,AAURS65ZO4SXC,3QGHA0EA1MGR4GKNSEWY8BJ80SRWBM,3EQHHY4HQW8W4XB8216586TFQKL5GY,3,4
188,3,object_09,object_02,868.1400000006,6,1,228.02000000048,0.0,2,object_10,1,2667,0,6,0,library_3,1,memory-2step-stake-s,685,3877176,0.0-19.0-0.1-0.188,AAURS65ZO4SXC,3QGHA0EA1MGR4GKNSEWY8BJ80SRWBM,3EQHHY4HQW8W4XB8216586TFQKL5GY,6,5
189,3,object_09,object_02,1294.0600000005,5,2,239.2200000002,0.2222222222222222,1,object_05,1,2669,0,2,3,library_5,1,memory-2step-stake-s,686,3884831,0.0-19.0-0.1-0.189,AAURS65ZO4SXC,3QGHA0EA1MGR4GKNSEWY8BJ80SRWBM,3EQHHY4HQW8W4XB8216586TFQKL5GY,6,5
190,4,object_04,object_08,813.50499999989,7,1,200.30500000063,0.3333333333333333,1,object_05,1,2672,0,3,3,restaurant_5,1,memory-2step-stake-s,687,3892547,0.0-19.0-0.1-0.190,AAURS65ZO4SXC,3QGHA0EA1MGR4GKNSEWY8BJ80SRWBM,3EQHHY4HQW8W4XB8216586TFQKL5GY,7,8
191,1,object_07,object_06,1190.3649999993,1,1,208.25499999942,0.2222222222222222,1,object_05,5,2682,0,2,7,desert_2,1,memory-2step-stake-s,688,3900173,0.0-19.0-0.1-0.191,AAURS65ZO4SXC,3QGHA0EA1MGR4GKNSEWY8BJ80SRWBM,3EQHHY4HQW8W4XB8216586TFQKL5GY,1,2
192,3,object_02,object_09,887.16500000004,5,1,257.91999999993,0.5555555555555556,1,object_05,5,2707,0,5,9,library_5,1,memory-2step-stake-s,689,3908149,0.0-19.0-0.1-0.192,AAURS65ZO4SXC,3QGHA0EA1MGR4GKNSEWY8BJ80SRWBM,3EQHHY4HQW8W4XB8216586TFQKL5GY,5,6
193,4,object_04,object_08,809.54500000039,7,1,269.05500000063,0.6666666666666666,1,object_05,5,2737,0,6,7,restaurant_6,1,memory-2step-stake-s,690,3916238,0.0-19.0-0.1-0.193,AAURS65ZO4SXC,3QGHA0EA1MGR4GKNSEWY8BJ80SRWBM,3EQHHY4HQW8W4XB8216586TFQKL5GY,7,8
194,1,object_07,object_06,696.9450000003,1,1,242.87000000011,0.7777777777777778,1,object_05,1,2744,0,7,7,desert_5,1,memory-2step-stake-s,691,3924403,0.0-19.0-0.1-0.194,AAURS65ZO4SXC,3QGHA0EA1MGR4GKNSEWY8BJ80SRWBM,3EQHHY4HQW8W4XB8216586TFQKL5GY,1,2
195,4,object_08,object_04,774.34499999974,7,2,294.68500000006,0.7777777777777778,1,object_05,1,2751,0,7,7,restaurant_6,1,memory-2step-stake-s,692,3932619,0.0-19.0-0.1-0.195,AAURS65ZO4SXC,3QGHA0EA1MGR4GKNSEWY8BJ80SRWBM,3EQHHY4HQW8W4XB8216586TFQKL5GY,8,7
196,3,object_09,object_02,715.41999999993,6,1,310.08999999985,1.0,2,object_10,5,2796,0,8,9,library_5,1,memory-2step-stake-s,693,3941051,0.0-19.0-0.1-0.196,AAURS65ZO4SXC,3QGHA0EA1MGR4GKNSEWY8BJ80SRWBM,3EQHHY4HQW8W4XB8216586TFQKL5GY,6,5
197,2,object_01,object_03,630.39000000013,3,2,324.96499999985,0.8888888888888888,1,object_05,1,2804,0,8,5,forest_4,1,memory-2step-stake-s,694,3949397,0.0-19.0-0.1-0.197,AAURS65ZO4SXC,3QGHA0EA1MGR4GKNSEWY8BJ80SRWBM,3EQHHY4HQW8W4XB8216586TFQKL5GY,4,3
198,3,object_02,object_09,1032.1499999999,6,2,688.36000000034,0.7777777777777778,2,object_10,1,2811,0,8,7,library_3,1,memory-2step-stake-s,695,3958007,0.0-19.0-0.1-0.198,AAURS65ZO4SXC,3QGHA0EA1MGR4GKNSEWY8BJ80SRWBM,3EQHHY4HQW8W4XB8216586TFQKL5GY,5,6
199,3,object_09,object_02,835.14999999991,6,1,317.20999999996,0.7777777777777778,2,object_10,5,2846,0,8,7,library_3,1,memory-2step-stake-s,696,3966243,0.0-19.0-0.1-0.199,AAURS65ZO4SXC,3QGHA0EA1MGR4GKNSEWY8BJ80SRWBM,3EQHHY4HQW8W4XB8216586TFQKL5GY,6,5
200,3,object_02,object_09,616.3049999997,6,2,304.55500000063,0.7777777777777778,2,object_10,5,2881,0,7,7,library_3,1,memory-2step-stake-s,697,3974466,0.0-19.0-0.1-0.200,AAURS65ZO4SXC,3QGHA0EA1MGR4GKNSEWY8BJ80SRWBM,3EQHHY4HQW8W4XB8216586TFQKL5GY,5,6
201,1,object_07,object_06,1102.0550000002,1,1,240.27499999991,0.6666666666666666,1,object_05,5,2911,0,6,5,desert_2,1,memory-2step-stake-s,698,3982524,0.0-19.0-0.1-0.201,AAURS65ZO4SXC,3QGHA0EA1MGR4GKNSEWY8BJ80SRWBM,3EQHHY4HQW8W4XB8216586TFQKL5GY,1,2
202,2,object_01,object_03,568.76500000013,3,2,219.43999999994,0.7777777777777778,1,object_05,1,2918,0,7,5,forest_7,1,memory-2step-stake-s,699,3990665,0.0-19.0-0.1-0.202,AAURS65ZO4SXC,3QGHA0EA1MGR4GKNSEWY8BJ80SRWBM,3EQHHY4HQW8W4XB8216586TFQKL5GY,4,3
203,1,object_06,object_07,580.48500000034,1,2,241.25500000035,1.0,1,object_05,1,2927,0,9,4,desert_5,1,memory-2step-stake-s,700,3999029,0.0-19.0-0.1-0.203,AAURS65ZO4SXC,3QGHA0EA1MGR4GKNSEWY8BJ80SRWBM,3EQHHY4HQW8W4XB8216586TFQKL5GY,2,1
204,1,object_06,object_07,549.37999999942,1,2,221.8049999997,0.6666666666666666,1,object_05,1,2933,0,6,4,desert_2,1,memory-2step-stake-s,701,4007079,0.0-19.0-0.1-0.204,AAURS65ZO4SXC,3QGHA0EA1MGR4GKNSEWY8BJ80SRWBM,3EQHHY4HQW8W4XB8216586TFQKL5GY,2,1
205,1,object_06,object_07,470.18000000017,1,2,227.75,0.4444444444444444,1,object_05,1,2937,0,4,2,desert_2,1,memory-2step-stake-s,702,4014923,0.0-19.0-0.1-0.205,AAURS65ZO4SXC,3QGHA0EA1MGR4GKNSEWY8BJ80SRWBM,3EQHHY4HQW8W4XB8216586TFQKL5GY,2,1
206,3,object_02,object_09,797.23499999987,5,1,182.21500000078,0.2222222222222222,1,object_05,1,2939,0,2,4,library_6,1,memory-2step-stake-s,703,4022520,0.0-19.0-0.1-0.206,AAURS65ZO4SXC,3QGHA0EA1MGR4GKNSEWY8BJ80SRWBM,3EQHHY4HQW8W4XB8216586TFQKL5GY,5,6
207,4,object_08,object_04,758.85499999998,7,2,216.73500000034,0.3333333333333333,1,object_05,5,2954,0,3,5,restaurant_7,1,memory-2step-stake-s,704,4030252,0.0-19.0-0.1-0.207,AAURS65ZO4SXC,3QGHA0EA1MGR4GKNSEWY8BJ80SRWBM,3EQHHY4HQW8W4XB8216586TFQKL5GY,8,7
208,3,object_02,object_09,692.44500000076,6,2,241.18000000017,0.0,2,object_10,5,2954,0,2,0,library_3,1,memory-2step-stake-s,705,4037707,0.0-19.0-0.1-0.208,AAURS65ZO4SXC,3QGHA0EA1MGR4GKNSEWY8BJ80SRWBM,3EQHHY4HQW8W4XB8216586TFQKL5GY,5,6
209,1,object_07,object_06,888.20000000019,2,2,216.09499999974,0.2222222222222222,2,object_10,1,2956,0,1,2,desert_1,1,memory-2step-stake-s,706,4045339,0.0-19.0-0.1-0.209,AAURS65ZO4SXC,3QGHA0EA1MGR4GKNSEWY8BJ80SRWBM,3EQHHY4HQW8W4XB8216586TFQKL5GY,1,2
210,2,object_03,object_01,681.27000000002,3,1,252.52499999991,0.2222222222222222,1,object_05,1,2958,0,2,0,forest_7,1,memory-2step-stake-s,707,4053010,0.0-19.0-0.1-0.210,AAURS65ZO4SXC,3QGHA0EA1MGR4GKNSEWY8BJ80SRWBM,3EQHHY4HQW8W4XB8216586TFQKL5GY,3,4
211,2,object_03,object_01,933.58999999939,4,2,328.34999999963,0.2222222222222222,2,object_10,1,2960,0,1,2,forest_3,1,memory-2step-stake-s,708,4060755,0.0-19.0-0.1-0.211,AAURS65ZO4SXC,3QGHA0EA1MGR4GKNSEWY8BJ80SRWBM,3EQHHY4HQW8W4XB8216586TFQKL5GY,3,4
212,3,object_09,object_02,708.64999999944,5,2,239.47499999916,0.2222222222222222,1,object_05,5,2970,0,2,1,library_5,1,memory-2step-stake-s,709,4068413,0.0-19.0-0.1-0.212,AAURS65ZO4SXC,3QGHA0EA1MGR4GKNSEWY8BJ80SRWBM,3EQHHY4HQW8W4XB8216586TFQKL5GY,6,5
213,3,object_09,object_02,595.59999999963,6,1,314.04000000004,0.0,2,object_10,5,2970,0,2,0,library_5,1,memory-2step-stake-s,710,4075942,0.0-19.0-0.1-0.213,AAURS65ZO4SXC,3QGHA0EA1MGR4GKNSEWY8BJ80SRWBM,3EQHHY4HQW8W4XB8216586TFQKL5GY,6,5
214,1,object_07,object_06,708.97500000056,2,2,291.7200000002,0.1111111111111111,2,object_10,1,2971,0,7,1,desert_1,1,memory-2step-stake-s,711,4083549,0.0-19.0-0.1-0.214,AAURS65ZO4SXC,3QGHA0EA1MGR4GKNSEWY8BJ80SRWBM,3EQHHY4HQW8W4XB8216586TFQKL5GY,1,2
215,1,object_07,object_06,609.10000000056,2,2,278.39999999944,0.4444444444444444,2,object_10,1,2975,0,6,4,desert_2,1,memory-2step-stake-s,712,4091445,0.0-19.0-0.1-0.215,AAURS65ZO4SXC,3QGHA0EA1MGR4GKNSEWY8BJ80SRWBM,3EQHHY4HQW8W4XB8216586TFQKL5GY,1,2
216,3,object_02,object_09,814.27500000037,5,1,247.8599999994,0.5555555555555556,1,object_05,1,2980,0,5,7,library_2,1,memory-2step-stake-s,713,4099410,0.0-19.0-0.1-0.216,AAURS65ZO4SXC,3QGHA0EA1MGR4GKNSEWY8BJ80SRWBM,3EQHHY4HQW8W4XB8216586TFQKL5GY,5,6
217,2,object_03,object_01,521.83500000043,4,2,207.61500000022,0.7777777777777778,2,object_10,1,2987,0,6,7,forest_4,1,memory-2step-stake-s,714,4107538,0.0-19.0-0.1-0.217,AAURS65ZO4SXC,3QGHA0EA1MGR4GKNSEWY8BJ80SRWBM,3EQHHY4HQW8W4XB8216586TFQKL5GY,3,4
218,3,object_09,object_02,545.15999999968,5,2,277.26499999966,0.8888888888888888,1,object_05,5,3027,0,8,4,library_2,1,memory-2step-stake-s,715,4115837,0.0-19.0-0.1-0.218,AAURS65ZO4SXC,3QGHA0EA1MGR4GKNSEWY8BJ80SRWBM,3EQHHY4HQW8W4XB8216586TFQKL5GY,6,5
219,2,object_01,object_03,641.17499999981,3,2,231.5950000002,1.0,1,object_05,1,3036,0,9,4,forest_7,1,memory-2step-stake-s,716,4124189,0.0-19.0-0.1-0.219,AAURS65ZO4SXC,3QGHA0EA1MGR4GKNSEWY8BJ80SRWBM,3EQHHY4HQW8W4XB8216586TFQKL5GY,4,3
220,4,object_08,object_04,676.06500000088,8,1,292.47999999998,0.5555555555555556,2,object_10,5,3061,0,8,5,restaurant_5,1,memory-2step-stake-s,717,4132201,0.0-19.0-0.1-0.220,AAURS65ZO4SXC,3QGHA0EA1MGR4GKNSEWY8BJ80SRWBM,3EQHHY4HQW8W4XB8216586TFQKL5GY,8,7
221,1,object_06,object_07,700.59000000078,1,2,202.08999999985,0.6666666666666666,1,object_05,1,3067,0,6,8,desert_7,1,memory-2step-stake-s,718,4140223,0.0-19.0-0.1-0.221,AAURS65ZO4SXC,3QGHA0EA1MGR4GKNSEWY8BJ80SRWBM,3EQHHY4HQW8W4XB8216586TFQKL5GY,2,1
222,2,object_01,object_03,608.38999999966,3,2,199.51499999966,0.7777777777777778,1,object_05,1,3074,0,7,8,forest_4,1,memory-2step-stake-s,719,4148342,0.0-19.0-0.1-0.222,AAURS65ZO4SXC,3QGHA0EA1MGR4GKNSEWY8BJ80SRWBM,3EQHHY4HQW8W4XB8216586TFQKL5GY,4,3
223,4,object_08,object_04,555.93500000052,8,1,212.05500000017,0.7777777777777778,2,object_10,5,3109,0,6,7,restaurant_7,1,memory-2step-stake-s,720,4156474,0.0-19.0-0.1-0.223,AAURS65ZO4SXC,3QGHA0EA1MGR4GKNSEWY8BJ80SRWBM,3EQHHY4HQW8W4XB8216586TFQKL5GY,8,7
224,4,object_08,object_04,407.6650000005,8,1,239.10000000056,0.5555555555555556,2,object_10,5,3134,0,3,5,restaurant_1,1,memory-2step-stake-s,721,4164433,0.0-19.0-0.1-0.224,AAURS65ZO4SXC,3QGHA0EA1MGR4GKNSEWY8BJ80SRWBM,3EQHHY4HQW8W4XB8216586TFQKL5GY,8,7
225,2,object_01,object_03,568.6549999998,3,2,322.11999999871,0.6666666666666666,1,object_05,1,3140,0,6,1,forest_5,1,memory-2step-stake-s,722,4172578,0.0-19.0-0.1-0.225,AAURS65ZO4SXC,3QGHA0EA1MGR4GKNSEWY8BJ80SRWBM,3EQHHY4HQW8W4XB8216586TFQKL5GY,4,3
226,3,object_09,object_02,841.17499999935,5,2,294.98500000034,0.7777777777777778,1,object_05,5,3175,0,7,2,library_6,1,memory-2step-stake-s,723,4180792,0.0-19.0-0.1-0.226,AAURS65ZO4SXC,3QGHA0EA1MGR4GKNSEWY8BJ80SRWBM,3EQHHY4HQW8W4XB8216586TFQKL5GY,6,5
227,4,object_04,object_08,732.08999999939,7,1,212.67000000086,1.0,1,object_05,1,3184,0,9,4,restaurant_6,1,memory-2step-stake-s,724,4189125,0.0-19.0-0.1-0.227,AAURS65ZO4SXC,3QGHA0EA1MGR4GKNSEWY8BJ80SRWBM,3EQHHY4HQW8W4XB8216586TFQKL5GY,7,8
228,2,object_03,object_01,732.66499999957,3,1,227.41499999911,0.8888888888888888,1,object_05,1,3192,0,8,2,forest_4,1,memory-2step-stake-s,725,4197372,0.0-19.0-0.1-0.228,AAURS65ZO4SXC,3QGHA0EA1MGR4GKNSEWY8BJ80SRWBM,3EQHHY4HQW8W4XB8216586TFQKL5GY,3,4
229,4,object_04,object_08,886.5550000011,7,1,297.7649999992,0.7777777777777778,1,object_05,5,3227,0,7,1,restaurant_6,1,memory-2step-stake-s,726,4205589,0.0-19.0-0.1-0.229,AAURS65ZO4SXC,3QGHA0EA1MGR4GKNSEWY8BJ80SRWBM,3EQHHY4HQW8W4XB8216586TFQKL5GY,7,8
230,4,object_04,object_08,657.02000000048,8,2,347.79499999993,0.3333333333333333,2,object_10,5,3242,0,5,3,restaurant_7,1,memory-2step-stake-s,727,4213452,0.0-19.0-0.1-0.230,AAURS65ZO4SXC,3QGHA0EA1MGR4GKNSEWY8BJ80SRWBM,3EQHHY4HQW8W4XB8216586TFQKL5GY,7,8
231,4,object_08,object_04,972.64499999955,7,2,312.99000000022,0.6666666666666666,1,object_05,5,3272,0,6,3,restaurant_6,1,memory-2step-stake-s,728,4221585,0.0-19.0-0.1-0.231,AAURS65ZO4SXC,3QGHA0EA1MGR4GKNSEWY8BJ80SRWBM,3EQHHY4HQW8W4XB8216586TFQKL5GY,8,7
232,1,object_07,object_06,683.10999999987,2,2,215.58999999985,0.1111111111111111,2,object_10,5,3277,0,7,1,desert_5,1,memory-2step-stake-s,729,4229116,0.0-19.0-0.1-0.232,AAURS65ZO4SXC,3QGHA0EA1MGR4GKNSEWY8BJ80SRWBM,3EQHHY4HQW8W4XB8216586TFQKL5GY,1,2
233,4,object_08,object_04,315.9999999986,8,1,225.73500000034,0.3333333333333333,2,object_10,1,3280,0,6,3,restaurant_1,1,memory-2step-stake-s,730,4236860,0.0-19.0-0.1-0.233,AAURS65ZO4SXC,3QGHA0EA1MGR4GKNSEWY8BJ80SRWBM,3EQHHY4HQW8W4XB8216586TFQKL5GY,8,7
234,1,object_07,object_06,881.72499999963,2,2,207.57500000019,0.4444444444444444,2,object_10,1,3284,0,6,4,desert_7,1,memory-2step-stake-s,731,4244687,0.0-19.0-0.1-0.234,AAURS65ZO4SXC,3QGHA0EA1MGR4GKNSEWY8BJ80SRWBM,3EQHHY4HQW8W4XB8216586TFQKL5GY,1,2
235,3,object_02,object_09,665.96499999985,6,2,248.38000000082,0.4444444444444444,2,object_10,5,3304,0,7,4,library_6,1,memory-2step-stake-s,732,4252553,0.0-19.0-0.1-0.235,AAURS65ZO4SXC,3QGHA0EA1MGR4GKNSEWY8BJ80SRWBM,3EQHHY4HQW8W4XB8216586TFQKL5GY,5,6
236,2,object_01,object_03,1073.6949999994,4,1,328.00999999885,0.4444444444444444,2,object_10,1,3308,0,7,4,forest_3,1,memory-2step-stake-s,733,4260498,0.0-19.0-0.1-0.236,AAURS65ZO4SXC,3QGHA0EA1MGR4GKNSEWY8BJ80SRWBM,3EQHHY4HQW8W4XB8216586TFQKL5GY,4,3
237,3,object_02,object_09,687.5849999995,6,2,291.59500000067,0.3333333333333333,2,object_10,5,3323,0,8,3,library_2,1,memory-2step-stake-s,734,4268307,0.0-19.0-0.1-0.237,AAURS65ZO4SXC,3QGHA0EA1MGR4GKNSEWY8BJ80SRWBM,3EQHHY4HQW8W4XB8216586TFQKL5GY,5,6
238,1,object_06,object_07,882.90000000037,2,1,284.29999999888,0.2222222222222222,2,object_10,1,3325,0,5,2,desert_5,1,memory-2step-stake-s,735,4276007,0.0-19.0-0.1-0.238,AAURS65ZO4SXC,3QGHA0EA1MGR4GKNSEWY8BJ80SRWBM,3EQHHY4HQW8W4XB8216586TFQKL5GY,2,1
239,1,object_06,object_07,783.16499999911,1,2,525.12999999989,0.5555555555555556,1,object_05,5,3350,0,5,3,desert_1,1,memory-2step-stake-s,736,4284250,0.0-19.0-0.1-0.239,AAURS65ZO4SXC,3QGHA0EA1MGR4GKNSEWY8BJ80SRWBM,3EQHHY4HQW8W4XB8216586TFQKL5GY,2,1
240,3,object_02,object_09,561.77999999933,5,1,341.58999999985,0.8888888888888888,1,object_05,5,3390,0,8,3,library_2,1,memory-2step-stake-s,737,4292613,0.0-19.0-0.1-0.240,AAURS65ZO4SXC,3QGHA0EA1MGR4GKNSEWY8BJ80SRWBM,3EQHHY4HQW8W4XB8216586TFQKL5GY,5,6
241,3,object_02,object_09,576.51000000071,5,1,359.19999999925,0.7777777777777778,1,object_05,5,3425,0,7,1,library_6,1,memory-2step-stake-s,738,4300902,0.0-19.0-0.1-0.241,AAURS65ZO4SXC,3QGHA0EA1MGR4GKNSEWY8BJ80SRWBM,3EQHHY4HQW8W4XB8216586TFQKL5GY,5,6
242,3,object_02,object_09,592.78500000015,6,2,264.63999999873,0.5555555555555556,2,object_10,1,3430,0,5,5,library_6,1,memory-2step-stake-s,739,4308896,0.0-19.0-0.1-0.242,AAURS65ZO4SXC,3QGHA0EA1MGR4GKNSEWY8BJ80SRWBM,3EQHHY4HQW8W4XB8216586TFQKL5GY,5,6
243,2,object_03,object_01,912.97499999963,3,1,289.81999999937,0.6666666666666666,1,object_05,1,3436,0,6,3,forest_5,1,memory-2step-stake-s,740,4317005,0.0-19.0-0.1-0.243,AAURS65ZO4SXC,3QGHA0EA1MGR4GKNSEWY8BJ80SRWBM,3EQHHY4HQW8W4XB8216586TFQKL5GY,3,4
244,2,object_01,object_03,561.05000000075,3,2,183.0849999981,0.6666666666666666,1,object_05,1,3442,0,6,3,forest_5,1,memory-2step-stake-s,741,4325006,0.0-19.0-0.1-0.244,AAURS65ZO4SXC,3QGHA0EA1MGR4GKNSEWY8BJ80SRWBM,3EQHHY4HQW8W4XB8216586TFQKL5GY,4,3
245,4,object_04,object_08,880.77499999944,7,1,201.42000000086,0.8888888888888888,1,object_05,5,3482,0,8,7,restaurant_7,1,memory-2step-stake-s,742,4333229,0.0-19.0-0.1-0.245,AAURS65ZO4SXC,3QGHA0EA1MGR4GKNSEWY8BJ80SRWBM,3EQHHY4HQW8W4XB8216586TFQKL5GY,7,8
246,3,object_02,object_09,661.08000000007,6,2,206.0999999987,0.6666666666666666,2,object_10,5,3512,0,7,6,library_2,1,memory-2step-stake-s,743,4341253,0.0-19.0-0.1-0.246,AAURS65ZO4SXC,3QGHA0EA1MGR4GKNSEWY8BJ80SRWBM,3EQHHY4HQW8W4XB8216586TFQKL5GY,5,6
247,4,object_08,object_04,945.69000000041,7,2,365.11000000034,1.0,1,object_05,5,3557,0,9,5,restaurant_6,1,memory-2step-stake-s,744,4349739,0.0-19.0-0.1-0.247,AAURS65ZO4SXC,3QGHA0EA1MGR4GKNSEWY8BJ80SRWBM,3EQHHY4HQW8W4XB8216586TFQKL5GY,8,7
248,2,object_03,object_01,926.70500000007,3,1,288.18499999959,0.7777777777777778,1,object_05,1,3564,0,7,7,forest_7,1,memory-2step-stake-s,745,4357948,0.0-19.0-0.1-0.248,AAURS65ZO4SXC,3QGHA0EA1MGR4GKNSEWY8BJ80SRWBM,3EQHHY4HQW8W4XB8216586TFQKL5GY,3,4
249,3,object_02,object_09,1099.6600000001,6,2,270.71999999881,0.1111111111111111,2,object_10,5,3569,0,9,1,library_3,1,memory-2step-stake-s,746,4365536,0.0-19.0-0.1-0.249,AAURS65ZO4SXC,3QGHA0EA1MGR4GKNSEWY8BJ80SRWBM,3EQHHY4HQW8W4XB8216586TFQKL5GY,5,6
250,4,object_08,object_04,1138.8449999988,8,1,263.33000000007,0.2222222222222222,2,object_10,5,3579,0,6,2,restaurant_5,1,memory-2step-stake-s,747,4373217,0.0-19.0-0.1-0.250,AAURS65ZO4SXC,3QGHA0EA1MGR4GKNSEWY8BJ80SRWBM,3EQHHY4HQW8W4XB8216586TFQKL5GY,8,7
251,4,object_04,object_08,619.71500000078,7,1,229.20999999903,0.3333333333333333,1,object_05,5,3594,0,3,0,restaurant_1,1,memory-2step-stake-s,748,4380961,0.0-19.0-0.1-0.251,AAURS65ZO4SXC,3QGHA0EA1MGR4GKNSEWY8BJ80SRWBM,3EQHHY4HQW8W4XB8216586TFQKL5GY,7,8
252,3,object_09,object_02,688.71000000089,5,2,194.96499999985,0.4444444444444444,1,object_05,5,3614,0,4,0,library_6,1,memory-2step-stake-s,749,4388774,0.0-19.0-0.1-0.252,AAURS65ZO4SXC,3QGHA0EA1MGR4GKNSEWY8BJ80SRWBM,3EQHHY4HQW8W4XB8216586TFQKL5GY,6,5
253,3,object_09,object_02,800.87500000093,5,2,243.06500000041,0.7777777777777778,1,object_05,5,3649,0,7,5,library_3,1,memory-2step-stake-s,750,4396938,0.0-19.0-0.1-0.253,AAURS65ZO4SXC,3QGHA0EA1MGR4GKNSEWY8BJ80SRWBM,3EQHHY4HQW8W4XB8216586TFQKL5GY,6,5
254,1,object_07,object_06,206.52499999944,2,2,241.06999999937,0.2222222222222222,2,object_10,1,3651,0,8,2,desert_1,1,memory-2step-stake-s,751,4404597,0.0-19.0-0.1-0.254,AAURS65ZO4SXC,3QGHA0EA1MGR4GKNSEWY8BJ80SRWBM,3EQHHY4HQW8W4XB8216586TFQKL5GY,1,2
255,4,object_04,object_08,1134.3650000002,7,1,916.24000000022,0.8888888888888888,1,object_05,5,3691,0,8,7,restaurant_5,1,memory-2step-stake-s,752,4413532,0.0-19.0-0.1-0.255,AAURS65ZO4SXC,3QGHA0EA1MGR4GKNSEWY8BJ80SRWBM,3EQHHY4HQW8W4XB8216586TFQKL5GY,7,8
