,state1,stim_left,stim_right,rt_1,choice1,response1,rt_2,points,state2,stim_state2,stake,score,practice,rews1,rews2,background,high_arm,trial_type,trial_index,time_elapsed,internal_node_id,subid,hitid,assignmentid,stim_left_num,stim_right_num
0,1,object_09,object_06,742.10000002384,1,1,-1.0,0.0,1,object_03,5,0,0,3,6,desert_8,2,memory-2step-stake-s,529,948477,0.0-19.0-0.0-0.0,A2DLYBXZNSSJ4S,306996CF7Z0Y3F4KVQ7DFLTE4FJB13,3Z3ZLGNNSMAK37IIRENONNZXIBY3QW,1,2
1,1,object_09,object_06,1176.7999999523,1,1,-1.0,0.0,1,object_03,1,0,0,5,8,desert_7,2,memory-2step-stake-s,530,957014,0.0-19.0-0.0-0.1,A2DLYBXZNSSJ4S,306996CF7Z0Y3F4KVQ7DFLTE4FJB13,3Z3ZLGNNSMAK37IIRENONNZXIBY3QW,1,2
2,1,object_09,object_06,-1.0,-1,-1,-1.0,0.0,-,0,5,0,0,2,7,desert_7,2,memory-2step-stake-s,531,963571,0.0-19.0-0.0-0.2,A2DLYBXZNSSJ4S,306996CF7Z0Y3F4KVQ7DFLTE4FJB13,3Z3ZLGNNSMAK37IIRENONNZXIBY3QW,1,2
3,4,object_08,object_07,133.69999992847,7,2,54.5,0.3333333333333333,1,object_03,1,3,0,3,6,restaurant_2,2,memory-2step-stake-s,532,971226,0.0-19.0-0.0-0.3,A2DLYBXZNSSJ4S,306996CF7Z0Y3F4KVQ7DFLTE4FJB13,3Z3ZLGNNSMAK37IIRENONNZXIBY3QW,8,7
4,1,object_06,object_09,126.0,1,2,-1.0,0.0,1,object_03,5,3,0,0,7,desert_4,2,memory-2step-stake-s,533,979778,0.0-19.0-0.0-0.4,A2DLYBXZNSSJ4S,306996CF7Z0Y3F4KVQ7DFLTE4FJB13,3Z3ZLGNNSMAK37IIRENONNZXIBY3QW,2,1
5,1,object_09,object_06,64.299999952316,1,1,-1.0,0.0,1,object_03,1,3,0,0,4,desert_7,2,memory-2step-stake-s,534,988331,0.0-19.0-0.0-0.5,A2DLYBXZNSSJ4S,306996CF7Z0Y3F4KVQ7DFLTE4FJB13,3Z3ZLGNNSMAK37IIRENONNZXIBY3QW,1,2
6,3,object_02,object_10,47.399999976158,5,2,-1.0,0.0,1,object_03,1,3,0,3,4,library_7,2,memory-2step-stake-s,535,996899,0.0-19.0-0.0-0.6,A2DLYBXZNSSJ4S,306996CF7Z0Y3F4KVQ7DFLTE4FJB13,3Z3ZLGNNSMAK37IIRENONNZXIBY3QW,6,5
7,2,object_05,object_01,166.79999995232,4,1,-1.0,0.0,2,object_04,5,3,0,1,4,forest_8,2,memory-2step-stake-s,536,1005494,0.0-19.0-0.0-0.7,A2DLYBXZNSSJ4S,306996CF7Z0Y3F4KVQ7DFLTE4FJB13,3Z3ZLGNNSMAK37IIRENONNZXIBY3QW,4,3
8,1,object_06,object_09,-1.0,-1,-1,-1.0,0.0,-,0,5,3,0,2,5,desert_7,2,memory-2step-stake-s,537,1012040,0.0-19.0-0.0-0.8,A2DLYBXZNSSJ4S,306996CF7Z0Y3F4KVQ7DFLTE4FJB13,3Z3ZLGNNSMAK37IIRENONNZXIBY3QW,2,1
9,3,object_10,object_02,86.899999976158,5,1,-1.0,0.0,1,object_03,1,3,0,3,1,library_7,2,memory-2step-stake-s,538,1020608,0.0-19.0-0.0-0.9,A2DLYBXZNSSJ4S,306996CF7Z0Y3F4KVQ7DFLTE4FJB13,3Z3ZLGNNSMAK37IIRENONNZXIBY3QW,5,6
10,1,object_06,object_09,-1.0,-1,-1,-1.0,0.0,-,0,5,3,0,3,1,desert_4,2,memory-2step-stake-s,539,1027178,0.0-19.0-0.0-0.10,A2DLYBXZNSSJ4S,306996CF7Z0Y3F4KVQ7DFLTE4FJB13,3Z3ZLGNNSMAK37IIRENONNZXIBY3QW,2,1
11,1,object_06,object_09,305.29999995232,1,2,-1.0,0.0,1,object_03,5,3,0,3,0,desert_7,2,memory-2step-stake-s,540,1035711,0.0-19.0-0.0-0.11,A2DLYBXZNSSJ4S,306996CF7Z0Y3F4KVQ7DFLTE4FJB13,3Z3ZLGNNSMAK37IIRENONNZXIBY3QW,2,1
12,1,object_06,object_09,21.0,2,1,-1.0,0.0,2,object_04,5,3,0,3,2,desert_8,2,memory-2step-stake-s,541,1044259,0.0-19.0-0.0-0.12,A2DLYBXZNSSJ4S,306996CF7Z0Y3F4KVQ7DFLTE4FJB13,3Z3ZLGNNSMAK37IIRENONNZXIBY3QW,2,1
13,4,object_07,object_08,118.10000002384,7,1,-1.0,0.0,1,object_03,1,3,0,3,7,restaurant_2,2,memory-2step-stake-s,542,1052820,0.0-19.0-0.0-0.13,A2DLYBXZNSSJ4S,306996CF7Z0Y3F4KVQ7DFLTE4FJB13,3Z3ZLGNNSMAK37IIRENONNZXIBY3QW,7,8
14,4,object_07,object_08,-1.0,-1,-1,-1.0,0.0,-,0,1,3,0,6,8,restaurant_2,2,memory-2step-stake-s,543,1059351,0.0-19.0-0.0-0.14,A2DLYBXZNSSJ4S,306996CF7Z0Y3F4KVQ7DFLTE4FJB13,3Z3ZLGNNSMAK37IIRENONNZXIBY3QW,7,8
15,4,object_08,object_07,288.20000004768,7,2,842.0,0.7777777777777778,1,object_03,1,10,0,7,9,restaurant_7,2,memory-2step-stake-s,544,1068258,0.0-19.0-0.0-0.15,A2DLYBXZNSSJ4S,306996CF7Z0Y3F4KVQ7DFLTE4FJB13,3Z3ZLGNNSMAK37IIRENONNZXIBY3QW,8,7
16,3,object_02,object_10,1028.3999999762,6,1,122.20000004768,0.8888888888888888,2,object_04,1,18,0,4,8,library_5,2,memory-2step-stake-s,545,1076524,0.0-19.0-0.0-0.16,A2DLYBXZNSSJ4S,306996CF7Z0Y3F4KVQ7DFLTE4FJB13,3Z3ZLGNNSMAK37IIRENONNZXIBY3QW,6,5
17,3,object_10,object_02,-1.0,-1,-1,-1.0,0.0,-,0,5,18,0,8,9,library_6,2,memory-2step-stake-s,546,1083085,0.0-19.0-0.0-0.17,A2DLYBXZNSSJ4S,306996CF7Z0Y3F4KVQ7DFLTE4FJB13,3Z3ZLGNNSMAK37IIRENONNZXIBY3QW,5,6
18,2,object_01,object_05,-1.0,-1,-1,-1.0,0.0,-,0,5,18,0,7,8,forest_6,2,memory-2step-stake-s,547,1089648,0.0-19.0-0.0-0.18,A2DLYBXZNSSJ4S,306996CF7Z0Y3F4KVQ7DFLTE4FJB13,3Z3ZLGNNSMAK37IIRENONNZXIBY3QW,3,4
19,2,object_01,object_05,39.0,4,2,1173.1000000238,1.0,2,object_04,5,63,0,9,9,forest_8,2,memory-2step-stake-s,548,1099054,0.0-19.0-0.0-0.19,A2DLYBXZNSSJ4S,306996CF7Z0Y3F4KVQ7DFLTE4FJB13,3Z3ZLGNNSMAK37IIRENONNZXIBY3QW,3,4
20,3,object_02,object_10,175.0,5,2,283.5,0.7777777777777778,1,object_03,1,70,0,7,8,library_2,2,memory-2step-stake-s,549,1107405,0.0-19.0-0.0-0.20,A2DLYBXZNSSJ4S,306996CF7Z0Y3F4KVQ7DFLTE4FJB13,3Z3ZLGNNSMAK37IIRENONNZXIBY3QW,6,5
21,3,object_10,object_02,86.199999928474,6,2,48.799999952316,0.6666666666666666,2,object_04,1,76,0,8,6,library_7,2,memory-2step-stake-s,550,1115413,0.0-19.0-0.0-0.21,A2DLYBXZNSSJ4S,306996CF7Z0Y3F4KVQ7DFLTE4FJB13,3Z3ZLGNNSMAK37IIRENONNZXIBY3QW,5,6
22,1,object_06,object_09,91.600000023842,2,1,167.39999997616,0.6666666666666666,2,object_04,5,106,0,8,6,desert_7,2,memory-2step-stake-s,551,1123506,0.0-19.0-0.0-0.22,A2DLYBXZNSSJ4S,306996CF7Z0Y3F4KVQ7DFLTE4FJB13,3Z3ZLGNNSMAK37IIRENONNZXIBY3QW,2,1
23,1,object_06,object_09,31.899999976158,1,2,392.0,1.0,1,object_03,5,151,0,9,5,desert_4,2,memory-2step-stake-s,552,1132226,0.0-19.0-0.0-0.23,A2DLYBXZNSSJ4S,306996CF7Z0Y3F4KVQ7DFLTE4FJB13,3Z3ZLGNNSMAK37IIRENONNZXIBY3QW,2,1
24,1,object_06,object_09,29.299999952316,1,2,-1.0,0.0,1,object_03,5,151,0,7,4,desert_8,2,memory-2step-stake-s,553,1140805,0.0-19.0-0.0-0.24,A2DLYBXZNSSJ4S,306996CF7Z0Y3F4KVQ7DFLTE4FJB13,3Z3ZLGNNSMAK37IIRENONNZXIBY3QW,2,1
25,1,object_09,object_06,142.0,2,2,148.5,0.5555555555555556,2,object_04,5,176,0,7,5,desert_4,2,memory-2step-stake-s,554,1148738,0.0-19.0-0.0-0.25,A2DLYBXZNSSJ4S,306996CF7Z0Y3F4KVQ7DFLTE4FJB13,3Z3ZLGNNSMAK37IIRENONNZXIBY3QW,1,2
26,3,object_10,object_02,101.20000004768,6,2,17.100000023842,0.7777777777777778,2,object_04,1,183,0,6,7,library_5,2,memory-2step-stake-s,555,1156754,0.0-19.0-0.0-0.26,A2DLYBXZNSSJ4S,306996CF7Z0Y3F4KVQ7DFLTE4FJB13,3Z3ZLGNNSMAK37IIRENONNZXIBY3QW,5,6
27,1,object_06,object_09,360.60000002384,1,2,172.89999997616,0.8888888888888888,1,object_03,5,223,0,8,8,desert_3,2,memory-2step-stake-s,556,1165055,0.0-19.0-0.0-0.27,A2DLYBXZNSSJ4S,306996CF7Z0Y3F4KVQ7DFLTE4FJB13,3Z3ZLGNNSMAK37IIRENONNZXIBY3QW,2,1
28,2,object_05,object_01,90.199999928474,3,2,149.90000009537,0.8888888888888888,1,object_03,5,263,0,8,8,forest_1,2,memory-2step-stake-s,557,1173328,0.0-19.0-0.0-0.28,A2DLYBXZNSSJ4S,306996CF7Z0Y3F4KVQ7DFLTE4FJB13,3Z3ZLGNNSMAK37IIRENONNZXIBY3QW,4,3
29,1,object_09,object_06,58.100000023842,2,2,97.800000071526,0.8888888888888888,2,object_04,5,303,0,7,8,desert_3,2,memory-2step-stake-s,558,1181570,0.0-19.0-0.0-0.29,A2DLYBXZNSSJ4S,306996CF7Z0Y3F4KVQ7DFLTE4FJB13,3Z3ZLGNNSMAK37IIRENONNZXIBY3QW,1,2
30,2,object_01,object_05,27.399999976158,3,1,81.5,0.7777777777777778,1,object_03,5,338,0,7,8,forest_8,2,memory-2step-stake-s,559,1189634,0.0-19.0-0.0-0.30,A2DLYBXZNSSJ4S,306996CF7Z0Y3F4KVQ7DFLTE4FJB13,3Z3ZLGNNSMAK37IIRENONNZXIBY3QW,3,4
31,2,object_01,object_05,11.200000047684,4,2,82.0,0.7777777777777778,2,object_04,5,373,0,4,7,forest_1,2,memory-2step-stake-s,560,1197783,0.0-19.0-0.0-0.31,A2DLYBXZNSSJ4S,306996CF7Z0Y3F4KVQ7DFLTE4FJB13,3Z3ZLGNNSMAK37IIRENONNZXIBY3QW,3,4
32,4,object_07,object_08,67.399999976158,8,2,21.0,0.7777777777777778,2,object_04,1,380,0,5,7,restaurant_1,2,memory-2step-stake-s,561,1205836,0.0-19.0-0.0-0.32,A2DLYBXZNSSJ4S,306996CF7Z0Y3F4KVQ7DFLTE4FJB13,3Z3ZLGNNSMAK37IIRENONNZXIBY3QW,7,8
33,4,object_08,object_07,53.399999976158,7,2,401.39999997616,0.3333333333333333,1,object_03,1,383,0,3,7,restaurant_1,2,memory-2step-stake-s,562,1213804,0.0-19.0-0.0-0.33,A2DLYBXZNSSJ4S,306996CF7Z0Y3F4KVQ7DFLTE4FJB13,3Z3ZLGNNSMAK37IIRENONNZXIBY3QW,8,7
34,2,object_01,object_05,147.29999995232,3,1,227.89999997616,0.5555555555555556,1,object_03,5,408,0,5,9,forest_6,2,memory-2step-stake-s,563,1221804,0.0-19.0-0.0-0.34,A2DLYBXZNSSJ4S,306996CF7Z0Y3F4KVQ7DFLTE4FJB13,3Z3ZLGNNSMAK37IIRENONNZXIBY3QW,3,4
35,4,object_07,object_08,48.300000071526,7,1,23.700000047684,0.2222222222222222,1,object_03,1,410,0,2,9,restaurant_2,2,memory-2step-stake-s,564,1229271,0.0-19.0-0.0-0.35,A2DLYBXZNSSJ4S,306996CF7Z0Y3F4KVQ7DFLTE4FJB13,3Z3ZLGNNSMAK37IIRENONNZXIBY3QW,7,8
36,4,object_07,object_08,14.899999976158,8,2,218.89999997616,0.8888888888888888,2,object_04,1,418,0,1,8,restaurant_4,2,memory-2step-stake-s,565,1237645,0.0-19.0-0.0-0.36,A2DLYBXZNSSJ4S,306996CF7Z0Y3F4KVQ7DFLTE4FJB13,3Z3ZLGNNSMAK37IIRENONNZXIBY3QW,7,8
37,3,object_10,object_02,155.39999997616,5,1,160.39999997616,0.2222222222222222,1,object_03,1,420,0,2,8,library_6,2,memory-2step-stake-s,566,1245306,0.0-19.0-0.0-0.37,A2DLYBXZNSSJ4S,306996CF7Z0Y3F4KVQ7DFLTE4FJB13,3Z3ZLGNNSMAK37IIRENONNZXIBY3QW,5,6
38,2,object_01,object_05,751.0,3,1,81.200000047684,0.6666666666666666,1,object_03,5,450,0,6,7,forest_7,2,memory-2step-stake-s,567,1253283,0.0-19.0-0.0-0.38,A2DLYBXZNSSJ4S,306996CF7Z0Y3F4KVQ7DFLTE4FJB13,3Z3ZLGNNSMAK37IIRENONNZXIBY3QW,3,4
39,3,object_02,object_10,171.60000002384,6,1,89.5,0.7777777777777778,2,object_04,5,485,0,6,7,library_5,2,memory-2step-stake-s,568,1261376,0.0-19.0-0.0-0.39,A2DLYBXZNSSJ4S,306996CF7Z0Y3F4KVQ7DFLTE4FJB13,3Z3ZLGNNSMAK37IIRENONNZXIBY3QW,6,5
40,1,object_09,object_06,257.09999990463,1,1,40.300000071526,0.5555555555555556,1,object_03,5,510,0,5,6,desert_3,2,memory-2step-stake-s,569,1269242,0.0-19.0-0.0-0.40,A2DLYBXZNSSJ4S,306996CF7Z0Y3F4KVQ7DFLTE4FJB13,3Z3ZLGNNSMAK37IIRENONNZXIBY3QW,1,2
41,4,object_07,object_08,197.79999995232,8,2,69.299999952316,0.7777777777777778,2,object_04,5,545,0,3,7,restaurant_2,2,memory-2step-stake-s,570,1277356,0.0-19.0-0.0-0.41,A2DLYBXZNSSJ4S,306996CF7Z0Y3F4KVQ7DFLTE4FJB13,3Z3ZLGNNSMAK37IIRENONNZXIBY3QW,7,8
42,3,object_10,object_02,213.60000002384,6,2,330.10000002384,0.7777777777777778,2,object_04,1,552,0,4,7,library_5,2,memory-2step-stake-s,571,1285702,0.0-19.0-0.0-0.42,A2DLYBXZNSSJ4S,306996CF7Z0Y3F4KVQ7DFLTE4FJB13,3Z3ZLGNNSMAK37IIRENONNZXIBY3QW,5,6
43,2,object_05,object_01,6.2000000476837,3,2,127.5,0.8888888888888888,1,object_03,5,592,0,8,4,forest_7,2,memory-2step-stake-s,572,1293946,0.0-19.0-0.0-0.43,A2DLYBXZNSSJ4S,306996CF7Z0Y3F4KVQ7DFLTE4FJB13,3Z3ZLGNNSMAK37IIRENONNZXIBY3QW,4,3
44,4,object_08,object_07,99.100000023842,8,1,172.79999995232,0.3333333333333333,2,object_04,1,595,0,8,3,restaurant_2,2,memory-2step-stake-s,573,1301708,0.0-19.0-0.0-0.44,A2DLYBXZNSSJ4S,306996CF7Z0Y3F4KVQ7DFLTE4FJB13,3Z3ZLGNNSMAK37IIRENONNZXIBY3QW,8,7
45,1,object_06,object_09,130.70000004768,2,1,93.099999904633,0.1111111111111111,2,object_04,1,596,0,6,1,desert_7,2,memory-2step-stake-s,574,1309149,0.0-19.0-0.0-0.45,A2DLYBXZNSSJ4S,306996CF7Z0Y3F4KVQ7DFLTE4FJB13,3Z3ZLGNNSMAK37IIRENONNZXIBY3QW,2,1
46,1,object_09,object_06,131.89999997616,2,2,161.19999992847,0.1111111111111111,2,object_04,5,601,0,9,1,desert_4,2,memory-2step-stake-s,575,1316684,0.0-19.0-0.0-0.46,A2DLYBXZNSSJ4S,306996CF7Z0Y3F4KVQ7DFLTE4FJB13,3Z3ZLGNNSMAK37IIRENONNZXIBY3QW,1,2
47,1,object_09,object_06,55.5,1,1,85.5,1.0,1,object_03,5,646,0,9,2,desert_3,2,memory-2step-stake-s,576,1325019,0.0-19.0-0.0-0.47,A2DLYBXZNSSJ4S,306996CF7Z0Y3F4KVQ7DFLTE4FJB13,3Z3ZLGNNSMAK37IIRENONNZXIBY3QW,1,2
48,4,object_08,object_07,1207.7000000477,8,1,119.29999995232,0.2222222222222222,2,object_04,5,656,0,5,2,restaurant_1,2,memory-2step-stake-s,577,1332601,0.0-19.0-0.0-0.48,A2DLYBXZNSSJ4S,306996CF7Z0Y3F4KVQ7DFLTE4FJB13,3Z3ZLGNNSMAK37IIRENONNZXIBY3QW,8,7
49,2,object_05,object_01,213.0,3,2,167.40000009537,0.3333333333333333,1,object_03,5,671,0,3,1,forest_6,2,memory-2step-stake-s,578,1340368,0.0-19.0-0.0-0.49,A2DLYBXZNSSJ4S,306996CF7Z0Y3F4KVQ7DFLTE4FJB13,3Z3ZLGNNSMAK37IIRENONNZXIBY3QW,4,3
50,1,object_09,object_06,44.0,1,1,54.800000071526,0.3333333333333333,1,object_03,5,686,0,3,2,desert_4,2,memory-2step-stake-s,579,1348039,0.0-19.0-0.0-0.50,A2DLYBXZNSSJ4S,306996CF7Z0Y3F4KVQ7DFLTE4FJB13,3Z3ZLGNNSMAK37IIRENONNZXIBY3QW,1,2
51,4,object_07,object_08,25.300000071526,7,1,187.60000002384,0.1111111111111111,1,object_03,1,687,0,1,0,restaurant_7,2,memory-2step-stake-s,580,1355586,0.0-19.0-0.0-0.51,A2DLYBXZNSSJ4S,306996CF7Z0Y3F4KVQ7DFLTE4FJB13,3Z3ZLGNNSMAK37IIRENONNZXIBY3QW,7,8
52,1,object_06,object_09,186.29999995232,1,2,8.5,0.1111111111111111,1,object_03,5,692,0,1,2,desert_3,2,memory-2step-stake-s,581,1362962,0.0-19.0-0.0-0.52,A2DLYBXZNSSJ4S,306996CF7Z0Y3F4KVQ7DFLTE4FJB13,3Z3ZLGNNSMAK37IIRENONNZXIBY3QW,2,1
53,1,object_06,object_09,146.19999992847,1,2,406.79999995232,0.1111111111111111,1,object_03,5,697,0,1,2,desert_4,2,memory-2step-stake-s,582,1370757,0.0-19.0-0.0-0.53,A2DLYBXZNSSJ4S,306996CF7Z0Y3F4KVQ7DFLTE4FJB13,3Z3ZLGNNSMAK37IIRENONNZXIBY3QW,2,1
54,3,object_02,object_10,62.600000023842,6,1,-1.0,0.0,2,object_04,1,697,0,2,2,library_7,2,memory-2step-stake-s,583,1379328,0.0-19.0-0.0-0.54,A2DLYBXZNSSJ4S,306996CF7Z0Y3F4KVQ7DFLTE4FJB13,3Z3ZLGNNSMAK37IIRENONNZXIBY3QW,6,5
55,2,object_01,object_05,8.3000000715256,3,1,317.79999995232,0.1111111111111111,1,object_03,1,698,0,1,3,forest_8,2,memory-2step-stake-s,584,1387023,0.0-19.0-0.0-0.55,A2DLYBXZNSSJ4S,306996CF7Z0Y3F4KVQ7DFLTE4FJB13,3Z3ZLGNNSMAK37IIRENONNZXIBY3QW,3,4
56,1,object_09,object_06,31.100000023842,2,2,35.5,0.2222222222222222,2,object_04,1,700,0,1,2,desert_8,2,memory-2step-stake-s,585,1394561,0.0-19.0-0.0-0.56,A2DLYBXZNSSJ4S,306996CF7Z0Y3F4KVQ7DFLTE4FJB13,3Z3ZLGNNSMAK37IIRENONNZXIBY3QW,1,2
57,1,object_06,object_09,235.59999990463,2,1,227.29999995232,0.2222222222222222,2,object_04,5,710,0,1,2,desert_8,2,memory-2step-stake-s,586,1402275,0.0-19.0-0.0-0.57,A2DLYBXZNSSJ4S,306996CF7Z0Y3F4KVQ7DFLTE4FJB13,3Z3ZLGNNSMAK37IIRENONNZXIBY3QW,2,1
58,2,object_05,object_01,369.39999997616,4,1,1021.0,0.1111111111111111,2,object_04,5,715,0,1,1,forest_6,2,memory-2step-stake-s,587,1410648,0.0-19.0-0.0-0.58,A2DLYBXZNSSJ4S,306996CF7Z0Y3F4KVQ7DFLTE4FJB13,3Z3ZLGNNSMAK37IIRENONNZXIBY3QW,4,3
59,3,object_02,object_10,423.70000004768,6,1,-1.0,0.0,2,object_04,5,715,0,1,4,library_5,2,memory-2step-stake-s,588,1419227,0.0-19.0-0.0-0.59,A2DLYBXZNSSJ4S,306996CF7Z0Y3F4KVQ7DFLTE4FJB13,3Z3ZLGNNSMAK37IIRENONNZXIBY3QW,6,5
60,2,object_01,object_05,614.10000002384,4,2,95.0,0.2222222222222222,2,object_04,5,725,0,2,2,forest_1,2,memory-2step-stake-s,589,1426807,0.0-19.0-0.0-0.60,A2DLYBXZNSSJ4S,306996CF7Z0Y3F4KVQ7DFLTE4FJB13,3Z3ZLGNNSMAK37IIRENONNZXIBY3QW,3,4
61,4,object_08,object_07,411.10000002384,7,2,363.79999995232,0.2222222222222222,1,object_03,1,727,0,2,1,restaurant_2,2,memory-2step-stake-s,590,1434626,0.0-19.0-0.0-0.61,A2DLYBXZNSSJ4S,306996CF7Z0Y3F4KVQ7DFLTE4FJB13,3Z3ZLGNNSMAK37IIRENONNZXIBY3QW,8,7
62,2,object_01,object_05,64.400000095367,4,2,33.0,0.0,2,object_04,5,727,0,3,0,forest_7,2,memory-2step-stake-s,591,1441930,0.0-19.0-0.0-0.62,A2DLYBXZNSSJ4S,306996CF7Z0Y3F4KVQ7DFLTE4FJB13,3Z3ZLGNNSMAK37IIRENONNZXIBY3QW,3,4
63,3,object_02,object_10,354.0,5,2,98.599999904633,0.3333333333333333,1,object_03,1,730,0,3,2,library_2,2,memory-2step-stake-s,592,1449649,0.0-19.0-0.0-0.63,A2DLYBXZNSSJ4S,306996CF7Z0Y3F4KVQ7DFLTE4FJB13,3Z3ZLGNNSMAK37IIRENONNZXIBY3QW,6,5
64,2,object_01,object_05,248.10000002384,4,2,137.79999995232,0.2222222222222222,2,object_04,5,740,0,3,2,forest_8,2,memory-2step-stake-s,593,1457297,0.0-19.0-0.0-0.64,A2DLYBXZNSSJ4S,306996CF7Z0Y3F4KVQ7DFLTE4FJB13,3Z3ZLGNNSMAK37IIRENONNZXIBY3QW,3,4
65,4,object_07,object_08,21.400000095367,8,2,59.400000095367,0.2222222222222222,2,object_04,1,742,0,1,2,restaurant_7,2,memory-2step-stake-s,594,1464821,0.0-19.0-0.0-0.65,A2DLYBXZNSSJ4S,306996CF7Z0Y3F4KVQ7DFLTE4FJB13,3Z3ZLGNNSMAK37IIRENONNZXIBY3QW,7,8
66,3,object_02,object_10,142.40000009537,5,2,6.1000000238419,0.2222222222222222,1,object_03,5,752,0,2,1,library_2,2,memory-2step-stake-s,595,1472289,0.0-19.0-0.0-0.66,A2DLYBXZNSSJ4S,306996CF7Z0Y3F4KVQ7DFLTE4FJB13,3Z3ZLGNNSMAK37IIRENONNZXIBY3QW,6,5
67,3,object_10,object_02,158.79999995232,6,2,356.60000002384,0.0,2,object_04,1,752,0,0,0,library_5,2,memory-2step-stake-s,596,1479890,0.0-19.0-0.0-0.67,A2DLYBXZNSSJ4S,306996CF7Z0Y3F4KVQ7DFLTE4FJB13,3Z3ZLGNNSMAK37IIRENONNZXIBY3QW,5,6
68,3,object_10,object_02,133.89999997616,6,2,60.799999952316,0.1111111111111111,2,object_04,1,753,0,4,1,library_7,2,memory-2step-stake-s,597,1487305,0.0-19.0-0.0-0.68,A2DLYBXZNSSJ4S,306996CF7Z0Y3F4KVQ7DFLTE4FJB13,3Z3ZLGNNSMAK37IIRENONNZXIBY3QW,5,6
69,4,object_07,object_08,55.899999976158,8,2,20.600000023842,0.2222222222222222,2,object_04,1,755,0,3,2,restaurant_1,2,memory-2step-stake-s,598,1494789,0.0-19.0-0.0-0.69,A2DLYBXZNSSJ4S,306996CF7Z0Y3F4KVQ7DFLTE4FJB13,3Z3ZLGNNSMAK37IIRENONNZXIBY3QW,7,8
70,4,object_08,object_07,125.60000002384,7,2,95.5,0.1111111111111111,1,object_03,1,756,0,1,2,restaurant_1,2,memory-2step-stake-s,599,1502256,0.0-19.0-0.0-0.70,A2DLYBXZNSSJ4S,306996CF7Z0Y3F4KVQ7DFLTE4FJB13,3Z3ZLGNNSMAK37IIRENONNZXIBY3QW,8,7
71,4,object_07,object_08,73.0,8,2,60.600000023842,0.3333333333333333,2,object_04,1,759,0,1,3,restaurant_1,2,memory-2step-stake-s,600,1509883,0.0-19.0-0.0-0.71,A2DLYBXZNSSJ4S,306996CF7Z0Y3F4KVQ7DFLTE4FJB13,3Z3ZLGNNSMAK37IIRENONNZXIBY3QW,7,8
72,2,object_05,object_01,308.89999997616,3,2,277.5,0.2222222222222222,1,object_03,5,769,0,2,5,forest_1,2,memory-2step-stake-s,601,1517647,0.0-19.0-0.0-0.72,A2DLYBXZNSSJ4S,306996CF7Z0Y3F4KVQ7DFLTE4FJB13,3Z3ZLGNNSMAK37IIRENONNZXIBY3QW,4,3
73,2,object_05,object_01,151.5,3,2,222.30000007153,0.3333333333333333,1,object_03,5,784,0,3,2,forest_6,2,memory-2step-stake-s,602,1525475,0.0-19.0-0.0-0.73,A2DLYBXZNSSJ4S,306996CF7Z0Y3F4KVQ7DFLTE4FJB13,3Z3ZLGNNSMAK37IIRENONNZXIBY3QW,4,3
74,4,object_07,object_08,53.399999976158,8,2,150.70000004768,0.3333333333333333,2,object_04,1,787,0,4,3,restaurant_7,2,memory-2step-stake-s,603,1533228,0.0-19.0-0.0-0.74,A2DLYBXZNSSJ4S,306996CF7Z0Y3F4KVQ7DFLTE4FJB13,3Z3ZLGNNSMAK37IIRENONNZXIBY3QW,7,8
75,1,object_06,object_09,294.30000007153,1,2,666.70000004768,0.5555555555555556,1,object_03,5,812,0,5,1,desert_7,2,memory-2step-stake-s,604,1541697,0.0-19.0-0.0-0.75,A2DLYBXZNSSJ4S,306996CF7Z0Y3F4KVQ7DFLTE4FJB13,3Z3ZLGNNSMAK37IIRENONNZXIBY3QW,2,1
76,4,object_08,object_07,288.80000007153,7,2,154.69999992847,0.7777777777777778,1,object_03,1,819,0,7,1,restaurant_1,2,memory-2step-stake-s,605,1549836,0.0-19.0-0.0-0.76,A2DLYBXZNSSJ4S,306996CF7Z0Y3F4KVQ7DFLTE4FJB13,3Z3ZLGNNSMAK37IIRENONNZXIBY3QW,8,7
77,2,object_05,object_01,295.5,3,2,415.39999997616,0.6666666666666666,1,object_03,5,849,0,6,2,forest_6,2,memory-2step-stake-s,606,1558158,0.0-19.0-0.0-0.77,A2DLYBXZNSSJ4S,306996CF7Z0Y3F4KVQ7DFLTE4FJB13,3Z3ZLGNNSMAK37IIRENONNZXIBY3QW,4,3
78,2,object_05,object_01,135.29999995232,3,2,199.39999997616,0.4444444444444444,1,object_03,1,853,0,4,3,forest_7,2,memory-2step-stake-s,607,1566087,0.0-19.0-0.0-0.78,A2DLYBXZNSSJ4S,306996CF7Z0Y3F4KVQ7DFLTE4FJB13,3Z3ZLGNNSMAK37IIRENONNZXIBY3QW,4,3
79,1,object_09,object_06,111.10000002384,2,2,214.80000007153,0.8888888888888888,2,object_04,5,893,0,3,8,desert_8,2,memory-2step-stake-s,608,1574446,0.0-19.0-0.0-0.79,A2DLYBXZNSSJ4S,306996CF7Z0Y3F4KVQ7DFLTE4FJB13,3Z3ZLGNNSMAK37IIRENONNZXIBY3QW,1,2
80,3,object_10,object_02,96.0,6,2,70.199999928474,0.5555555555555556,2,object_04,5,918,0,3,5,library_2,2,memory-2step-stake-s,609,1582305,0.0-19.0-0.0-0.80,A2DLYBXZNSSJ4S,306996CF7Z0Y3F4KVQ7DFLTE4FJB13,3Z3ZLGNNSMAK37IIRENONNZXIBY3QW,5,6
81,2,object_05,object_01,202.29999995232,3,2,177.20000004768,0.4444444444444444,1,object_03,5,938,0,4,3,forest_1,2,memory-2step-stake-s,610,1590196,0.0-19.0-0.0-0.81,A2DLYBXZNSSJ4S,306996CF7Z0Y3F4KVQ7DFLTE4FJB13,3Z3ZLGNNSMAK37IIRENONNZXIBY3QW,4,3
82,3,object_10,object_02,214.60000002384,5,1,119.29999995232,0.2222222222222222,1,object_03,5,948,0,2,2,library_7,2,memory-2step-stake-s,611,1597780,0.0-19.0-0.0-0.82,A2DLYBXZNSSJ4S,306996CF7Z0Y3F4KVQ7DFLTE4FJB13,3Z3ZLGNNSMAK37IIRENONNZXIBY3QW,5,6
83,1,object_09,object_06,194.5,1,1,66.700000047684,0.2222222222222222,1,object_03,1,950,0,2,3,desert_8,2,memory-2step-stake-s,612,1605305,0.0-19.0-0.0-0.83,A2DLYBXZNSSJ4S,306996CF7Z0Y3F4KVQ7DFLTE4FJB13,3Z3ZLGNNSMAK37IIRENONNZXIBY3QW,1,2
84,1,object_06,object_09,349.09999990463,2,1,397.90000009537,0.1111111111111111,2,object_04,5,955,0,1,1,desert_7,2,memory-2step-stake-s,613,1613077,0.0-19.0-0.0-0.84,A2DLYBXZNSSJ4S,306996CF7Z0Y3F4KVQ7DFLTE4FJB13,3Z3ZLGNNSMAK37IIRENONNZXIBY3QW,2,1
85,1,object_06,object_09,246.70000004768,2,1,134.39999997616,0.2222222222222222,2,object_04,1,957,0,0,2,desert_8,2,memory-2step-stake-s,614,1620691,0.0-19.0-0.0-0.85,A2DLYBXZNSSJ4S,306996CF7Z0Y3F4KVQ7DFLTE4FJB13,3Z3ZLGNNSMAK37IIRENONNZXIBY3QW,2,1
86,3,object_02,object_10,146.0,6,1,390.79999995232,0.3333333333333333,2,object_04,5,972,0,0,3,library_6,2,memory-2step-stake-s,615,1628652,0.0-19.0-0.0-0.86,A2DLYBXZNSSJ4S,306996CF7Z0Y3F4KVQ7DFLTE4FJB13,3Z3ZLGNNSMAK37IIRENONNZXIBY3QW,6,5
87,3,object_02,object_10,373.0,6,1,45.699999928474,0.4444444444444444,2,object_04,5,992,0,1,4,library_7,2,memory-2step-stake-s,616,1636411,0.0-19.0-0.0-0.87,A2DLYBXZNSSJ4S,306996CF7Z0Y3F4KVQ7DFLTE4FJB13,3Z3ZLGNNSMAK37IIRENONNZXIBY3QW,6,5
88,2,object_01,object_05,217.5,3,1,171.89999997616,0.5555555555555556,1,object_03,5,1017,0,5,5,forest_7,2,memory-2step-stake-s,617,1644353,0.0-19.0-0.0-0.88,A2DLYBXZNSSJ4S,306996CF7Z0Y3F4KVQ7DFLTE4FJB13,3Z3ZLGNNSMAK37IIRENONNZXIBY3QW,3,4
89,3,object_10,object_02,33.5,5,1,431.20000004768,0.6666666666666666,1,object_03,5,1047,0,6,5,library_2,2,memory-2step-stake-s,618,1652665,0.0-19.0-0.0-0.89,A2DLYBXZNSSJ4S,306996CF7Z0Y3F4KVQ7DFLTE4FJB13,3Z3ZLGNNSMAK37IIRENONNZXIBY3QW,5,6
90,3,object_10,object_02,288.19999992847,5,1,180.79999995232,0.8888888888888888,1,object_03,1,1055,0,8,4,library_7,2,memory-2step-stake-s,619,1660995,0.0-19.0-0.0-0.90,A2DLYBXZNSSJ4S,306996CF7Z0Y3F4KVQ7DFLTE4FJB13,3Z3ZLGNNSMAK37IIRENONNZXIBY3QW,5,6
91,3,object_10,object_02,117.0,6,2,256.5,0.2222222222222222,2,object_04,1,1057,0,8,2,library_7,2,memory-2step-stake-s,620,1668730,0.0-19.0-0.0-0.91,A2DLYBXZNSSJ4S,306996CF7Z0Y3F4KVQ7DFLTE4FJB13,3Z3ZLGNNSMAK37IIRENONNZXIBY3QW,5,6
92,4,object_07,object_08,229.89999997616,8,2,212.09999990463,0.1111111111111111,2,object_04,1,1058,0,8,1,restaurant_7,2,memory-2step-stake-s,621,1676297,0.0-19.0-0.0-0.92,A2DLYBXZNSSJ4S,306996CF7Z0Y3F4KVQ7DFLTE4FJB13,3Z3ZLGNNSMAK37IIRENONNZXIBY3QW,7,8
93,1,object_09,object_06,196.19999992847,2,2,49.100000023842,0.1111111111111111,2,object_04,5,1063,0,7,1,desert_4,2,memory-2step-stake-s,622,1683709,0.0-19.0-0.0-0.93,A2DLYBXZNSSJ4S,306996CF7Z0Y3F4KVQ7DFLTE4FJB13,3Z3ZLGNNSMAK37IIRENONNZXIBY3QW,1,2
94,4,object_08,object_07,70.199999928474,7,2,251.30000007153,1.0,1,object_03,1,1072,0,9,2,restaurant_4,2,memory-2step-stake-s,623,1692222,0.0-19.0-0.0-0.94,A2DLYBXZNSSJ4S,306996CF7Z0Y3F4KVQ7DFLTE4FJB13,3Z3ZLGNNSMAK37IIRENONNZXIBY3QW,8,7
95,1,object_09,object_06,8.0,2,2,176.39999997616,0.1111111111111111,2,object_04,1,1073,0,8,1,desert_4,2,memory-2step-stake-s,624,1699792,0.0-19.0-0.0-0.95,A2DLYBXZNSSJ4S,306996CF7Z0Y3F4KVQ7DFLTE4FJB13,3Z3ZLGNNSMAK37IIRENONNZXIBY3QW,1,2
96,2,object_01,object_05,142.39999997616,4,2,277.39999997616,0.5555555555555556,2,object_04,5,1098,0,6,5,forest_7,2,memory-2step-stake-s,625,1707882,0.0-19.0-0.0-0.96,A2DLYBXZNSSJ4S,306996CF7Z0Y3F4KVQ7DFLTE4FJB13,3Z3ZLGNNSMAK37IIRENONNZXIBY3QW,3,4
97,1,object_09,object_06,69.699999928474,2,2,9.8999999761581,0.3333333333333333,2,object_04,5,1113,0,6,3,desert_4,2,memory-2step-stake-s,626,1715477,0.0-19.0-0.0-0.97,A2DLYBXZNSSJ4S,306996CF7Z0Y3F4KVQ7DFLTE4FJB13,3Z3ZLGNNSMAK37IIRENONNZXIBY3QW,1,2
98,4,object_07,object_08,16.0,8,2,210.5,0.1111111111111111,2,object_04,1,1114,0,6,1,restaurant_2,2,memory-2step-stake-s,627,1723051,0.0-19.0-0.0-0.98,A2DLYBXZNSSJ4S,306996CF7Z0Y3F4KVQ7DFLTE4FJB13,3Z3ZLGNNSMAK37IIRENONNZXIBY3QW,7,8
99,4,object_07,object_08,64.200000047684,8,2,190.60000002384,0.3333333333333333,2,object_04,1,1117,0,6,3,restaurant_4,2,memory-2step-stake-s,628,1730872,0.0-19.0-0.0-0.99,A2DLYBXZNSSJ4S,306996CF7Z0Y3F4KVQ7DFLTE4FJB13,3Z3ZLGNNSMAK37IIRENONNZXIBY3QW,7,8
100,2,object_05,object_01,257.70000004768,3,2,28.399999976158,0.5555555555555556,1,object_03,5,1142,0,5,4,forest_1,2,memory-2step-stake-s,629,1738703,0.0-19.0-0.0-0.100,A2DLYBXZNSSJ4S,306996CF7Z0Y3F4KVQ7DFLTE4FJB13,3Z3ZLGNNSMAK37IIRENONNZXIBY3QW,4,3
101,3,object_10,object_02,235.0,6,2,442.60000002384,0.5555555555555556,2,object_04,5,1167,0,5,5,library_7,2,memory-2step-stake-s,630,1746917,0.0-19.0-0.0-0.101,A2DLYBXZNSSJ4S,306996CF7Z0Y3F4KVQ7DFLTE4FJB13,3Z3ZLGNNSMAK37IIRENONNZXIBY3QW,5,6
102,4,object_08,object_07,68.899999976158,7,2,4.8999999761581,0.2222222222222222,1,object_03,1,1169,0,2,4,restaurant_4,2,memory-2step-stake-s,631,1754406,0.0-19.0-0.0-0.102,A2DLYBXZNSSJ4S,306996CF7Z0Y3F4KVQ7DFLTE4FJB13,3Z3ZLGNNSMAK37IIRENONNZXIBY3QW,8,7
103,4,object_08,object_07,52.899999976158,7,2,5.5,0.2222222222222222,1,object_03,1,1171,0,2,4,restaurant_2,2,memory-2step-stake-s,632,1761946,0.0-19.0-0.0-0.103,A2DLYBXZNSSJ4S,306996CF7Z0Y3F4KVQ7DFLTE4FJB13,3Z3ZLGNNSMAK37IIRENONNZXIBY3QW,8,7
104,3,object_10,object_02,54.399999976158,5,1,319.60000002384,0.3333333333333333,1,object_03,1,1174,0,3,6,library_6,2,memory-2step-stake-s,633,1769852,0.0-19.0-0.0-0.104,A2DLYBXZNSSJ4S,306996CF7Z0Y3F4KVQ7DFLTE4FJB13,3Z3ZLGNNSMAK37IIRENONNZXIBY3QW,5,6
105,2,object_05,object_01,4.8999999761581,4,1,349.10000002384,0.7777777777777778,2,object_04,1,1181,0,3,7,forest_6,2,memory-2step-stake-s,634,1778261,0.0-19.0-0.0-0.105,A2DLYBXZNSSJ4S,306996CF7Z0Y3F4KVQ7DFLTE4FJB13,3Z3ZLGNNSMAK37IIRENONNZXIBY3QW,4,3
106,2,object_01,object_05,391.0,4,2,1215.3000000715,1.0,2,object_04,5,1226,0,3,9,forest_7,2,memory-2step-stake-s,635,1787696,0.0-19.0-0.0-0.106,A2DLYBXZNSSJ4S,306996CF7Z0Y3F4KVQ7DFLTE4FJB13,3Z3ZLGNNSMAK37IIRENONNZXIBY3QW,3,4
107,1,object_09,object_06,87.399999976158,1,1,13.199999928474,0.5555555555555556,1,object_03,5,1251,0,5,7,desert_3,2,memory-2step-stake-s,636,1795493,0.0-19.0-0.0-0.107,A2DLYBXZNSSJ4S,306996CF7Z0Y3F4KVQ7DFLTE4FJB13,3Z3ZLGNNSMAK37IIRENONNZXIBY3QW,1,2
108,2,object_01,object_05,-1.0,-1,-1,-1.0,0.0,-,0,5,1251,0,4,7,forest_7,2,memory-2step-stake-s,637,1802040,0.0-19.0-0.0-0.108,A2DLYBXZNSSJ4S,306996CF7Z0Y3F4KVQ7DFLTE4FJB13,3Z3ZLGNNSMAK37IIRENONNZXIBY3QW,3,4
109,1,object_06,object_09,13.199999928474,1,2,94.600000023842,0.3333333333333333,1,object_03,5,1266,0,3,3,desert_8,2,memory-2step-stake-s,638,1809727,0.0-19.0-0.0-0.109,A2DLYBXZNSSJ4S,306996CF7Z0Y3F4KVQ7DFLTE4FJB13,3Z3ZLGNNSMAK37IIRENONNZXIBY3QW,2,1
110,1,object_06,object_09,-1.0,-1,-1,-1.0,0.0,-,0,5,1266,0,1,6,desert_4,2,memory-2step-stake-s,639,1816288,0.0-19.0-0.0-0.110,A2DLYBXZNSSJ4S,306996CF7Z0Y3F4KVQ7DFLTE4FJB13,3Z3ZLGNNSMAK37IIRENONNZXIBY3QW,2,1
111,3,object_02,object_10,115.5,5,2,220.19999992847,0.0,1,object_03,1,1266,0,0,4,library_6,2,memory-2step-stake-s,640,1823743,0.0-19.0-0.0-0.111,A2DLYBXZNSSJ4S,306996CF7Z0Y3F4KVQ7DFLTE4FJB13,3Z3ZLGNNSMAK37IIRENONNZXIBY3QW,6,5
112,2,object_05,object_01,188.79999995232,3,2,109.60000002384,0.3333333333333333,1,object_03,5,1281,0,3,4,forest_7,2,memory-2step-stake-s,641,1831452,0.0-19.0-0.0-0.112,A2DLYBXZNSSJ4S,306996CF7Z0Y3F4KVQ7DFLTE4FJB13,3Z3ZLGNNSMAK37IIRENONNZXIBY3QW,4,3
113,3,object_10,object_02,161.29999995232,6,2,207.89999997616,0.4444444444444444,2,object_04,1,1285,0,2,4,library_2,2,memory-2step-stake-s,642,1839385,0.0-19.0-0.0-0.113,A2DLYBXZNSSJ4S,306996CF7Z0Y3F4KVQ7DFLTE4FJB13,3Z3ZLGNNSMAK37IIRENONNZXIBY3QW,5,6
114,4,object_07,object_08,323.0,7,1,324.39999997616,0.4444444444444444,1,object_03,1,1289,0,4,3,restaurant_2,2,memory-2step-stake-s,643,1847399,0.0-19.0-0.0-0.114,A2DLYBXZNSSJ4S,306996CF7Z0Y3F4KVQ7DFLTE4FJB13,3Z3ZLGNNSMAK37IIRENONNZXIBY3QW,7,8
115,3,object_10,object_02,219.29999995232,5,1,-1.0,0.0,1,object_03,1,1289,0,5,1,library_5,2,memory-2step-stake-s,644,1855942,0.0-19.0-0.0-0.115,A2DLYBXZNSSJ4S,306996CF7Z0Y3F4KVQ7DFLTE4FJB13,3Z3ZLGNNSMAK37IIRENONNZXIBY3QW,5,6
116,2,object_01,object_05,132.39999997616,4,2,174.80000007153,0.1111111111111111,2,object_04,5,1294,0,3,1,forest_6,2,memory-2step-stake-s,645,1863482,0.0-19.0-0.0-0.116,A2DLYBXZNSSJ4S,306996CF7Z0Y3F4KVQ7DFLTE4FJB13,3Z3ZLGNNSMAK37IIRENONNZXIBY3QW,3,4
117,3,object_10,object_02,322.70000004768,6,2,16.0,0.4444444444444444,2,object_04,1,1298,0,0,4,library_2,2,memory-2step-stake-s,646,1871193,0.0-19.0-0.0-0.117,A2DLYBXZNSSJ4S,306996CF7Z0Y3F4KVQ7DFLTE4FJB13,3Z3ZLGNNSMAK37IIRENONNZXIBY3QW,5,6
118,1,object_06,object_09,27.600000023842,2,1,0.10000002384186,0.3333333333333333,2,object_04,5,1313,0,2,3,desert_8,2,memory-2step-stake-s,647,1878758,0.0-19.0-0.0-0.118,A2DLYBXZNSSJ4S,306996CF7Z0Y3F4KVQ7DFLTE4FJB13,3Z3ZLGNNSMAK37IIRENONNZXIBY3QW,2,1
119,1,object_09,object_06,43.699999928474,1,1,387.80000007153,0.1111111111111111,1,object_03,5,1318,0,1,4,desert_3,2,memory-2step-stake-s,648,1886497,0.0-19.0-0.0-0.119,A2DLYBXZNSSJ4S,306996CF7Z0Y3F4KVQ7DFLTE4FJB13,3Z3ZLGNNSMAK37IIRENONNZXIBY3QW,1,2
120,2,object_01,object_05,126.69999992847,3,1,21.5,0.1111111111111111,1,object_03,1,1319,0,1,5,forest_7,2,memory-2step-stake-s,649,1893867,0.0-19.0-0.0-0.120,A2DLYBXZNSSJ4S,306996CF7Z0Y3F4KVQ7DFLTE4FJB13,3Z3ZLGNNSMAK37IIRENONNZXIBY3QW,3,4
121,2,object_05,object_01,53.0,4,1,1207.2999999523,0.8888888888888888,2,object_04,5,1359,0,4,8,forest_1,2,memory-2step-stake-s,650,1903208,0.0-19.0-0.0-0.121,A2DLYBXZNSSJ4S,306996CF7Z0Y3F4KVQ7DFLTE4FJB13,3Z3ZLGNNSMAK37IIRENONNZXIBY3QW,4,3
122,4,object_07,object_08,118.69999992847,7,1,-1.0,0.0,1,object_03,5,1359,0,4,5,restaurant_1,2,memory-2step-stake-s,651,1911776,0.0-19.0-0.0-0.122,A2DLYBXZNSSJ4S,306996CF7Z0Y3F4KVQ7DFLTE4FJB13,3Z3ZLGNNSMAK37IIRENONNZXIBY3QW,7,8
123,3,object_02,object_10,10.300000071526,5,2,35.700000047684,0.6666666666666666,1,object_03,1,1365,0,6,8,library_7,2,memory-2step-stake-s,652,1919758,0.0-19.0-0.0-0.123,A2DLYBXZNSSJ4S,306996CF7Z0Y3F4KVQ7DFLTE4FJB13,3Z3ZLGNNSMAK37IIRENONNZXIBY3QW,6,5
124,2,object_01,object_05,47.200000047684,3,1,1184.3000000715,0.4444444444444444,1,object_03,5,1385,0,4,9,forest_1,2,memory-2step-stake-s,653,1928655,0.0-19.0-0.0-0.124,A2DLYBXZNSSJ4S,306996CF7Z0Y3F4KVQ7DFLTE4FJB13,3Z3ZLGNNSMAK37IIRENONNZXIBY3QW,3,4
125,3,object_10,object_02,62.0,6,2,195.30000007153,0.8888888888888888,2,object_04,1,1393,0,3,8,library_2,2,memory-2step-stake-s,654,1937004,0.0-19.0-0.0-0.125,A2DLYBXZNSSJ4S,306996CF7Z0Y3F4KVQ7DFLTE4FJB13,3Z3ZLGNNSMAK37IIRENONNZXIBY3QW,5,6
126,2,object_01,object_05,284.5,4,2,221.5,0.6666666666666666,2,object_04,5,1423,0,4,6,forest_7,2,memory-2step-stake-s,655,1945149,0.0-19.0-0.0-0.126,A2DLYBXZNSSJ4S,306996CF7Z0Y3F4KVQ7DFLTE4FJB13,3Z3ZLGNNSMAK37IIRENONNZXIBY3QW,3,4
127,4,object_08,object_07,212.5,7,2,-1.0,0.0,1,object_03,1,1423,0,3,9,restaurant_4,2,memory-2step-stake-s,656,1953727,0.0-19.0-0.0-0.127,A2DLYBXZNSSJ4S,306996CF7Z0Y3F4KVQ7DFLTE4FJB13,3Z3ZLGNNSMAK37IIRENONNZXIBY3QW,8,7
128,3,object_02,object_10,198.0,6,1,-1.0,0.0,2,object_04,1,1423,0,0,8,library_5,2,memory-2step-stake-s,658,1962447,0.0-19.0-0.1-0.128,A2DLYBXZNSSJ4S,306996CF7Z0Y3F4KVQ7DFLTE4FJB13,3Z3ZLGNNSMAK37IIRENONNZXIBY3QW,6,5
129,3,object_02,object_10,221.79999995232,5,2,841.70000004768,0.2222222222222222,1,object_03,1,1425,0,2,7,library_5,2,memory-2step-stake-s,659,1970774,0.0-19.0-0.1-0.129,A2DLYBXZNSSJ4S,306996CF7Z0Y3F4KVQ7DFLTE4FJB13,3Z3ZLGNNSMAK37IIRENONNZXIBY3QW,6,5
130,1,object_06,object_09,14.399999976158,2,1,80.800000071526,1.0,2,object_04,5,1470,0,0,9,desert_3,2,memory-2step-stake-s,660,1979079,0.0-19.0-0.1-0.130,A2DLYBXZNSSJ4S,306996CF7Z0Y3F4KVQ7DFLTE4FJB13,3Z3ZLGNNSMAK37IIRENONNZXIBY3QW,2,1
131,1,object_06,object_09,290.0,2,1,324.89999997616,0.8888888888888888,2,object_04,5,1510,0,4,8,desert_7,2,memory-2step-stake-s,661,1987520,0.0-19.0-0.1-0.131,A2DLYBXZNSSJ4S,306996CF7Z0Y3F4KVQ7DFLTE4FJB13,3Z3ZLGNNSMAK37IIRENONNZXIBY3QW,2,1
132,2,object_05,object_01,46.400000095367,4,1,364.0,0.6666666666666666,2,object_04,5,1540,0,2,6,forest_6,2,memory-2step-stake-s,662,1995774,0.0-19.0-0.1-0.132,A2DLYBXZNSSJ4S,306996CF7Z0Y3F4KVQ7DFLTE4FJB13,3Z3ZLGNNSMAK37IIRENONNZXIBY3QW,4,3
133,4,object_08,object_07,52.800000071526,7,2,968.89999997616,0.3333333333333333,1,object_03,1,1543,0,3,8,restaurant_4,2,memory-2step-stake-s,663,2004322,0.0-19.0-0.1-0.133,A2DLYBXZNSSJ4S,306996CF7Z0Y3F4KVQ7DFLTE4FJB13,3Z3ZLGNNSMAK37IIRENONNZXIBY3QW,8,7
134,2,object_05,object_01,30.899999976158,4,1,429.20000004768,0.8888888888888888,2,object_04,1,1551,0,0,8,forest_8,2,memory-2step-stake-s,664,2012888,0.0-19.0-0.1-0.134,A2DLYBXZNSSJ4S,306996CF7Z0Y3F4KVQ7DFLTE4FJB13,3Z3ZLGNNSMAK37IIRENONNZXIBY3QW,4,3
135,4,object_07,object_08,107.39999997616,8,2,-1.0,0.0,2,object_04,5,1551,0,2,8,restaurant_4,2,memory-2step-stake-s,665,2021445,0.0-19.0-0.1-0.135,A2DLYBXZNSSJ4S,306996CF7Z0Y3F4KVQ7DFLTE4FJB13,3Z3ZLGNNSMAK37IIRENONNZXIBY3QW,7,8
136,3,object_10,object_02,295.10000002384,6,2,153.30000007153,0.5555555555555556,2,object_04,1,1556,0,1,5,library_6,2,memory-2step-stake-s,666,2029399,0.0-19.0-0.1-0.136,A2DLYBXZNSSJ4S,306996CF7Z0Y3F4KVQ7DFLTE4FJB13,3Z3ZLGNNSMAK37IIRENONNZXIBY3QW,5,6
137,4,object_07,object_08,77.899999976158,8,2,27.600000023842,0.4444444444444444,2,object_04,1,1560,0,2,4,restaurant_4,2,memory-2step-stake-s,667,2037148,0.0-19.0-0.1-0.137,A2DLYBXZNSSJ4S,306996CF7Z0Y3F4KVQ7DFLTE4FJB13,3Z3ZLGNNSMAK37IIRENONNZXIBY3QW,7,8
138,2,object_05,object_01,14.5,3,2,25.0,0.2222222222222222,1,object_03,5,1570,0,2,4,forest_7,2,memory-2step-stake-s,668,2044672,0.0-19.0-0.1-0.138,A2DLYBXZNSSJ4S,306996CF7Z0Y3F4KVQ7DFLTE4FJB13,3Z3ZLGNNSMAK37IIRENONNZXIBY3QW,4,3
139,4,object_07,object_08,403.5,8,2,184.39999997616,0.2222222222222222,2,object_04,5,1580,0,2,2,restaurant_7,2,memory-2step-stake-s,669,2052321,0.0-19.0-0.1-0.139,A2DLYBXZNSSJ4S,306996CF7Z0Y3F4KVQ7DFLTE4FJB13,3Z3ZLGNNSMAK37IIRENONNZXIBY3QW,7,8
140,4,object_07,object_08,48.600000023842,8,2,70.399999976158,0.4444444444444444,2,object_04,1,1584,0,1,4,restaurant_7,2,memory-2step-stake-s,670,2060121,0.0-19.0-0.1-0.140,A2DLYBXZNSSJ4S,306996CF7Z0Y3F4KVQ7DFLTE4FJB13,3Z3ZLGNNSMAK37IIRENONNZXIBY3QW,7,8
141,2,object_05,object_01,325.70000004768,3,2,824.69999992847,0.1111111111111111,1,object_03,5,1589,0,1,3,forest_6,2,memory-2step-stake-s,671,2068307,0.0-19.0-0.1-0.141,A2DLYBXZNSSJ4S,306996CF7Z0Y3F4KVQ7DFLTE4FJB13,3Z3ZLGNNSMAK37IIRENONNZXIBY3QW,4,3
142,2,object_01,object_05,175.60000002384,4,2,421.29999995232,0.0,2,object_04,5,1589,0,2,0,forest_1,2,memory-2step-stake-s,672,2075977,0.0-19.0-0.1-0.142,A2DLYBXZNSSJ4S,306996CF7Z0Y3F4KVQ7DFLTE4FJB13,3Z3ZLGNNSMAK37IIRENONNZXIBY3QW,3,4
143,4,object_08,object_07,127.30000007153,8,1,160.60000002384,0.2222222222222222,2,object_04,5,1599,0,1,2,restaurant_4,2,memory-2step-stake-s,673,2083619,0.0-19.0-0.1-0.143,A2DLYBXZNSSJ4S,306996CF7Z0Y3F4KVQ7DFLTE4FJB13,3Z3ZLGNNSMAK37IIRENONNZXIBY3QW,8,7
144,2,object_05,object_01,56.0,3,2,62.399999976158,0.1111111111111111,1,object_03,5,1604,0,1,2,forest_6,2,memory-2step-stake-s,674,2091055,0.0-19.0-0.1-0.144,A2DLYBXZNSSJ4S,306996CF7Z0Y3F4KVQ7DFLTE4FJB13,3Z3ZLGNNSMAK37IIRENONNZXIBY3QW,4,3
145,4,object_08,object_07,173.5,7,2,361.0,0.1111111111111111,1,object_03,1,1605,0,1,4,restaurant_7,2,memory-2step-stake-s,675,2098791,0.0-19.0-0.1-0.145,A2DLYBXZNSSJ4S,306996CF7Z0Y3F4KVQ7DFLTE4FJB13,3Z3ZLGNNSMAK37IIRENONNZXIBY3QW,8,7
146,2,object_05,object_01,95.699999928474,3,2,193.80000007153,0.2222222222222222,1,object_03,5,1615,0,2,2,forest_6,2,memory-2step-stake-s,676,2106464,0.0-19.0-0.1-0.146,A2DLYBXZNSSJ4S,306996CF7Z0Y3F4KVQ7DFLTE4FJB13,3Z3ZLGNNSMAK37IIRENONNZXIBY3QW,4,3
147,1,object_06,object_09,331.80000007153,1,2,252.10000002384,0.3333333333333333,1,object_03,5,1630,0,3,4,desert_8,2,memory-2step-stake-s,677,2114317,0.0-19.0-0.1-0.147,A2DLYBXZNSSJ4S,306996CF7Z0Y3F4KVQ7DFLTE4FJB13,3Z3ZLGNNSMAK37IIRENONNZXIBY3QW,2,1
148,1,object_06,object_09,1022.1000000238,2,1,309.29999995232,0.4444444444444444,2,object_04,1,1634,0,3,4,desert_7,2,memory-2step-stake-s,678,2122353,0.0-19.0-0.1-0.148,A2DLYBXZNSSJ4S,306996CF7Z0Y3F4KVQ7DFLTE4FJB13,3Z3ZLGNNSMAK37IIRENONNZXIBY3QW,2,1
149,2,object_05,object_01,73.399999976158,4,1,159.5,0.3333333333333333,2,object_04,5,1649,0,4,3,forest_7,2,memory-2step-stake-s,679,2130148,0.0-19.0-0.1-0.149,A2DLYBXZNSSJ4S,306996CF7Z0Y3F4KVQ7DFLTE4FJB13,3Z3ZLGNNSMAK37IIRENONNZXIBY3QW,4,3
150,3,object_02,object_10,721.79999995232,5,2,462.89999997616,0.0,1,object_03,1,1649,0,0,2,library_2,2,memory-2step-stake-s,680,2137882,0.0-19.0-0.1-0.150,A2DLYBXZNSSJ4S,306996CF7Z0Y3F4KVQ7DFLTE4FJB13,3Z3ZLGNNSMAK37IIRENONNZXIBY3QW,6,5
151,3,object_02,object_10,327.59999990463,6,1,160.79999995232,0.1111111111111111,2,object_04,1,1650,0,2,1,library_5,2,memory-2step-stake-s,681,2145420,0.0-19.0-0.1-0.151,A2DLYBXZNSSJ4S,306996CF7Z0Y3F4KVQ7DFLTE4FJB13,3Z3ZLGNNSMAK37IIRENONNZXIBY3QW,6,5
152,4,object_07,object_08,26.799999952316,7,1,170.69999992847,0.2222222222222222,1,object_03,1,1652,0,2,1,restaurant_4,2,memory-2step-stake-s,682,2153065,0.0-19.0-0.1-0.152,A2DLYBXZNSSJ4S,306996CF7Z0Y3F4KVQ7DFLTE4FJB13,3Z3ZLGNNSMAK37IIRENONNZXIBY3QW,7,8
153,2,object_05,object_01,319.39999997616,4,1,52.899999976158,0.0,2,object_04,5,1652,0,3,0,forest_1,2,memory-2step-stake-s,683,2160397,0.0-19.0-0.1-0.153,A2DLYBXZNSSJ4S,306996CF7Z0Y3F4KVQ7DFLTE4FJB13,3Z3ZLGNNSMAK37IIRENONNZXIBY3QW,4,3
154,1,object_06,object_09,184.5,2,1,201.89999997616,0.1111111111111111,2,object_04,1,1653,0,4,1,desert_8,2,memory-2step-stake-s,684,2167986,0.0-19.0-0.1-0.154,A2DLYBXZNSSJ4S,306996CF7Z0Y3F4KVQ7DFLTE4FJB13,3Z3ZLGNNSMAK37IIRENONNZXIBY3QW,2,1
155,4,object_08,object_07,175.20000004768,8,1,-1.0,0.0,2,object_04,1,1653,0,4,4,restaurant_7,2,memory-2step-stake-s,685,2176537,0.0-19.0-0.1-0.155,A2DLYBXZNSSJ4S,306996CF7Z0Y3F4KVQ7DFLTE4FJB13,3Z3ZLGNNSMAK37IIRENONNZXIBY3QW,8,7
156,1,object_06,object_09,1227.7999999523,2,1,663.09999990463,0.3333333333333333,2,object_04,5,1668,0,0,3,desert_4,2,memory-2step-stake-s,686,2184788,0.0-19.0-0.1-0.156,A2DLYBXZNSSJ4S,306996CF7Z0Y3F4KVQ7DFLTE4FJB13,3Z3ZLGNNSMAK37IIRENONNZXIBY3QW,2,1
157,4,object_07,object_08,170.39999997616,7,1,48.900000095367,0.0,1,object_03,1,1668,0,0,5,restaurant_1,2,memory-2step-stake-s,687,2192101,0.0-19.0-0.1-0.157,A2DLYBXZNSSJ4S,306996CF7Z0Y3F4KVQ7DFLTE4FJB13,3Z3ZLGNNSMAK37IIRENONNZXIBY3QW,7,8
158,1,object_06,object_09,63.100000023842,1,2,23.799999952316,0.2222222222222222,1,object_03,5,1678,0,2,8,desert_3,2,memory-2step-stake-s,688,2199616,0.0-19.0-0.1-0.158,A2DLYBXZNSSJ4S,306996CF7Z0Y3F4KVQ7DFLTE4FJB13,3Z3ZLGNNSMAK37IIRENONNZXIBY3QW,2,1
159,3,object_10,object_02,172.30000007153,6,2,266.10000002384,0.8888888888888888,2,object_04,1,1686,0,0,8,library_2,2,memory-2step-stake-s,689,2208023,0.0-19.0-0.1-0.159,A2DLYBXZNSSJ4S,306996CF7Z0Y3F4KVQ7DFLTE4FJB13,3Z3ZLGNNSMAK37IIRENONNZXIBY3QW,5,6
160,3,object_10,object_02,264.60000002384,6,2,151.69999992847,0.7777777777777778,2,object_04,1,1693,0,2,7,library_2,2,memory-2step-stake-s,690,2216223,0.0-19.0-0.1-0.160,A2DLYBXZNSSJ4S,306996CF7Z0Y3F4KVQ7DFLTE4FJB13,3Z3ZLGNNSMAK37IIRENONNZXIBY3QW,5,6
161,4,object_07,object_08,-1.0,-1,-1,-1.0,0.0,-,0,1,1693,0,2,8,restaurant_7,2,memory-2step-stake-s,691,2222773,0.0-19.0-0.1-0.161,A2DLYBXZNSSJ4S,306996CF7Z0Y3F4KVQ7DFLTE4FJB13,3Z3ZLGNNSMAK37IIRENONNZXIBY3QW,7,8
162,2,object_01,object_05,220.60000002384,4,2,54.700000047684,0.4444444444444444,2,object_04,5,1713,0,5,4,forest_1,2,memory-2step-stake-s,692,2230520,0.0-19.0-0.1-0.162,A2DLYBXZNSSJ4S,306996CF7Z0Y3F4KVQ7DFLTE4FJB13,3Z3ZLGNNSMAK37IIRENONNZXIBY3QW,3,4
163,1,object_06,object_09,295.89999997616,2,1,102.39999997616,0.5555555555555556,2,object_04,5,1738,0,8,5,desert_7,2,memory-2step-stake-s,693,2238401,0.0-19.0-0.1-0.163,A2DLYBXZNSSJ4S,306996CF7Z0Y3F4KVQ7DFLTE4FJB13,3Z3ZLGNNSMAK37IIRENONNZXIBY3QW,2,1
164,4,object_07,object_08,1057.7999999523,7,1,1180.7000000477,0.8888888888888888,1,object_03,1,1746,0,8,3,restaurant_4,2,memory-2step-stake-s,694,2247729,0.0-19.0-0.1-0.164,A2DLYBXZNSSJ4S,306996CF7Z0Y3F4KVQ7DFLTE4FJB13,3Z3ZLGNNSMAK37IIRENONNZXIBY3QW,7,8
165,4,object_07,object_08,1164.1000000238,7,1,175.39999997616,0.8888888888888888,1,object_03,1,1754,0,8,5,restaurant_7,2,memory-2step-stake-s,695,2256102,0.0-19.0-0.1-0.165,A2DLYBXZNSSJ4S,306996CF7Z0Y3F4KVQ7DFLTE4FJB13,3Z3ZLGNNSMAK37IIRENONNZXIBY3QW,7,8
166,3,object_10,object_02,385.89999997616,6,2,-1.0,0.0,2,object_04,1,1754,0,8,3,library_7,2,memory-2step-stake-s,696,2264636,0.0-19.0-0.1-0.166,A2DLYBXZNSSJ4S,306996CF7Z0Y3F4KVQ7DFLTE4FJB13,3Z3ZLGNNSMAK37IIRENONNZXIBY3QW,5,6
167,1,object_09,object_06,49.0,2,2,55.200000047684,0.3333333333333333,2,object_04,5,1769,0,7,3,desert_8,2,memory-2step-stake-s,697,2272287,0.0-19.0-0.1-0.167,A2DLYBXZNSSJ4S,306996CF7Z0Y3F4KVQ7DFLTE4FJB13,3Z3ZLGNNSMAK37IIRENONNZXIBY3QW,1,2
168,4,object_08,object_07,27.300000071526,7,2,944.19999992847,0.6666666666666666,1,object_03,5,1799,0,6,5,restaurant_1,2,memory-2step-stake-s,698,2281110,0.0-19.0-0.1-0.168,A2DLYBXZNSSJ4S,306996CF7Z0Y3F4KVQ7DFLTE4FJB13,3Z3ZLGNNSMAK37IIRENONNZXIBY3QW,8,7
169,3,object_02,object_10,31.899999976158,5,2,304.10000002384,0.6666666666666666,1,object_03,5,1829,0,6,5,library_5,2,memory-2step-stake-s,699,2289371,0.0-19.0-0.1-0.169,A2DLYBXZNSSJ4S,306996CF7Z0Y3F4KVQ7DFLTE4FJB13,3Z3ZLGNNSMAK37IIRENONNZXIBY3QW,6,5
170,3,object_02,object_10,72.0,5,2,196.20000004768,0.6666666666666666,1,object_03,1,1835,0,6,7,library_6,2,memory-2step-stake-s,700,2297523,0.0-19.0-0.1-0.170,A2DLYBXZNSSJ4S,306996CF7Z0Y3F4KVQ7DFLTE4FJB13,3Z3ZLGNNSMAK37IIRENONNZXIBY3QW,6,5
171,4,object_07,object_08,332.19999992847,8,2,164.0,0.7777777777777778,2,object_04,1,1842,0,3,7,restaurant_4,2,memory-2step-stake-s,701,2305711,0.0-19.0-0.1-0.171,A2DLYBXZNSSJ4S,306996CF7Z0Y3F4KVQ7DFLTE4FJB13,3Z3ZLGNNSMAK37IIRENONNZXIBY3QW,7,8
172,4,object_08,object_07,299.5,7,2,332.70000004768,0.4444444444444444,1,object_03,5,1862,0,4,3,restaurant_2,2,memory-2step-stake-s,702,2313727,0.0-19.0-0.1-0.172,A2DLYBXZNSSJ4S,306996CF7Z0Y3F4KVQ7DFLTE4FJB13,3Z3ZLGNNSMAK37IIRENONNZXIBY3QW,8,7
173,1,object_09,object_06,240.59999990463,2,2,3.2999999523163,0.5555555555555556,2,object_04,5,1887,0,7,5,desert_3,2,memory-2step-stake-s,703,2321536,0.0-19.0-0.1-0.173,A2DLYBXZNSSJ4S,306996CF7Z0Y3F4KVQ7DFLTE4FJB13,3Z3ZLGNNSMAK37IIRENONNZXIBY3QW,1,2
174,3,object_10,object_02,293.70000004768,6,2,229.79999995232,0.5555555555555556,2,object_04,5,1912,0,9,5,library_2,2,memory-2step-stake-s,704,2329537,0.0-19.0-0.1-0.174,A2DLYBXZNSSJ4S,306996CF7Z0Y3F4KVQ7DFLTE4FJB13,3Z3ZLGNNSMAK37IIRENONNZXIBY3QW,5,6
175,3,object_02,object_10,878.10000002384,5,2,368.60000002384,1.0,1,object_03,1,1921,0,9,2,library_2,2,memory-2step-stake-s,705,2338164,0.0-19.0-0.1-0.175,A2DLYBXZNSSJ4S,306996CF7Z0Y3F4KVQ7DFLTE4FJB13,3Z3ZLGNNSMAK37IIRENONNZXIBY3QW,6,5
176,2,object_05,object_01,52.399999976158,3,2,17.100000023842,0.8888888888888888,1,object_03,1,1929,0,8,4,forest_1,2,memory-2step-stake-s,706,2346289,0.0-19.0-0.1-0.176,A2DLYBXZNSSJ4S,306996CF7Z0Y3F4KVQ7DFLTE4FJB13,3Z3ZLGNNSMAK37IIRENONNZXIBY3QW,4,3
177,1,object_09,object_06,101.10000002384,2,2,4.0999999046326,0.3333333333333333,2,object_04,5,1944,0,8,3,desert_7,2,memory-2step-stake-s,707,2353880,0.0-19.0-0.1-0.177,A2DLYBXZNSSJ4S,306996CF7Z0Y3F4KVQ7DFLTE4FJB13,3Z3ZLGNNSMAK37IIRENONNZXIBY3QW,1,2
178,3,object_02,object_10,140.29999995232,5,2,180.5,0.8888888888888888,1,object_03,1,1952,0,8,6,library_6,2,memory-2step-stake-s,708,2362162,0.0-19.0-0.1-0.178,A2DLYBXZNSSJ4S,306996CF7Z0Y3F4KVQ7DFLTE4FJB13,3Z3ZLGNNSMAK37IIRENONNZXIBY3QW,6,5
179,3,object_10,object_02,99.100000023842,6,2,24.0,1.0,2,object_04,1,1961,0,6,9,library_6,2,memory-2step-stake-s,709,2370436,0.0-19.0-0.1-0.179,A2DLYBXZNSSJ4S,306996CF7Z0Y3F4KVQ7DFLTE4FJB13,3Z3ZLGNNSMAK37IIRENONNZXIBY3QW,5,6
180,2,object_01,object_05,330.30000007153,4,2,64.5,0.8888888888888888,2,object_04,5,2001,0,5,8,forest_6,2,memory-2step-stake-s,710,2378607,0.0-19.0-0.1-0.180,A2DLYBXZNSSJ4S,306996CF7Z0Y3F4KVQ7DFLTE4FJB13,3Z3ZLGNNSMAK37IIRENONNZXIBY3QW,3,4
181,4,object_08,object_07,366.69999992847,7,2,110.0,0.6666666666666666,1,object_03,1,2007,0,6,8,restaurant_1,2,memory-2step-stake-s,711,2386627,0.0-19.0-0.1-0.181,A2DLYBXZNSSJ4S,306996CF7Z0Y3F4KVQ7DFLTE4FJB13,3Z3ZLGNNSMAK37IIRENONNZXIBY3QW,8,7
182,2,object_05,object_01,67.899999976158,3,2,328.79999995232,0.8888888888888888,1,object_03,5,2047,0,8,8,forest_8,2,memory-2step-stake-s,712,2395071,0.0-19.0-0.1-0.182,A2DLYBXZNSSJ4S,306996CF7Z0Y3F4KVQ7DFLTE4FJB13,3Z3ZLGNNSMAK37IIRENONNZXIBY3QW,4,3
183,2,object_05,object_01,63.5,3,2,306.10000002384,0.7777777777777778,1,object_03,5,2082,0,7,9,forest_6,2,memory-2step-stake-s,713,2403430,0.0-19.0-0.1-0.183,A2DLYBXZNSSJ4S,306996CF7Z0Y3F4KVQ7DFLTE4FJB13,3Z3ZLGNNSMAK37IIRENONNZXIBY3QW,4,3
184,4,object_07,object_08,623.89999997616,8,2,635.60000002384,0.6666666666666666,2,object_04,5,2112,0,8,6,restaurant_2,2,memory-2step-stake-s,714,2412021,0.0-19.0-0.1-0.184,A2DLYBXZNSSJ4S,306996CF7Z0Y3F4KVQ7DFLTE4FJB13,3Z3ZLGNNSMAK37IIRENONNZXIBY3QW,7,8
185,3,object_02,object_10,131.5,6,1,52.399999976158,0.5555555555555556,2,object_04,5,2137,0,8,5,library_6,2,memory-2step-stake-s,715,2419868,0.0-19.0-0.1-0.185,A2DLYBXZNSSJ4S,306996CF7Z0Y3F4KVQ7DFLTE4FJB13,3Z3ZLGNNSMAK37IIRENONNZXIBY3QW,6,5
186,2,object_05,object_01,128.5,4,1,273.0,0.5555555555555556,2,object_04,5,2162,0,8,5,forest_8,2,memory-2step-stake-s,716,2427977,0.0-19.0-0.1-0.186,A2DLYBXZNSSJ4S,306996CF7Z0Y3F4KVQ7DFLTE4FJB13,3Z3ZLGNNSMAK37IIRENONNZXIBY3QW,4,3
187,1,object_09,object_06,131.69999992847,1,1,111.10000002384,0.7777777777777778,1,object_03,5,2197,0,7,8,desert_8,2,memory-2step-stake-s,717,2436126,0.0-19.0-0.1-0.187,A2DLYBXZNSSJ4S,306996CF7Z0Y3F4KVQ7DFLTE4FJB13,3Z3ZLGNNSMAK37IIRENONNZXIBY3QW,1,2
188,1,object_09,object_06,104.0,1,1,334.59999990463,0.7777777777777778,1,object_03,5,2232,0,7,9,desert_7,2,memory-2step-stake-s,718,2444493,0.0-19.0-0.1-0.188,A2DLYBXZNSSJ4S,306996CF7Z0Y3F4KVQ7DFLTE4FJB13,3Z3ZLGNNSMAK37IIRENONNZXIBY3QW,1,2
189,1,object_09,object_06,37.5,1,1,279.10000002384,0.7777777777777778,1,object_03,5,2267,0,7,7,desert_3,2,memory-2step-stake-s,719,2452833,0.0-19.0-0.1-0.189,A2DLYBXZNSSJ4S,306996CF7Z0Y3F4KVQ7DFLTE4FJB13,3Z3ZLGNNSMAK37IIRENONNZXIBY3QW,1,2
190,3,object_10,object_02,148.0,5,1,167.29999995232,0.5555555555555556,1,object_03,1,2272,0,5,5,library_6,2,memory-2step-stake-s,720,2460805,0.0-19.0-0.1-0.190,A2DLYBXZNSSJ4S,306996CF7Z0Y3F4KVQ7DFLTE4FJB13,3Z3ZLGNNSMAK37IIRENONNZXIBY3QW,5,6
191,4,object_07,object_08,499.80000007153,7,1,1445.1999999285,0.2222222222222222,1,object_03,1,2274,0,2,4,restaurant_2,2,memory-2step-stake-s,721,2469727,0.0-19.0-0.1-0.191,A2DLYBXZNSSJ4S,306996CF7Z0Y3F4KVQ7DFLTE4FJB13,3Z3ZLGNNSMAK37IIRENONNZXIBY3QW,7,8
192,2,object_01,object_05,121.39999997616,3,1,68.200000047684,0.2222222222222222,1,object_03,5,2284,0,2,3,forest_8,2,memory-2step-stake-s,722,2477277,0.0-19.0-0.1-0.192,A2DLYBXZNSSJ4S,306996CF7Z0Y3F4KVQ7DFLTE4FJB13,3Z3ZLGNNSMAK37IIRENONNZXIBY3QW,3,4
193,3,object_10,object_02,271.09999990463,5,1,1196.3999999762,0.2222222222222222,1,object_03,1,2286,0,2,4,library_6,2,memory-2step-stake-s,723,2485945,0.0-19.0-0.1-0.193,A2DLYBXZNSSJ4S,306996CF7Z0Y3F4KVQ7DFLTE4FJB13,3Z3ZLGNNSMAK37IIRENONNZXIBY3QW,5,6
194,2,object_01,object_05,11.100000023842,3,1,1077.6000000238,0.3333333333333333,1,object_03,5,2301,0,3,3,forest_8,2,memory-2step-stake-s,724,2494620,0.0-19.0-0.1-0.194,A2DLYBXZNSSJ4S,306996CF7Z0Y3F4KVQ7DFLTE4FJB13,3Z3ZLGNNSMAK37IIRENONNZXIBY3QW,3,4
195,3,object_10,object_02,80.0,5,1,251.10000002384,0.3333333333333333,1,object_03,5,2316,0,3,3,library_7,2,memory-2step-stake-s,725,2502479,0.0-19.0-0.1-0.195,A2DLYBXZNSSJ4S,306996CF7Z0Y3F4KVQ7DFLTE4FJB13,3Z3ZLGNNSMAK37IIRENONNZXIBY3QW,5,6
196,3,object_02,object_10,350.60000002384,5,2,207.60000002384,0.0,1,object_03,1,2316,0,0,3,library_6,2,memory-2step-stake-s,726,2509945,0.0-19.0-0.1-0.196,A2DLYBXZNSSJ4S,306996CF7Z0Y3F4KVQ7DFLTE4FJB13,3Z3ZLGNNSMAK37IIRENONNZXIBY3QW,6,5
197,2,object_05,object_01,294.89999997616,3,2,173.60000002384,0.0,1,object_03,5,2316,0,0,2,forest_6,2,memory-2step-stake-s,727,2517395,0.0-19.0-0.1-0.197,A2DLYBXZNSSJ4S,306996CF7Z0Y3F4KVQ7DFLTE4FJB13,3Z3ZLGNNSMAK37IIRENONNZXIBY3QW,4,3
198,2,object_01,object_05,490.39999997616,4,2,82.0,0.1111111111111111,2,object_04,5,2321,0,2,1,forest_7,2,memory-2step-stake-s,728,2524850,0.0-19.0-0.1-0.198,A2DLYBXZNSSJ4S,306996CF7Z0Y3F4KVQ7DFLTE4FJB13,3Z3ZLGNNSMAK37IIRENONNZXIBY3QW,3,4
199,3,object_10,object_02,3.5,5,1,150.5,0.4444444444444444,1,object_03,1,2325,0,4,1,library_7,2,memory-2step-stake-s,729,2532681,0.0-19.0-0.1-0.199,A2DLYBXZNSSJ4S,306996CF7Z0Y3F4KVQ7DFLTE4FJB13,3Z3ZLGNNSMAK37IIRENONNZXIBY3QW,5,6
200,4,object_08,object_07,235.59999990463,8,1,285.0,0.1111111111111111,2,object_04,1,2326,0,4,1,restaurant_1,2,memory-2step-stake-s,730,2540320,0.0-19.0-0.1-0.200,A2DLYBXZNSSJ4S,306996CF7Z0Y3F4KVQ7DFLTE4FJB13,3Z3ZLGNNSMAK37IIRENONNZXIBY3QW,8,7
201,2,object_01,object_05,130.79999995232,3,1,78.799999952316,0.6666666666666666,1,object_03,5,2356,0,6,3,forest_8,2,memory-2step-stake-s,731,2548343,0.0-19.0-0.1-0.201,A2DLYBXZNSSJ4S,306996CF7Z0Y3F4KVQ7DFLTE4FJB13,3Z3ZLGNNSMAK37IIRENONNZXIBY3QW,3,4
202,1,object_06,object_09,47.900000095367,2,1,215.5,0.3333333333333333,2,object_04,5,2371,0,6,3,desert_4,2,memory-2step-stake-s,732,2556110,0.0-19.0-0.1-0.202,A2DLYBXZNSSJ4S,306996CF7Z0Y3F4KVQ7DFLTE4FJB13,3Z3ZLGNNSMAK37IIRENONNZXIBY3QW,2,1
203,3,object_02,object_10,262.5,6,1,156.0,0.5555555555555556,2,object_04,1,2376,0,6,5,library_2,2,memory-2step-stake-s,733,2564102,0.0-19.0-0.1-0.203,A2DLYBXZNSSJ4S,306996CF7Z0Y3F4KVQ7DFLTE4FJB13,3Z3ZLGNNSMAK37IIRENONNZXIBY3QW,6,5
204,1,object_06,object_09,110.69999992847,2,1,199.20000004768,0.2222222222222222,2,object_04,5,2386,0,8,2,desert_7,2,memory-2step-stake-s,734,2571789,0.0-19.0-0.1-0.204,A2DLYBXZNSSJ4S,306996CF7Z0Y3F4KVQ7DFLTE4FJB13,3Z3ZLGNNSMAK37IIRENONNZXIBY3QW,2,1
205,1,object_09,object_06,142.29999995232,1,1,137.30000007153,0.7777777777777778,1,object_03,5,2421,0,7,1,desert_3,2,memory-2step-stake-s,735,2579953,0.0-19.0-0.1-0.205,A2DLYBXZNSSJ4S,306996CF7Z0Y3F4KVQ7DFLTE4FJB13,3Z3ZLGNNSMAK37IIRENONNZXIBY3QW,1,2
206,4,object_08,object_07,279.0,8,1,260.29999995232,0.0,2,object_04,1,2421,0,5,0,restaurant_7,2,memory-2step-stake-s,736,2587480,0.0-19.0-0.1-0.206,A2DLYBXZNSSJ4S,306996CF7Z0Y3F4KVQ7DFLTE4FJB13,3Z3ZLGNNSMAK37IIRENONNZXIBY3QW,8,7
207,1,object_06,object_09,12.899999976158,2,1,207.10000002384,0.2222222222222222,2,object_04,5,2431,0,5,2,desert_3,2,memory-2step-stake-s,737,2595178,0.0-19.0-0.1-0.207,A2DLYBXZNSSJ4S,306996CF7Z0Y3F4KVQ7DFLTE4FJB13,3Z3ZLGNNSMAK37IIRENONNZXIBY3QW,2,1
208,1,object_09,object_06,106.60000002384,1,1,293.30000007153,0.6666666666666666,1,object_03,5,2461,0,6,2,desert_3,2,memory-2step-stake-s,738,2603323,0.0-19.0-0.1-0.208,A2DLYBXZNSSJ4S,306996CF7Z0Y3F4KVQ7DFLTE4FJB13,3Z3ZLGNNSMAK37IIRENONNZXIBY3QW,1,2
209,3,object_10,object_02,197.59999990463,5,1,424.60000002384,0.4444444444444444,1,object_03,1,2465,0,4,5,library_2,2,memory-2step-stake-s,739,2611473,0.0-19.0-0.1-0.209,A2DLYBXZNSSJ4S,306996CF7Z0Y3F4KVQ7DFLTE4FJB13,3Z3ZLGNNSMAK37IIRENONNZXIBY3QW,5,6
210,1,object_06,object_09,147.90000009537,1,2,263.5,0.8888888888888888,1,object_03,1,2473,0,8,3,desert_3,2,memory-2step-stake-s,740,2619942,0.0-19.0-0.1-0.210,A2DLYBXZNSSJ4S,306996CF7Z0Y3F4KVQ7DFLTE4FJB13,3Z3ZLGNNSMAK37IIRENONNZXIBY3QW,2,1
211,2,object_01,object_05,302.39999997616,3,1,120.5,0.5555555555555556,1,object_03,5,2498,0,5,1,forest_8,2,memory-2step-stake-s,741,2627887,0.0-19.0-0.1-0.211,A2DLYBXZNSSJ4S,306996CF7Z0Y3F4KVQ7DFLTE4FJB13,3Z3ZLGNNSMAK37IIRENONNZXIBY3QW,3,4
212,4,object_07,object_08,21.700000047684,7,1,337.60000002384,0.8888888888888888,1,object_03,1,2506,0,8,0,restaurant_7,2,memory-2step-stake-s,742,2636365,0.0-19.0-0.1-0.212,A2DLYBXZNSSJ4S,306996CF7Z0Y3F4KVQ7DFLTE4FJB13,3Z3ZLGNNSMAK37IIRENONNZXIBY3QW,7,8
213,4,object_07,object_08,185.79999995232,8,2,392.20000004768,0.2222222222222222,2,object_04,1,2508,0,7,2,restaurant_2,2,memory-2step-stake-s,743,2644226,0.0-19.0-0.1-0.213,A2DLYBXZNSSJ4S,306996CF7Z0Y3F4KVQ7DFLTE4FJB13,3Z3ZLGNNSMAK37IIRENONNZXIBY3QW,7,8
214,3,object_02,object_10,108.30000007153,6,1,426.69999992847,0.6666666666666666,2,object_04,1,2514,0,9,6,library_6,2,memory-2step-stake-s,744,2652556,0.0-19.0-0.1-0.214,A2DLYBXZNSSJ4S,306996CF7Z0Y3F4KVQ7DFLTE4FJB13,3Z3ZLGNNSMAK37IIRENONNZXIBY3QW,6,5
215,3,object_02,object_10,280.39999997616,6,1,99.600000023842,0.2222222222222222,2,object_04,1,2516,0,8,2,library_5,2,memory-2step-stake-s,745,2660135,0.0-19.0-0.1-0.215,A2DLYBXZNSSJ4S,306996CF7Z0Y3F4KVQ7DFLTE4FJB13,3Z3ZLGNNSMAK37IIRENONNZXIBY3QW,6,5
216,3,object_10,object_02,249.20000004768,6,2,248.60000002384,0.0,2,object_04,1,2516,0,8,0,library_2,2,memory-2step-stake-s,746,2667633,0.0-19.0-0.1-0.216,A2DLYBXZNSSJ4S,306996CF7Z0Y3F4KVQ7DFLTE4FJB13,3Z3ZLGNNSMAK37IIRENONNZXIBY3QW,5,6
217,2,object_05,object_01,236.60000002384,4,1,68.100000023842,0.2222222222222222,2,object_04,5,2526,0,9,2,forest_8,2,memory-2step-stake-s,747,2675161,0.0-19.0-0.1-0.217,A2DLYBXZNSSJ4S,306996CF7Z0Y3F4KVQ7DFLTE4FJB13,3Z3ZLGNNSMAK37IIRENONNZXIBY3QW,4,3
218,4,object_08,object_07,130.19999992847,8,1,285.10000002384,0.4444444444444444,2,object_04,1,2530,0,5,4,restaurant_4,2,memory-2step-stake-s,748,2683124,0.0-19.0-0.1-0.218,A2DLYBXZNSSJ4S,306996CF7Z0Y3F4KVQ7DFLTE4FJB13,3Z3ZLGNNSMAK37IIRENONNZXIBY3QW,8,7
219,4,object_08,object_07,183.19999992847,8,1,210.40000009537,0.7777777777777778,2,object_04,1,2537,0,6,7,restaurant_1,2,memory-2step-stake-s,749,2691347,0.0-19.0-0.1-0.219,A2DLYBXZNSSJ4S,306996CF7Z0Y3F4KVQ7DFLTE4FJB13,3Z3ZLGNNSMAK37IIRENONNZXIBY3QW,8,7
220,2,object_05,object_01,33.600000023842,4,1,161.09999990463,0.7777777777777778,2,object_04,5,2572,0,7,7,forest_7,2,memory-2step-stake-s,750,2699570,0.0-19.0-0.1-0.220,A2DLYBXZNSSJ4S,306996CF7Z0Y3F4KVQ7DFLTE4FJB13,3Z3ZLGNNSMAK37IIRENONNZXIBY3QW,4,3
221,1,object_09,object_06,175.39999997616,1,1,171.10000002384,0.4444444444444444,1,object_03,5,2592,0,4,8,desert_7,2,memory-2step-stake-s,751,2707420,0.0-19.0-0.1-0.221,A2DLYBXZNSSJ4S,306996CF7Z0Y3F4KVQ7DFLTE4FJB13,3Z3ZLGNNSMAK37IIRENONNZXIBY3QW,1,2
222,1,object_06,object_09,100.20000004768,1,2,305.0,0.4444444444444444,1,object_03,1,2596,0,4,4,desert_8,2,memory-2step-stake-s,752,2715432,0.0-19.0-0.1-0.222,A2DLYBXZNSSJ4S,306996CF7Z0Y3F4KVQ7DFLTE4FJB13,3Z3ZLGNNSMAK37IIRENONNZXIBY3QW,2,1
223,1,object_06,object_09,575.5,2,1,79.0,0.5555555555555556,2,object_04,1,2601,0,2,5,desert_4,2,memory-2step-stake-s,753,2723336,0.0-19.0-0.1-0.223,A2DLYBXZNSSJ4S,306996CF7Z0Y3F4KVQ7DFLTE4FJB13,3Z3ZLGNNSMAK37IIRENONNZXIBY3QW,2,1
224,2,object_01,object_05,348.30000007153,3,1,111.89999997616,0.2222222222222222,1,object_03,5,2611,0,2,1,forest_1,2,memory-2step-stake-s,754,2730914,0.0-19.0-0.1-0.224,A2DLYBXZNSSJ4S,306996CF7Z0Y3F4KVQ7DFLTE4FJB13,3Z3ZLGNNSMAK37IIRENONNZXIBY3QW,3,4
225,4,object_07,object_08,26.199999928474,7,1,133.5,0.3333333333333333,1,object_03,1,2614,0,3,2,restaurant_4,2,memory-2step-stake-s,755,2738649,0.0-19.0-0.1-0.225,A2DLYBXZNSSJ4S,306996CF7Z0Y3F4KVQ7DFLTE4FJB13,3Z3ZLGNNSMAK37IIRENONNZXIBY3QW,7,8
226,4,object_08,object_07,58.0,8,1,994.39999997616,0.3333333333333333,2,object_04,1,2617,0,5,3,restaurant_1,2,memory-2step-stake-s,756,2747232,0.0-19.0-0.1-0.226,A2DLYBXZNSSJ4S,306996CF7Z0Y3F4KVQ7DFLTE4FJB13,3Z3ZLGNNSMAK37IIRENONNZXIBY3QW,8,7
227,3,object_02,object_10,163.0,6,1,243.79999995232,0.2222222222222222,2,object_04,5,2627,0,7,2,library_5,2,memory-2step-stake-s,757,2754945,0.0-19.0-0.1-0.227,A2DLYBXZNSSJ4S,306996CF7Z0Y3F4KVQ7DFLTE4FJB13,3Z3ZLGNNSMAK37IIRENONNZXIBY3QW,6,5
228,4,object_07,object_08,19.700000047684,8,2,305.60000002384,0.2222222222222222,2,object_04,1,2629,0,8,2,restaurant_1,2,memory-2step-stake-s,758,2762727,0.0-19.0-0.1-0.228,A2DLYBXZNSSJ4S,306996CF7Z0Y3F4KVQ7DFLTE4FJB13,3Z3ZLGNNSMAK37IIRENONNZXIBY3QW,7,8
229,1,object_09,object_06,29.199999928474,2,2,219.39999997616,0.5555555555555556,2,object_04,5,2654,0,8,5,desert_4,2,memory-2step-stake-s,759,2770733,0.0-19.0-0.1-0.229,A2DLYBXZNSSJ4S,306996CF7Z0Y3F4KVQ7DFLTE4FJB13,3Z3ZLGNNSMAK37IIRENONNZXIBY3QW,1,2
230,4,object_07,object_08,68.900000095367,8,2,327.5,0.7777777777777778,2,object_04,1,2661,0,8,7,restaurant_2,2,memory-2step-stake-s,760,2779080,0.0-19.0-0.1-0.230,A2DLYBXZNSSJ4S,306996CF7Z0Y3F4KVQ7DFLTE4FJB13,3Z3ZLGNNSMAK37IIRENONNZXIBY3QW,7,8
231,2,object_05,object_01,134.10000002384,3,2,-1.0,0.0,1,object_03,1,2661,0,5,9,forest_6,2,memory-2step-stake-s,761,2787635,0.0-19.0-0.1-0.231,A2DLYBXZNSSJ4S,306996CF7Z0Y3F4KVQ7DFLTE4FJB13,3Z3ZLGNNSMAK37IIRENONNZXIBY3QW,4,3
232,3,object_10,object_02,53.5,6,2,313.5,0.6666666666666666,2,object_04,1,2667,0,6,6,library_5,2,memory-2step-stake-s,762,2795882,0.0-19.0-0.1-0.232,A2DLYBXZNSSJ4S,306996CF7Z0Y3F4KVQ7DFLTE4FJB13,3Z3ZLGNNSMAK37IIRENONNZXIBY3QW,5,6
233,2,object_05,object_01,13.699999928474,3,2,211.10000002384,0.7777777777777778,1,object_03,5,2702,0,7,4,forest_1,2,memory-2step-stake-s,763,2804086,0.0-19.0-0.1-0.233,A2DLYBXZNSSJ4S,306996CF7Z0Y3F4KVQ7DFLTE4FJB13,3Z3ZLGNNSMAK37IIRENONNZXIBY3QW,4,3
234,4,object_08,object_07,41.900000095367,8,1,339.0,0.5555555555555556,2,object_04,1,2707,0,8,5,restaurant_1,2,memory-2step-stake-s,764,2812253,0.0-19.0-0.1-0.234,A2DLYBXZNSSJ4S,306996CF7Z0Y3F4KVQ7DFLTE4FJB13,3Z3ZLGNNSMAK37IIRENONNZXIBY3QW,8,7
235,2,object_01,object_05,140.30000007153,3,1,102.10000002384,0.7777777777777778,1,object_03,5,2742,0,7,7,forest_8,2,memory-2step-stake-s,765,2820390,0.0-19.0-0.1-0.235,A2DLYBXZNSSJ4S,306996CF7Z0Y3F4KVQ7DFLTE4FJB13,3Z3ZLGNNSMAK37IIRENONNZXIBY3QW,3,4
236,3,object_02,object_10,110.60000002384,6,1,207.79999995232,0.7777777777777778,2,object_04,1,2749,0,8,7,library_7,2,memory-2step-stake-s,766,2828628,0.0-19.0-0.1-0.236,A2DLYBXZNSSJ4S,306996CF7Z0Y3F4KVQ7DFLTE4FJB13,3Z3ZLGNNSMAK37IIRENONNZXIBY3QW,6,5
237,2,object_01,object_05,80.5,4,2,164.69999992847,0.6666666666666666,2,object_04,5,2779,0,8,6,forest_1,2,memory-2step-stake-s,767,2836710,0.0-19.0-0.1-0.237,A2DLYBXZNSSJ4S,306996CF7Z0Y3F4KVQ7DFLTE4FJB13,3Z3ZLGNNSMAK37IIRENONNZXIBY3QW,3,4
238,4,object_07,object_08,125.30000007153,8,2,274.39999997616,0.7777777777777778,2,object_04,1,2786,0,8,7,restaurant_4,2,memory-2step-stake-s,768,2845002,0.0-19.0-0.1-0.238,A2DLYBXZNSSJ4S,306996CF7Z0Y3F4KVQ7DFLTE4FJB13,3Z3ZLGNNSMAK37IIRENONNZXIBY3QW,7,8
239,1,object_06,object_09,276.39999997616,1,2,26.399999976158,0.6666666666666666,1,object_03,5,2816,0,6,7,desert_8,2,memory-2step-stake-s,769,2852974,0.0-19.0-0.1-0.239,A2DLYBXZNSSJ4S,306996CF7Z0Y3F4KVQ7DFLTE4FJB13,3Z3ZLGNNSMAK37IIRENONNZXIBY3QW,2,1
240,1,object_06,object_09,53.600000023842,1,2,227.60000002384,0.2222222222222222,1,object_03,5,2826,0,2,7,desert_4,2,memory-2step-stake-s,770,2860646,0.0-19.0-0.1-0.240,A2DLYBXZNSSJ4S,306996CF7Z0Y3F4KVQ7DFLTE4FJB13,3Z3ZLGNNSMAK37IIRENONNZXIBY3QW,2,1
241,4,object_07,object_08,20.0,8,2,256.70000004768,0.7777777777777778,2,object_04,5,2861,0,3,7,restaurant_7,2,memory-2step-stake-s,771,2868916,0.0-19.0-0.1-0.241,A2DLYBXZNSSJ4S,306996CF7Z0Y3F4KVQ7DFLTE4FJB13,3Z3ZLGNNSMAK37IIRENONNZXIBY3QW,7,8
242,2,object_01,object_05,316.89999997616,4,2,39.799999952316,0.4444444444444444,2,object_04,5,2881,0,3,4,forest_8,2,memory-2step-stake-s,772,2876648,0.0-19.0-0.1-0.242,A2DLYBXZNSSJ4S,306996CF7Z0Y3F4KVQ7DFLTE4FJB13,3Z3ZLGNNSMAK37IIRENONNZXIBY3QW,3,4
243,3,object_02,object_10,33.399999976158,5,2,207.0,0.4444444444444444,1,object_03,1,2885,0,4,5,library_6,2,memory-2step-stake-s,773,2884529,0.0-19.0-0.1-0.243,A2DLYBXZNSSJ4S,306996CF7Z0Y3F4KVQ7DFLTE4FJB13,3Z3ZLGNNSMAK37IIRENONNZXIBY3QW,6,5
244,4,object_08,object_07,13.399999976158,7,2,369.0,0.4444444444444444,1,object_03,1,2889,0,4,3,restaurant_7,2,memory-2step-stake-s,774,2892610,0.0-19.0-0.1-0.244,A2DLYBXZNSSJ4S,306996CF7Z0Y3F4KVQ7DFLTE4FJB13,3Z3ZLGNNSMAK37IIRENONNZXIBY3QW,8,7
245,3,object_10,object_02,120.0,6,2,431.60000002384,0.0,2,object_04,1,2889,0,7,0,library_5,2,memory-2step-stake-s,775,2900321,0.0-19.0-0.1-0.245,A2DLYBXZNSSJ4S,306996CF7Z0Y3F4KVQ7DFLTE4FJB13,3Z3ZLGNNSMAK37IIRENONNZXIBY3QW,5,6
246,4,object_07,object_08,768.80000007153,8,2,679.39999997616,0.2222222222222222,2,object_04,1,2891,0,4,2,restaurant_7,2,memory-2step-stake-s,776,2908490,0.0-19.0-0.1-0.246,A2DLYBXZNSSJ4S,306996CF7Z0Y3F4KVQ7DFLTE4FJB13,3Z3ZLGNNSMAK37IIRENONNZXIBY3QW,7,8
247,3,object_10,object_02,241.40000009537,6,2,220.29999995232,0.3333333333333333,2,object_04,1,2894,0,3,3,library_5,2,memory-2step-stake-s,777,2916307,0.0-19.0-0.1-0.247,A2DLYBXZNSSJ4S,306996CF7Z0Y3F4KVQ7DFLTE4FJB13,3Z3ZLGNNSMAK37IIRENONNZXIBY3QW,5,6
248,2,object_01,object_05,159.10000002384,4,2,318.59999990463,0.3333333333333333,2,object_04,1,2897,0,2,3,forest_1,2,memory-2step-stake-s,778,2924195,0.0-19.0-0.1-0.248,A2DLYBXZNSSJ4S,306996CF7Z0Y3F4KVQ7DFLTE4FJB13,3Z3ZLGNNSMAK37IIRENONNZXIBY3QW,3,4
249,4,object_07,object_08,214.10000002384,7,1,254.79999995232,0.0,1,object_03,5,2897,0,0,1,restaurant_4,2,memory-2step-stake-s,779,2931695,0.0-19.0-0.1-0.249,A2DLYBXZNSSJ4S,306996CF7Z0Y3F4KVQ7DFLTE4FJB13,3Z3ZLGNNSMAK37IIRENONNZXIBY3QW,7,8
250,2,object_01,object_05,313.39999997616,3,1,256.19999992847,0.1111111111111111,1,object_03,5,2902,0,1,3,forest_8,2,memory-2step-stake-s,780,2939337,0.0-19.0-0.1-0.250,A2DLYBXZNSSJ4S,306996CF7Z0Y3F4KVQ7DFLTE4FJB13,3Z3ZLGNNSMAK37IIRENONNZXIBY3QW,3,4
251,3,object_02,object_10,322.20000004768,6,1,199.10000002384,0.4444444444444444,2,object_04,1,2906,0,3,4,library_7,2,memory-2step-stake-s,781,2947244,0.0-19.0-0.1-0.251,A2DLYBXZNSSJ4S,306996CF7Z0Y3F4KVQ7DFLTE4FJB13,3Z3ZLGNNSMAK37IIRENONNZXIBY3QW,6,5
252,4,object_08,object_07,156.09999990463,8,1,303.69999992847,0.4444444444444444,2,object_04,1,2910,0,3,4,restaurant_2,2,memory-2step-stake-s,782,2955277,0.0-19.0-0.1-0.252,A2DLYBXZNSSJ4S,306996CF7Z0Y3F4KVQ7DFLTE4FJB13,3Z3ZLGNNSMAK37IIRENONNZXIBY3QW,8,7
253,1,object_06,object_09,30.100000023842,2,1,118.69999992847,1.0,2,object_04,1,2919,0,2,9,desert_3,2,memory-2step-stake-s,783,2963586,0.0-19.0-0.1-0.253,A2DLYBXZNSSJ4S,306996CF7Z0Y3F4KVQ7DFLTE4FJB13,3Z3ZLGNNSMAK37IIRENONNZXIBY3QW,2,1
254,2,object_01,object_05,129.19999992847,3,1,139.80000007153,0.3333333333333333,1,object_03,5,2934,0,3,8,forest_7,2,memory-2step-stake-s,784,2971291,0.0-19.0-0.1-0.254,A2DLYBXZNSSJ4S,306996CF7Z0Y3F4KVQ7DFLTE4FJB13,3Z3ZLGNNSMAK37IIRENONNZXIBY3QW,3,4
255,3,object_02,object_10,4.1000000238419,6,1,262.5,0.8888888888888888,2,object_04,1,2942,0,2,8,library_6,2,memory-2step-stake-s,785,2979680,0.0-19.0-0.1-0.255,A2DLYBXZNSSJ4S,306996CF7Z0Y3F4KVQ7DFLTE4FJB13,3Z3ZLGNNSMAK37IIRENONNZXIBY3QW,6,5
