,state1,stim_left,stim_right,rt_1,choice1,response1,rt_2,points,state2,stim_state2,stake,score,practice,rews1,rews2,background,high_arm,trial_type,trial_index,time_elapsed,internal_node_id,subid,hitid,assignmentid,stim_left_num,stim_right_num
0,1,object_08,object_03,1143.1450000964,2,1,-1.0,0.0,2,object_01,5,0,0,3,8,desert_3,1,memory-2step-stake-s,495,853863,0.0-19.0-0.0-0.0,A3VFA6HNMEXO9L,3SA4EMRVKYI00KKCICLEW0FTGRS0PA,3VHHR074H7XRDT3S1LIIJICJD7W7LF,2,1
1,3,object_04,object_07,146.32999990135,5,2,1077.9649999458,0.0,1,object_06,5,0,0,0,8,library_5,1,memory-2step-stake-s,496,862165,0.0-19.0-0.0-0.1,A3VFA6HNMEXO9L,3SA4EMRVKYI00KKCICLEW0FTGRS0PA,3VHHR074H7XRDT3S1LIIJICJD7W7LF,6,5
2,4,object_10,object_05,1114.8600000888,7,2,683.24499996379,0.1111111111111111,1,object_06,5,5,0,1,7,restaurant_7,1,memory-2step-stake-s,497,870176,0.0-19.0-0.0-0.2,A3VFA6HNMEXO9L,3SA4EMRVKYI00KKCICLEW0FTGRS0PA,3VHHR074H7XRDT3S1LIIJICJD7W7LF,8,7
3,1,object_08,object_03,-1.0,-1,-1,-1.0,0.0,-,0,1,5,0,3,5,desert_2,1,memory-2step-stake-s,498,876693,0.0-19.0-0.0-0.3,A3VFA6HNMEXO9L,3SA4EMRVKYI00KKCICLEW0FTGRS0PA,3VHHR074H7XRDT3S1LIIJICJD7W7LF,2,1
4,2,object_09,object_02,-1.0,-1,-1,-1.0,0.0,-,0,5,5,0,6,5,forest_2,1,memory-2step-stake-s,499,883210,0.0-19.0-0.0-0.4,A3VFA6HNMEXO9L,3SA4EMRVKYI00KKCICLEW0FTGRS0PA,3VHHR074H7XRDT3S1LIIJICJD7W7LF,3,4
5,3,object_07,object_04,773.92000006512,5,1,791.07500007376,0.8888888888888888,1,object_06,5,45,0,8,6,library_7,1,memory-2step-stake-s,500,892037,0.0-19.0-0.0-0.5,A3VFA6HNMEXO9L,3SA4EMRVKYI00KKCICLEW0FTGRS0PA,3VHHR074H7XRDT3S1LIIJICJD7W7LF,5,6
6,3,object_07,object_04,605.4249999579,5,1,587.87499996834,0.7777777777777778,1,object_06,5,80,0,7,6,library_8,1,memory-2step-stake-s,501,900565,0.0-19.0-0.0-0.6,A3VFA6HNMEXO9L,3SA4EMRVKYI00KKCICLEW0FTGRS0PA,3VHHR074H7XRDT3S1LIIJICJD7W7LF,5,6
7,3,object_04,object_07,884.43499989808,5,2,691.27999991179,0.8888888888888888,1,object_06,1,88,0,8,7,library_3,1,memory-2step-stake-s,502,909285,0.0-19.0-0.0-0.7,A3VFA6HNMEXO9L,3SA4EMRVKYI00KKCICLEW0FTGRS0PA,3VHHR074H7XRDT3S1LIIJICJD7W7LF,6,5
8,2,object_09,object_02,1189.3599999603,4,2,764.39000014216,0.5555555555555556,2,object_01,1,93,0,9,5,forest_1,1,memory-2step-stake-s,503,917782,0.0-19.0-0.0-0.8,A3VFA6HNMEXO9L,3SA4EMRVKYI00KKCICLEW0FTGRS0PA,3VHHR074H7XRDT3S1LIIJICJD7W7LF,3,4
9,4,object_10,object_05,776.56500018202,8,1,614.5550000947,0.6666666666666666,2,object_01,5,123,0,7,6,restaurant_7,1,memory-2step-stake-s,504,926225,0.0-19.0-0.0-0.9,A3VFA6HNMEXO9L,3SA4EMRVKYI00KKCICLEW0FTGRS0PA,3VHHR074H7XRDT3S1LIIJICJD7W7LF,8,7
10,2,object_09,object_02,997.82499996945,4,2,405.5249998346,0.5555555555555556,2,object_01,1,128,0,9,5,forest_4,1,memory-2step-stake-s,505,934358,0.0-19.0-0.0-0.10,A3VFA6HNMEXO9L,3SA4EMRVKYI00KKCICLEW0FTGRS0PA,3VHHR074H7XRDT3S1LIIJICJD7W7LF,3,4
11,2,object_09,object_02,600.36499984562,3,1,477.79499995522,1.0,1,object_06,5,173,0,9,8,forest_1,1,memory-2step-stake-s,506,942973,0.0-19.0-0.0-0.11,A3VFA6HNMEXO9L,3SA4EMRVKYI00KKCICLEW0FTGRS0PA,3VHHR074H7XRDT3S1LIIJICJD7W7LF,3,4
12,3,object_04,object_07,688.17500001751,5,2,364.49999990873,0.6666666666666666,1,object_06,1,179,0,6,7,library_3,1,memory-2step-stake-s,507,951164,0.0-19.0-0.0-0.12,A3VFA6HNMEXO9L,3SA4EMRVKYI00KKCICLEW0FTGRS0PA,3VHHR074H7XRDT3S1LIIJICJD7W7LF,6,5
13,2,object_09,object_02,1174.5800001081,3,1,393.22500000708,0.8888888888888888,1,object_06,1,187,0,8,7,forest_2,1,memory-2step-stake-s,508,959596,0.0-19.0-0.0-0.13,A3VFA6HNMEXO9L,3SA4EMRVKYI00KKCICLEW0FTGRS0PA,3VHHR074H7XRDT3S1LIIJICJD7W7LF,3,4
14,4,object_05,object_10,850.15499987639,7,1,448.81500001065,0.6666666666666666,1,object_06,1,193,0,6,6,restaurant_7,1,memory-2step-stake-s,509,967873,0.0-19.0-0.0-0.14,A3VFA6HNMEXO9L,3SA4EMRVKYI00KKCICLEW0FTGRS0PA,3VHHR074H7XRDT3S1LIIJICJD7W7LF,7,8
15,4,object_05,object_10,690.11999992654,8,2,494.5000000298,0.5555555555555556,2,object_01,5,218,0,6,5,restaurant_7,1,memory-2step-stake-s,510,976098,0.0-19.0-0.0-0.15,A3VFA6HNMEXO9L,3SA4EMRVKYI00KKCICLEW0FTGRS0PA,3VHHR074H7XRDT3S1LIIJICJD7W7LF,7,8
16,4,object_10,object_05,636.86500000767,8,1,397.28999999352,0.6666666666666666,2,object_01,5,248,0,4,6,restaurant_1,1,memory-2step-stake-s,511,984333,0.0-19.0-0.0-0.16,A3VFA6HNMEXO9L,3SA4EMRVKYI00KKCICLEW0FTGRS0PA,3VHHR074H7XRDT3S1LIIJICJD7W7LF,8,7
17,1,object_08,object_03,1113.0299998913,1,2,409.79499998502,0.5555555555555556,1,object_06,5,273,0,5,5,desert_4,1,memory-2step-stake-s,512,992466,0.0-19.0-0.0-0.17,A3VFA6HNMEXO9L,3SA4EMRVKYI00KKCICLEW0FTGRS0PA,3VHHR074H7XRDT3S1LIIJICJD7W7LF,2,1
18,1,object_03,object_08,996.25000008382,2,2,486.86500010081,0.8888888888888888,2,object_01,5,313,0,5,8,desert_4,1,memory-2step-stake-s,513,1000985,0.0-19.0-0.0-0.18,A3VFA6HNMEXO9L,3SA4EMRVKYI00KKCICLEW0FTGRS0PA,3VHHR074H7XRDT3S1LIIJICJD7W7LF,1,2
19,3,object_04,object_07,944.99500002712,6,1,394.51000001281,0.8888888888888888,2,object_01,5,353,0,3,8,library_7,1,memory-2step-stake-s,514,1009416,0.0-19.0-0.0-0.19,A3VFA6HNMEXO9L,3SA4EMRVKYI00KKCICLEW0FTGRS0PA,3VHHR074H7XRDT3S1LIIJICJD7W7LF,6,5
20,1,object_08,object_03,1378.0799999367,2,1,452.7750001289,0.8888888888888888,2,object_01,1,361,0,4,8,desert_4,1,memory-2step-stake-s,515,1017907,0.0-19.0-0.0-0.20,A3VFA6HNMEXO9L,3SA4EMRVKYI00KKCICLEW0FTGRS0PA,3VHHR074H7XRDT3S1LIIJICJD7W7LF,2,1
21,3,object_07,object_04,770.88500000536,6,2,370.4850000795,0.8888888888888888,2,object_01,5,401,0,9,8,library_3,1,memory-2step-stake-s,516,1026318,0.0-19.0-0.0-0.21,A3VFA6HNMEXO9L,3SA4EMRVKYI00KKCICLEW0FTGRS0PA,3VHHR074H7XRDT3S1LIIJICJD7W7LF,5,6
22,2,object_02,object_09,796.5499998536,4,1,416.78500012495,0.8888888888888888,2,object_01,5,441,0,6,8,forest_2,1,memory-2step-stake-s,517,1034772,0.0-19.0-0.0-0.22,A3VFA6HNMEXO9L,3SA4EMRVKYI00KKCICLEW0FTGRS0PA,3VHHR074H7XRDT3S1LIIJICJD7W7LF,4,3
23,2,object_09,object_02,804.54499996267,4,2,385.04000008106,0.8888888888888888,2,object_01,1,449,0,4,8,forest_8,1,memory-2step-stake-s,518,1043193,0.0-19.0-0.0-0.23,A3VFA6HNMEXO9L,3SA4EMRVKYI00KKCICLEW0FTGRS0PA,3VHHR074H7XRDT3S1LIIJICJD7W7LF,3,4
24,2,object_09,object_02,995.1099997852,4,2,365.43500004336,1.0,2,object_01,1,458,0,7,9,forest_4,1,memory-2step-stake-s,519,1051700,0.0-19.0-0.0-0.24,A3VFA6HNMEXO9L,3SA4EMRVKYI00KKCICLEW0FTGRS0PA,3VHHR074H7XRDT3S1LIIJICJD7W7LF,3,4
25,4,object_05,object_10,907.92999998666,7,1,552.32000001706,0.8888888888888888,1,object_06,5,498,0,8,9,restaurant_2,1,memory-2step-stake-s,520,1060287,0.0-19.0-0.0-0.25,A3VFA6HNMEXO9L,3SA4EMRVKYI00KKCICLEW0FTGRS0PA,3VHHR074H7XRDT3S1LIIJICJD7W7LF,7,8
26,3,object_04,object_07,785.80499999225,6,1,390.23499982432,1.0,2,object_01,5,543,0,6,9,library_7,1,memory-2step-stake-s,521,1068821,0.0-19.0-0.0-0.26,A3VFA6HNMEXO9L,3SA4EMRVKYI00KKCICLEW0FTGRS0PA,3VHHR074H7XRDT3S1LIIJICJD7W7LF,6,5
27,4,object_05,object_10,968.9650000073,7,1,405.88500001468,0.6666666666666666,1,object_06,1,549,0,6,8,restaurant_2,1,memory-2step-stake-s,522,1077061,0.0-19.0-0.0-0.27,A3VFA6HNMEXO9L,3SA4EMRVKYI00KKCICLEW0FTGRS0PA,3VHHR074H7XRDT3S1LIIJICJD7W7LF,7,8
28,3,object_04,object_07,956.62999991328,6,1,362.33499995433,0.6666666666666666,2,object_01,1,555,0,5,6,library_5,1,memory-2step-stake-s,523,1085258,0.0-19.0-0.0-0.28,A3VFA6HNMEXO9L,3SA4EMRVKYI00KKCICLEW0FTGRS0PA,3VHHR074H7XRDT3S1LIIJICJD7W7LF,6,5
29,3,object_04,object_07,723.77999988385,6,1,452.27999985218,0.8888888888888888,2,object_01,5,595,0,4,8,library_5,1,memory-2step-stake-s,524,1093744,0.0-19.0-0.0-0.29,A3VFA6HNMEXO9L,3SA4EMRVKYI00KKCICLEW0FTGRS0PA,3VHHR074H7XRDT3S1LIIJICJD7W7LF,6,5
30,2,object_02,object_09,882.41000007838,4,1,334.13000009023,0.8888888888888888,2,object_01,1,603,0,5,8,forest_4,1,memory-2step-stake-s,525,1102107,0.0-19.0-0.0-0.30,A3VFA6HNMEXO9L,3SA4EMRVKYI00KKCICLEW0FTGRS0PA,3VHHR074H7XRDT3S1LIIJICJD7W7LF,4,3
31,3,object_07,object_04,876.39999995008,6,2,418.4299998451,0.8888888888888888,2,object_01,5,643,0,3,8,library_7,1,memory-2step-stake-s,526,1110560,0.0-19.0-0.0-0.31,A3VFA6HNMEXO9L,3SA4EMRVKYI00KKCICLEW0FTGRS0PA,3VHHR074H7XRDT3S1LIIJICJD7W7LF,5,6
32,2,object_09,object_02,984.38000003807,4,2,694.11500007845,0.8888888888888888,2,object_01,1,651,0,1,8,forest_8,1,memory-2step-stake-s,527,1119286,0.0-19.0-0.0-0.32,A3VFA6HNMEXO9L,3SA4EMRVKYI00KKCICLEW0FTGRS0PA,3VHHR074H7XRDT3S1LIIJICJD7W7LF,3,4
33,4,object_05,object_10,1144.2350000143,7,1,623.28000017442,0.3333333333333333,1,object_06,1,654,0,3,5,restaurant_1,1,memory-2step-stake-s,528,1127431,0.0-19.0-0.0-0.33,A3VFA6HNMEXO9L,3SA4EMRVKYI00KKCICLEW0FTGRS0PA,3VHHR074H7XRDT3S1LIIJICJD7W7LF,7,8
34,2,object_02,object_09,960.7899999246,4,1,383.12999997288,0.4444444444444444,2,object_01,1,658,0,6,4,forest_4,1,memory-2step-stake-s,529,1135441,0.0-19.0-0.0-0.34,A3VFA6HNMEXO9L,3SA4EMRVKYI00KKCICLEW0FTGRS0PA,3VHHR074H7XRDT3S1LIIJICJD7W7LF,4,3
35,4,object_05,object_10,1167.5050000194,7,1,432.35499993898,0.8888888888888888,1,object_06,5,698,0,8,2,restaurant_6,1,memory-2step-stake-s,530,1143911,0.0-19.0-0.0-0.35,A3VFA6HNMEXO9L,3SA4EMRVKYI00KKCICLEW0FTGRS0PA,3VHHR074H7XRDT3S1LIIJICJD7W7LF,7,8
36,2,object_09,object_02,874.15000004694,4,2,527.09999983199,0.2222222222222222,2,object_01,1,700,0,6,2,forest_2,1,memory-2step-stake-s,531,1151858,0.0-19.0-0.0-0.36,A3VFA6HNMEXO9L,3SA4EMRVKYI00KKCICLEW0FTGRS0PA,3VHHR074H7XRDT3S1LIIJICJD7W7LF,3,4
37,4,object_10,object_05,950.00499999151,8,1,424.95499993674,0.0,2,object_01,5,700,0,8,0,restaurant_7,1,memory-2step-stake-s,532,1159500,0.0-19.0-0.0-0.37,A3VFA6HNMEXO9L,3SA4EMRVKYI00KKCICLEW0FTGRS0PA,3VHHR074H7XRDT3S1LIIJICJD7W7LF,8,7
38,4,object_10,object_05,749.599999981,8,1,395.40000003763,0.5555555555555556,2,object_01,5,725,0,7,5,restaurant_2,1,memory-2step-stake-s,533,1167623,0.0-19.0-0.0-0.38,A3VFA6HNMEXO9L,3SA4EMRVKYI00KKCICLEW0FTGRS0PA,3VHHR074H7XRDT3S1LIIJICJD7W7LF,8,7
39,3,object_04,object_07,773.38499994949,5,2,365.57500017807,1.0,1,object_06,1,734,0,9,6,library_8,1,memory-2step-stake-s,534,1176125,0.0-19.0-0.0-0.39,A3VFA6HNMEXO9L,3SA4EMRVKYI00KKCICLEW0FTGRS0PA,3VHHR074H7XRDT3S1LIIJICJD7W7LF,6,5
40,4,object_10,object_05,634.02499980293,8,1,424.06000010669,0.7777777777777778,2,object_01,5,769,0,7,7,restaurant_2,1,memory-2step-stake-s,535,1184483,0.0-19.0-0.0-0.40,A3VFA6HNMEXO9L,3SA4EMRVKYI00KKCICLEW0FTGRS0PA,3VHHR074H7XRDT3S1LIIJICJD7W7LF,8,7
41,1,object_03,object_08,885.10000007227,1,1,384.22499992885,0.4444444444444444,1,object_06,1,773,0,4,5,desert_2,1,memory-2step-stake-s,536,1192504,0.0-19.0-0.0-0.41,A3VFA6HNMEXO9L,3SA4EMRVKYI00KKCICLEW0FTGRS0PA,3VHHR074H7XRDT3S1LIIJICJD7W7LF,1,2
42,3,object_07,object_04,756.41999999061,6,2,503.57999978587,0.4444444444444444,2,object_01,5,793,0,2,4,library_8,1,memory-2step-stake-s,537,1200642,0.0-19.0-0.0-0.42,A3VFA6HNMEXO9L,3SA4EMRVKYI00KKCICLEW0FTGRS0PA,3VHHR074H7XRDT3S1LIIJICJD7W7LF,5,6
43,3,object_04,object_07,-1.0,-1,-1,-1.0,0.0,-,0,5,793,0,1,2,library_8,1,memory-2step-stake-s,538,1207159,0.0-19.0-0.0-0.43,A3VFA6HNMEXO9L,3SA4EMRVKYI00KKCICLEW0FTGRS0PA,3VHHR074H7XRDT3S1LIIJICJD7W7LF,6,5
44,2,object_09,object_02,437.73999996483,3,1,438.00500012003,0.3333333333333333,1,object_06,1,796,0,3,5,forest_1,1,memory-2step-stake-s,539,1215128,0.0-19.0-0.0-0.44,A3VFA6HNMEXO9L,3SA4EMRVKYI00KKCICLEW0FTGRS0PA,3VHHR074H7XRDT3S1LIIJICJD7W7LF,3,4
45,2,object_09,object_02,454.10500001162,4,2,415.93000013381,0.7777777777777778,2,object_01,5,831,0,3,7,forest_4,1,memory-2step-stake-s,540,1223482,0.0-19.0-0.0-0.45,A3VFA6HNMEXO9L,3SA4EMRVKYI00KKCICLEW0FTGRS0PA,3VHHR074H7XRDT3S1LIIJICJD7W7LF,3,4
46,3,object_07,object_04,399.16000002995,5,1,623.57000005431,0.6666666666666666,1,object_06,1,837,0,6,5,library_7,1,memory-2step-stake-s,541,1231935,0.0-19.0-0.0-0.46,A3VFA6HNMEXO9L,3SA4EMRVKYI00KKCICLEW0FTGRS0PA,3VHHR074H7XRDT3S1LIIJICJD7W7LF,5,6
47,4,object_05,object_10,626.0450000409,7,1,361.88500002027,0.6666666666666666,1,object_06,5,867,0,6,5,restaurant_2,1,memory-2step-stake-s,542,1240126,0.0-19.0-0.0-0.47,A3VFA6HNMEXO9L,3SA4EMRVKYI00KKCICLEW0FTGRS0PA,3VHHR074H7XRDT3S1LIIJICJD7W7LF,7,8
48,4,object_05,object_10,507.0799998939,8,2,441.80000014603,0.5555555555555556,2,object_01,5,892,0,8,5,restaurant_1,1,memory-2step-stake-s,543,1248293,0.0-19.0-0.0-0.48,A3VFA6HNMEXO9L,3SA4EMRVKYI00KKCICLEW0FTGRS0PA,3VHHR074H7XRDT3S1LIIJICJD7W7LF,7,8
49,3,object_07,object_04,400.41500004008,6,2,382.53999990411,0.6666666666666666,2,object_01,1,898,0,7,6,library_8,1,memory-2step-stake-s,544,1256500,0.0-19.0-0.0-0.49,A3VFA6HNMEXO9L,3SA4EMRVKYI00KKCICLEW0FTGRS0PA,3VHHR074H7XRDT3S1LIIJICJD7W7LF,5,6
50,3,object_04,object_07,493.11499996111,5,2,453.92999984324,0.8888888888888888,1,object_06,5,938,0,8,8,library_3,1,memory-2step-stake-s,545,1264986,0.0-19.0-0.0-0.50,A3VFA6HNMEXO9L,3SA4EMRVKYI00KKCICLEW0FTGRS0PA,3VHHR074H7XRDT3S1LIIJICJD7W7LF,6,5
51,3,object_07,object_04,489.06499985605,6,2,584.86500009894,0.8888888888888888,2,object_01,5,978,0,8,8,library_3,1,memory-2step-stake-s,546,1273604,0.0-19.0-0.0-0.51,A3VFA6HNMEXO9L,3SA4EMRVKYI00KKCICLEW0FTGRS0PA,3VHHR074H7XRDT3S1LIIJICJD7W7LF,5,6
52,4,object_10,object_05,537.90000011213,8,1,362.94000013731,0.8888888888888888,2,object_01,5,1018,0,9,8,restaurant_2,1,memory-2step-stake-s,547,1282010,0.0-19.0-0.0-0.52,A3VFA6HNMEXO9L,3SA4EMRVKYI00KKCICLEW0FTGRS0PA,3VHHR074H7XRDT3S1LIIJICJD7W7LF,8,7
53,3,object_07,object_04,505.48500008881,5,1,412.75999997742,0.8888888888888888,1,object_06,5,1058,0,8,7,library_7,1,memory-2step-stake-s,548,1290458,0.0-19.0-0.0-0.53,A3VFA6HNMEXO9L,3SA4EMRVKYI00KKCICLEW0FTGRS0PA,3VHHR074H7XRDT3S1LIIJICJD7W7LF,5,6
54,1,object_08,object_03,426.09500000253,1,2,313.05500003509,0.8888888888888888,1,object_06,1,1066,0,8,9,desert_2,1,memory-2step-stake-s,549,1298804,0.0-19.0-0.0-0.54,A3VFA6HNMEXO9L,3SA4EMRVKYI00KKCICLEW0FTGRS0PA,3VHHR074H7XRDT3S1LIIJICJD7W7LF,2,1
55,1,object_08,object_03,606.26999987289,2,1,578.93000007607,0.8888888888888888,2,object_01,1,1074,0,7,8,desert_3,1,memory-2step-stake-s,550,1307418,0.0-19.0-0.0-0.55,A3VFA6HNMEXO9L,3SA4EMRVKYI00KKCICLEW0FTGRS0PA,3VHHR074H7XRDT3S1LIIJICJD7W7LF,2,1
56,4,object_10,object_05,582.7500000596,7,2,452.95000006445,0.5555555555555556,1,object_06,1,1079,0,5,7,restaurant_6,1,memory-2step-stake-s,551,1315605,0.0-19.0-0.0-0.56,A3VFA6HNMEXO9L,3SA4EMRVKYI00KKCICLEW0FTGRS0PA,3VHHR074H7XRDT3S1LIIJICJD7W7LF,8,7
57,3,object_04,object_07,555.61000015587,6,1,289.62000017054,1.0,2,object_01,5,1124,0,5,9,library_3,1,memory-2step-stake-s,552,1324033,0.0-19.0-0.0-0.57,A3VFA6HNMEXO9L,3SA4EMRVKYI00KKCICLEW0FTGRS0PA,3VHHR074H7XRDT3S1LIIJICJD7W7LF,6,5
58,2,object_09,object_02,861.99500015937,4,2,374.49999991804,0.8888888888888888,2,object_01,1,1132,0,8,8,forest_2,1,memory-2step-stake-s,553,1332446,0.0-19.0-0.0-0.58,A3VFA6HNMEXO9L,3SA4EMRVKYI00KKCICLEW0FTGRS0PA,3VHHR074H7XRDT3S1LIIJICJD7W7LF,3,4
59,2,object_09,object_02,563.46999993548,3,1,343.03500014357,0.8888888888888888,1,object_06,1,1140,0,8,9,forest_1,1,memory-2step-stake-s,554,1340838,0.0-19.0-0.0-0.59,A3VFA6HNMEXO9L,3SA4EMRVKYI00KKCICLEW0FTGRS0PA,3VHHR074H7XRDT3S1LIIJICJD7W7LF,3,4
60,4,object_05,object_10,624.54500002787,7,1,318.97999998182,1.0,1,object_06,5,1185,0,9,6,restaurant_6,1,memory-2step-stake-s,555,1349286,0.0-19.0-0.0-0.60,A3VFA6HNMEXO9L,3SA4EMRVKYI00KKCICLEW0FTGRS0PA,3VHHR074H7XRDT3S1LIIJICJD7W7LF,7,8
61,2,object_09,object_02,779.63499980979,4,2,327.1099999547,0.7777777777777778,2,object_01,1,1192,0,4,7,forest_4,1,memory-2step-stake-s,556,1357542,0.0-19.0-0.0-0.61,A3VFA6HNMEXO9L,3SA4EMRVKYI00KKCICLEW0FTGRS0PA,3VHHR074H7XRDT3S1LIIJICJD7W7LF,3,4
62,2,object_09,object_02,598.92000001855,3,1,376.4450000599,0.4444444444444444,1,object_06,1,1196,0,4,6,forest_2,1,memory-2step-stake-s,557,1365548,0.0-19.0-0.0-0.62,A3VFA6HNMEXO9L,3SA4EMRVKYI00KKCICLEW0FTGRS0PA,3VHHR074H7XRDT3S1LIIJICJD7W7LF,3,4
63,4,object_10,object_05,743.28000005335,8,1,344.64500006288,0.6666666666666666,2,object_01,1,1202,0,4,6,restaurant_7,1,memory-2step-stake-s,558,1373724,0.0-19.0-0.0-0.63,A3VFA6HNMEXO9L,3SA4EMRVKYI00KKCICLEW0FTGRS0PA,3VHHR074H7XRDT3S1LIIJICJD7W7LF,8,7
64,1,object_03,object_08,803.11500001699,1,1,358.82500000298,0.3333333333333333,1,object_06,1,1205,0,3,7,desert_6,1,memory-2step-stake-s,559,1381607,0.0-19.0-0.0-0.64,A3VFA6HNMEXO9L,3SA4EMRVKYI00KKCICLEW0FTGRS0PA,3VHHR074H7XRDT3S1LIIJICJD7W7LF,1,2
65,1,object_08,object_03,279.46499991231,2,1,391.94500003941,0.5555555555555556,2,object_01,1,1210,0,3,5,desert_6,1,memory-2step-stake-s,560,1389725,0.0-19.0-0.0-0.65,A3VFA6HNMEXO9L,3SA4EMRVKYI00KKCICLEW0FTGRS0PA,3VHHR074H7XRDT3S1LIIJICJD7W7LF,2,1
66,3,object_04,object_07,886.59500004724,6,1,367.37000010908,0.4444444444444444,2,object_01,5,1230,0,4,4,library_3,1,memory-2step-stake-s,561,1397720,0.0-19.0-0.0-0.66,A3VFA6HNMEXO9L,3SA4EMRVKYI00KKCICLEW0FTGRS0PA,3VHHR074H7XRDT3S1LIIJICJD7W7LF,6,5
67,1,object_03,object_08,1184.0450000018,1,1,551.75500013866,0.2222222222222222,1,object_06,1,1232,0,2,1,desert_6,1,memory-2step-stake-s,562,1405693,0.0-19.0-0.0-0.67,A3VFA6HNMEXO9L,3SA4EMRVKYI00KKCICLEW0FTGRS0PA,3VHHR074H7XRDT3S1LIIJICJD7W7LF,1,2
68,1,object_03,object_08,640.97000006586,1,1,487.48999997042,0.2222222222222222,1,object_06,1,1234,0,2,1,desert_3,1,memory-2step-stake-s,563,1413609,0.0-19.0-0.0-0.68,A3VFA6HNMEXO9L,3SA4EMRVKYI00KKCICLEW0FTGRS0PA,3VHHR074H7XRDT3S1LIIJICJD7W7LF,1,2
69,1,object_08,object_03,433.39000013657,1,2,470.36499995738,0.2222222222222222,1,object_06,1,1236,0,2,1,desert_6,1,memory-2step-stake-s,564,1421507,0.0-19.0-0.0-0.69,A3VFA6HNMEXO9L,3SA4EMRVKYI00KKCICLEW0FTGRS0PA,3VHHR074H7XRDT3S1LIIJICJD7W7LF,2,1
70,3,object_07,object_04,1266.1600001156,6,2,398.31499988213,0.2222222222222222,2,object_01,5,1246,0,2,2,library_5,1,memory-2step-stake-s,565,1429328,0.0-19.0-0.0-0.70,A3VFA6HNMEXO9L,3SA4EMRVKYI00KKCICLEW0FTGRS0PA,3VHHR074H7XRDT3S1LIIJICJD7W7LF,5,6
71,2,object_09,object_02,616.77500000224,4,2,340.68499994464,0.4444444444444444,2,object_01,1,1250,0,1,4,forest_4,1,memory-2step-stake-s,566,1437302,0.0-19.0-0.0-0.71,A3VFA6HNMEXO9L,3SA4EMRVKYI00KKCICLEW0FTGRS0PA,3VHHR074H7XRDT3S1LIIJICJD7W7LF,3,4
72,2,object_09,object_02,809.32500003837,4,2,302.35500005074,0.0,2,object_01,5,1250,0,1,0,forest_1,1,memory-2step-stake-s,567,1444824,0.0-19.0-0.0-0.72,A3VFA6HNMEXO9L,3SA4EMRVKYI00KKCICLEW0FTGRS0PA,3VHHR074H7XRDT3S1LIIJICJD7W7LF,3,4
73,3,object_07,object_04,526.09999990091,6,2,328.61000020057,0.1111111111111111,2,object_01,1,1251,0,1,1,library_5,1,memory-2step-stake-s,568,1452479,0.0-19.0-0.0-0.73,A3VFA6HNMEXO9L,3SA4EMRVKYI00KKCICLEW0FTGRS0PA,3VHHR074H7XRDT3S1LIIJICJD7W7LF,5,6
74,1,object_03,object_08,1159.7599999513,1,1,484.43000018597,0.5555555555555556,1,object_06,5,1276,0,5,2,desert_2,1,memory-2step-stake-s,569,1460692,0.0-19.0-0.0-0.74,A3VFA6HNMEXO9L,3SA4EMRVKYI00KKCICLEW0FTGRS0PA,3VHHR074H7XRDT3S1LIIJICJD7W7LF,1,2
75,3,object_04,object_07,741.63000006229,6,1,356.4900001511,0.2222222222222222,2,object_01,5,1286,0,4,2,library_3,1,memory-2step-stake-s,570,1468473,0.0-19.0-0.0-0.75,A3VFA6HNMEXO9L,3SA4EMRVKYI00KKCICLEW0FTGRS0PA,3VHHR074H7XRDT3S1LIIJICJD7W7LF,6,5
76,3,object_07,object_04,682.29499994777,6,2,308.62500006333,0.5555555555555556,2,object_01,5,1311,0,4,5,library_7,1,memory-2step-stake-s,571,1476510,0.0-19.0-0.0-0.76,A3VFA6HNMEXO9L,3SA4EMRVKYI00KKCICLEW0FTGRS0PA,3VHHR074H7XRDT3S1LIIJICJD7W7LF,5,6
77,2,object_09,object_02,825.90500009246,3,1,424.55999995582,0.5555555555555556,1,object_06,1,1316,0,5,6,forest_2,1,memory-2step-stake-s,572,1484665,0.0-19.0-0.0-0.77,A3VFA6HNMEXO9L,3SA4EMRVKYI00KKCICLEW0FTGRS0PA,3VHHR074H7XRDT3S1LIIJICJD7W7LF,3,4
78,3,object_07,object_04,652.9950001277,6,2,347.64000005089,0.5555555555555556,2,object_01,5,1341,0,3,5,library_7,1,memory-2step-stake-s,573,1492746,0.0-19.0-0.0-0.78,A3VFA6HNMEXO9L,3SA4EMRVKYI00KKCICLEW0FTGRS0PA,3VHHR074H7XRDT3S1LIIJICJD7W7LF,5,6
79,1,object_08,object_03,919.98999984935,2,1,365.24999979883,0.3333333333333333,2,object_01,1,1344,0,3,3,desert_6,1,memory-2step-stake-s,574,1500640,0.0-19.0-0.0-0.79,A3VFA6HNMEXO9L,3SA4EMRVKYI00KKCICLEW0FTGRS0PA,3VHHR074H7XRDT3S1LIIJICJD7W7LF,2,1
80,4,object_10,object_05,636.2950000912,8,1,376.37499999255,0.0,2,object_01,5,1344,0,3,0,restaurant_6,1,memory-2step-stake-s,575,1508234,0.0-19.0-0.0-0.80,A3VFA6HNMEXO9L,3SA4EMRVKYI00KKCICLEW0FTGRS0PA,3VHHR074H7XRDT3S1LIIJICJD7W7LF,8,7
81,3,object_04,object_07,472.63999981806,6,1,292.98000014387,0.3333333333333333,2,object_01,5,1359,0,8,3,library_8,1,memory-2step-stake-s,576,1516058,0.0-19.0-0.0-0.81,A3VFA6HNMEXO9L,3SA4EMRVKYI00KKCICLEW0FTGRS0PA,3VHHR074H7XRDT3S1LIIJICJD7W7LF,6,5
82,3,object_07,object_04,619.04500005767,5,1,351.26999998465,0.7777777777777778,1,object_06,5,1394,0,7,4,library_8,1,memory-2step-stake-s,577,1524336,0.0-19.0-0.0-0.82,A3VFA6HNMEXO9L,3SA4EMRVKYI00KKCICLEW0FTGRS0PA,3VHHR074H7XRDT3S1LIIJICJD7W7LF,5,6
83,1,object_08,object_03,739.24499982968,1,2,410.10500001721,0.8888888888888888,1,object_06,5,1434,0,8,6,desert_6,1,memory-2step-stake-s,578,1532779,0.0-19.0-0.0-0.83,A3VFA6HNMEXO9L,3SA4EMRVKYI00KKCICLEW0FTGRS0PA,3VHHR074H7XRDT3S1LIIJICJD7W7LF,2,1
84,2,object_09,object_02,749.31999994442,3,1,342.35000004992,0.7777777777777778,1,object_06,5,1469,0,7,7,forest_2,1,memory-2step-stake-s,579,1541052,0.0-19.0-0.0-0.84,A3VFA6HNMEXO9L,3SA4EMRVKYI00KKCICLEW0FTGRS0PA,3VHHR074H7XRDT3S1LIIJICJD7W7LF,3,4
85,3,object_04,object_07,1207.8249999322,5,2,358.82500000298,0.6666666666666666,1,object_06,5,1499,0,6,9,library_5,1,memory-2step-stake-s,580,1549243,0.0-19.0-0.0-0.85,A3VFA6HNMEXO9L,3SA4EMRVKYI00KKCICLEW0FTGRS0PA,3VHHR074H7XRDT3S1LIIJICJD7W7LF,6,5
86,2,object_09,object_02,995.45000004582,3,1,287.4699998647,0.7777777777777778,1,object_06,1,1506,0,7,7,forest_8,1,memory-2step-stake-s,581,1557468,0.0-19.0-0.0-0.86,A3VFA6HNMEXO9L,3SA4EMRVKYI00KKCICLEW0FTGRS0PA,3VHHR074H7XRDT3S1LIIJICJD7W7LF,3,4
87,2,object_09,object_02,761.01500005461,3,1,310.50500017591,0.7777777777777778,1,object_06,5,1541,0,7,9,forest_8,1,memory-2step-stake-s,582,1565718,0.0-19.0-0.0-0.87,A3VFA6HNMEXO9L,3SA4EMRVKYI00KKCICLEW0FTGRS0PA,3VHHR074H7XRDT3S1LIIJICJD7W7LF,3,4
88,3,object_07,object_04,1378.1950001139,5,1,350.88500007987,0.7777777777777778,1,object_06,5,1576,0,7,6,library_5,1,memory-2step-stake-s,583,1574007,0.0-19.0-0.0-0.88,A3VFA6HNMEXO9L,3SA4EMRVKYI00KKCICLEW0FTGRS0PA,3VHHR074H7XRDT3S1LIIJICJD7W7LF,5,6
89,1,object_03,object_08,1050.4500002135,2,2,407.52999996766,0.4444444444444444,2,object_01,1,1580,0,8,4,desert_2,1,memory-2step-stake-s,584,1582044,0.0-19.0-0.0-0.89,A3VFA6HNMEXO9L,3SA4EMRVKYI00KKCICLEW0FTGRS0PA,3VHHR074H7XRDT3S1LIIJICJD7W7LF,1,2
90,4,object_10,object_05,862.16999986209,8,1,416.13999987021,0.5555555555555556,2,object_01,5,1605,0,8,5,restaurant_6,1,memory-2step-stake-s,585,1590188,0.0-19.0-0.0-0.90,A3VFA6HNMEXO9L,3SA4EMRVKYI00KKCICLEW0FTGRS0PA,3VHHR074H7XRDT3S1LIIJICJD7W7LF,8,7
91,1,object_08,object_03,766.79500006139,2,1,375.70499978028,0.2222222222222222,2,object_01,1,1607,0,6,2,desert_4,1,memory-2step-stake-s,586,1597992,0.0-19.0-0.0-0.91,A3VFA6HNMEXO9L,3SA4EMRVKYI00KKCICLEW0FTGRS0PA,3VHHR074H7XRDT3S1LIIJICJD7W7LF,2,1
92,1,object_03,object_08,925.83999992348,1,1,387.8750000149,0.4444444444444444,1,object_06,1,1611,0,4,0,desert_6,1,memory-2step-stake-s,587,1606020,0.0-19.0-0.0-0.92,A3VFA6HNMEXO9L,3SA4EMRVKYI00KKCICLEW0FTGRS0PA,3VHHR074H7XRDT3S1LIIJICJD7W7LF,1,2
93,1,object_08,object_03,626.69500010088,2,1,526.02500002831,0.2222222222222222,2,object_01,1,1613,0,6,2,desert_4,1,memory-2step-stake-s,588,1613976,0.0-19.0-0.0-0.93,A3VFA6HNMEXO9L,3SA4EMRVKYI00KKCICLEW0FTGRS0PA,3VHHR074H7XRDT3S1LIIJICJD7W7LF,2,1
94,2,object_09,object_02,649.88500019535,4,2,396.84500009753,0.1111111111111111,2,object_01,1,1614,0,7,1,forest_8,1,memory-2step-stake-s,589,1621698,0.0-19.0-0.0-0.94,A3VFA6HNMEXO9L,3SA4EMRVKYI00KKCICLEW0FTGRS0PA,3VHHR074H7XRDT3S1LIIJICJD7W7LF,3,4
95,1,object_03,object_08,493.04000008851,1,1,492.90499999188,0.8888888888888888,1,object_06,1,1622,0,8,0,desert_3,1,memory-2step-stake-s,590,1630227,0.0-19.0-0.0-0.95,A3VFA6HNMEXO9L,3SA4EMRVKYI00KKCICLEW0FTGRS0PA,3VHHR074H7XRDT3S1LIIJICJD7W7LF,1,2
96,3,object_07,object_04,447.39999994636,5,1,404.65499996208,0.6666666666666666,1,object_06,5,1652,0,6,1,library_3,1,memory-2step-stake-s,591,1638462,0.0-19.0-0.0-0.96,A3VFA6HNMEXO9L,3SA4EMRVKYI00KKCICLEW0FTGRS0PA,3VHHR074H7XRDT3S1LIIJICJD7W7LF,5,6
97,2,object_02,object_09,1016.1550000776,3,2,318.46500001848,0.7777777777777778,1,object_06,1,1659,0,7,3,forest_8,1,memory-2step-stake-s,592,1646713,0.0-19.0-0.0-0.97,A3VFA6HNMEXO9L,3SA4EMRVKYI00KKCICLEW0FTGRS0PA,3VHHR074H7XRDT3S1LIIJICJD7W7LF,4,3
98,3,object_07,object_04,1191.0350001417,5,1,386.53500005603,0.6666666666666666,1,object_06,5,1689,0,6,5,library_3,1,memory-2step-stake-s,593,1654926,0.0-19.0-0.0-0.98,A3VFA6HNMEXO9L,3SA4EMRVKYI00KKCICLEW0FTGRS0PA,3VHHR074H7XRDT3S1LIIJICJD7W7LF,5,6
99,3,object_07,object_04,623.60999989323,5,1,316.42999988981,0.5555555555555556,1,object_06,5,1714,0,5,9,library_7,1,memory-2step-stake-s,594,1662969,0.0-19.0-0.0-0.99,A3VFA6HNMEXO9L,3SA4EMRVKYI00KKCICLEW0FTGRS0PA,3VHHR074H7XRDT3S1LIIJICJD7W7LF,5,6
100,3,object_07,object_04,601.6050002072,6,2,330.33000002615,0.6666666666666666,2,object_01,5,1744,0,5,6,library_8,1,memory-2step-stake-s,595,1671130,0.0-19.0-0.0-0.100,A3VFA6HNMEXO9L,3SA4EMRVKYI00KKCICLEW0FTGRS0PA,3VHHR074H7XRDT3S1LIIJICJD7W7LF,5,6
101,1,object_03,object_08,861.0799999442,1,1,385.50499989651,0.6666666666666666,1,object_06,1,1750,0,6,6,desert_4,1,memory-2step-stake-s,596,1679347,0.0-19.0-0.0-0.101,A3VFA6HNMEXO9L,3SA4EMRVKYI00KKCICLEW0FTGRS0PA,3VHHR074H7XRDT3S1LIIJICJD7W7LF,1,2
102,3,object_04,object_07,1153.2399998978,6,1,297.26500017568,0.8888888888888888,2,object_01,5,1790,0,4,8,library_7,1,memory-2step-stake-s,597,1687685,0.0-19.0-0.0-0.102,A3VFA6HNMEXO9L,3SA4EMRVKYI00KKCICLEW0FTGRS0PA,3VHHR074H7XRDT3S1LIIJICJD7W7LF,6,5
103,4,object_05,object_10,826.46999997087,7,1,430.57999992743,0.5555555555555556,1,object_06,1,1795,0,5,8,restaurant_1,1,memory-2step-stake-s,598,1695845,0.0-19.0-0.0-0.103,A3VFA6HNMEXO9L,3SA4EMRVKYI00KKCICLEW0FTGRS0PA,3VHHR074H7XRDT3S1LIIJICJD7W7LF,7,8
104,2,object_09,object_02,1107.6199999079,3,1,360.48999987543,0.3333333333333333,1,object_06,1,1798,0,3,4,forest_2,1,memory-2step-stake-s,599,1703727,0.0-19.0-0.0-0.104,A3VFA6HNMEXO9L,3SA4EMRVKYI00KKCICLEW0FTGRS0PA,3VHHR074H7XRDT3S1LIIJICJD7W7LF,3,4
105,1,object_08,object_03,590.14500002377,1,2,531.99000004679,0.5555555555555556,1,object_06,1,1803,0,5,7,desert_3,1,memory-2step-stake-s,600,1711989,0.0-19.0-0.0-0.105,A3VFA6HNMEXO9L,3SA4EMRVKYI00KKCICLEW0FTGRS0PA,3VHHR074H7XRDT3S1LIIJICJD7W7LF,2,1
106,4,object_05,object_10,1354.4250000268,8,2,382.98999983817,0.7777777777777778,2,object_01,5,1838,0,8,7,restaurant_7,1,memory-2step-stake-s,601,1720303,0.0-19.0-0.0-0.106,A3VFA6HNMEXO9L,3SA4EMRVKYI00KKCICLEW0FTGRS0PA,3VHHR074H7XRDT3S1LIIJICJD7W7LF,7,8
107,4,object_10,object_05,840.12000006624,8,1,357.2100000456,0.8888888888888888,2,object_01,5,1878,0,4,8,restaurant_1,1,memory-2step-stake-s,602,1728694,0.0-19.0-0.0-0.107,A3VFA6HNMEXO9L,3SA4EMRVKYI00KKCICLEW0FTGRS0PA,3VHHR074H7XRDT3S1LIIJICJD7W7LF,8,7
108,2,object_09,object_02,808.45000012778,3,1,272.69500005059,0.6666666666666666,1,object_06,1,1884,0,6,8,forest_1,1,memory-2step-stake-s,603,1736800,0.0-19.0-0.0-0.108,A3VFA6HNMEXO9L,3SA4EMRVKYI00KKCICLEW0FTGRS0PA,3VHHR074H7XRDT3S1LIIJICJD7W7LF,3,4
109,1,object_08,object_03,711.17500006221,1,2,377.64999992214,0.6666666666666666,1,object_06,1,1890,0,6,8,desert_2,1,memory-2step-stake-s,604,1745008,0.0-19.0-0.0-0.109,A3VFA6HNMEXO9L,3SA4EMRVKYI00KKCICLEW0FTGRS0PA,3VHHR074H7XRDT3S1LIIJICJD7W7LF,2,1
110,2,object_02,object_09,790.93499993905,4,1,404.36500008218,0.8888888888888888,2,object_01,5,1930,0,5,8,forest_1,1,memory-2step-stake-s,605,1753446,0.0-19.0-0.0-0.110,A3VFA6HNMEXO9L,3SA4EMRVKYI00KKCICLEW0FTGRS0PA,3VHHR074H7XRDT3S1LIIJICJD7W7LF,4,3
111,3,object_07,object_04,448.18499987014,5,1,354.28000008687,0.6666666666666666,1,object_06,5,1960,0,6,7,library_3,1,memory-2step-stake-s,606,1761632,0.0-19.0-0.0-0.111,A3VFA6HNMEXO9L,3SA4EMRVKYI00KKCICLEW0FTGRS0PA,3VHHR074H7XRDT3S1LIIJICJD7W7LF,5,6
112,1,object_08,object_03,378.99999995716,2,1,487.11999994703,0.5555555555555556,2,object_01,1,1965,0,6,5,desert_3,1,memory-2step-stake-s,607,1769853,0.0-19.0-0.0-0.112,A3VFA6HNMEXO9L,3SA4EMRVKYI00KKCICLEW0FTGRS0PA,3VHHR074H7XRDT3S1LIIJICJD7W7LF,2,1
113,4,object_05,object_10,386.53000001796,8,2,415.42500001378,0.2222222222222222,2,object_01,5,1975,0,8,2,restaurant_6,1,memory-2step-stake-s,608,1777692,0.0-19.0-0.0-0.113,A3VFA6HNMEXO9L,3SA4EMRVKYI00KKCICLEW0FTGRS0PA,3VHHR074H7XRDT3S1LIIJICJD7W7LF,7,8
114,3,object_07,object_04,530.32499994151,5,1,297.87999996915,0.7777777777777778,1,object_06,5,2010,0,7,5,library_7,1,memory-2step-stake-s,609,1785921,0.0-19.0-0.0-0.114,A3VFA6HNMEXO9L,3SA4EMRVKYI00KKCICLEW0FTGRS0PA,3VHHR074H7XRDT3S1LIIJICJD7W7LF,5,6
115,4,object_05,object_10,607.43999993429,7,1,423.53000002913,0.5555555555555556,1,object_06,1,2015,0,5,7,restaurant_1,1,memory-2step-stake-s,610,1794077,0.0-19.0-0.0-0.115,A3VFA6HNMEXO9L,3SA4EMRVKYI00KKCICLEW0FTGRS0PA,3VHHR074H7XRDT3S1LIIJICJD7W7LF,7,8
116,4,object_10,object_05,1006.6749998368,8,1,392.40000001155,1.0,2,object_01,5,2060,0,7,9,restaurant_7,1,memory-2step-stake-s,611,1802604,0.0-19.0-0.0-0.116,A3VFA6HNMEXO9L,3SA4EMRVKYI00KKCICLEW0FTGRS0PA,3VHHR074H7XRDT3S1LIIJICJD7W7LF,8,7
117,4,object_10,object_05,1134.6400000621,8,1,292.94000007212,0.7777777777777778,2,object_01,5,2095,0,6,7,restaurant_2,1,memory-2step-stake-s,612,1810829,0.0-19.0-0.0-0.117,A3VFA6HNMEXO9L,3SA4EMRVKYI00KKCICLEW0FTGRS0PA,3VHHR074H7XRDT3S1LIIJICJD7W7LF,8,7
118,2,object_02,object_09,-1.0,-1,-1,-1.0,0.0,-,0,1,2095,0,6,3,forest_4,1,memory-2step-stake-s,613,1817346,0.0-19.0-0.0-0.118,A3VFA6HNMEXO9L,3SA4EMRVKYI00KKCICLEW0FTGRS0PA,3VHHR074H7XRDT3S1LIIJICJD7W7LF,4,3
119,1,object_08,object_03,251.25000020489,2,1,337.38499996252,0.1111111111111111,2,object_01,1,2096,0,6,1,desert_6,1,memory-2step-stake-s,614,1825010,0.0-19.0-0.0-0.119,A3VFA6HNMEXO9L,3SA4EMRVKYI00KKCICLEW0FTGRS0PA,3VHHR074H7XRDT3S1LIIJICJD7W7LF,2,1
120,1,object_08,object_03,456.88499999233,1,2,549.51500007883,0.4444444444444444,1,object_06,1,2100,0,4,3,desert_2,1,memory-2step-stake-s,615,1833192,0.0-19.0-0.0-0.120,A3VFA6HNMEXO9L,3SA4EMRVKYI00KKCICLEW0FTGRS0PA,3VHHR074H7XRDT3S1LIIJICJD7W7LF,2,1
121,2,object_02,object_09,443.33499995992,3,2,341.51499997824,0.4444444444444444,1,object_06,5,2120,0,4,1,forest_1,1,memory-2step-stake-s,616,1841165,0.0-19.0-0.0-0.121,A3VFA6HNMEXO9L,3SA4EMRVKYI00KKCICLEW0FTGRS0PA,3VHHR074H7XRDT3S1LIIJICJD7W7LF,4,3
122,1,object_03,object_08,327.51500001177,2,2,377.17500003055,0.1111111111111111,2,object_01,1,2121,0,7,1,desert_3,1,memory-2step-stake-s,617,1848867,0.0-19.0-0.0-0.122,A3VFA6HNMEXO9L,3SA4EMRVKYI00KKCICLEW0FTGRS0PA,3VHHR074H7XRDT3S1LIIJICJD7W7LF,1,2
123,1,object_08,object_03,831.2249998562,1,2,314.27000020631,0.7777777777777778,1,object_06,5,2156,0,7,1,desert_6,1,memory-2step-stake-s,618,1857107,0.0-19.0-0.0-0.123,A3VFA6HNMEXO9L,3SA4EMRVKYI00KKCICLEW0FTGRS0PA,3VHHR074H7XRDT3S1LIIJICJD7W7LF,2,1
124,4,object_10,object_05,964.16500001214,8,1,299.11000002176,0.1111111111111111,2,object_01,5,2161,0,7,1,restaurant_2,1,memory-2step-stake-s,619,1864728,0.0-19.0-0.0-0.124,A3VFA6HNMEXO9L,3SA4EMRVKYI00KKCICLEW0FTGRS0PA,3VHHR074H7XRDT3S1LIIJICJD7W7LF,8,7
125,3,object_07,object_04,-1.0,-1,-1,-1.0,0.0,-,0,5,2161,0,8,3,library_8,1,memory-2step-stake-s,620,1871247,0.0-19.0-0.0-0.125,A3VFA6HNMEXO9L,3SA4EMRVKYI00KKCICLEW0FTGRS0PA,3VHHR074H7XRDT3S1LIIJICJD7W7LF,5,6
126,4,object_10,object_05,323.29500000924,8,1,350.77999997884,0.3333333333333333,2,object_01,1,2164,0,6,3,restaurant_2,1,memory-2step-stake-s,621,1879123,0.0-19.0-0.0-0.126,A3VFA6HNMEXO9L,3SA4EMRVKYI00KKCICLEW0FTGRS0PA,3VHHR074H7XRDT3S1LIIJICJD7W7LF,8,7
127,1,object_03,object_08,420.49000016414,2,2,400.41499980725,0.6666666666666666,2,object_01,1,2170,0,8,6,desert_2,1,memory-2step-stake-s,622,1887353,0.0-19.0-0.0-0.127,A3VFA6HNMEXO9L,3SA4EMRVKYI00KKCICLEW0FTGRS0PA,3VHHR074H7XRDT3S1LIIJICJD7W7LF,1,2
128,3,object_04,object_07,632.28999986313,6,1,617.80999996699,0.7777777777777778,2,object_01,5,2205,0,6,7,library_5,1,memory-2step-stake-s,624,1952207,0.0-19.0-0.1-0.128,A3VFA6HNMEXO9L,3SA4EMRVKYI00KKCICLEW0FTGRS0PA,3VHHR074H7XRDT3S1LIIJICJD7W7LF,6,5
129,4,object_05,object_10,491.06999998912,8,2,409.40500004217,0.8888888888888888,2,object_01,5,2245,0,3,8,restaurant_6,1,memory-2step-stake-s,625,1960645,0.0-19.0-0.1-0.129,A3VFA6HNMEXO9L,3SA4EMRVKYI00KKCICLEW0FTGRS0PA,3VHHR074H7XRDT3S1LIIJICJD7W7LF,7,8
130,1,object_03,object_08,465.33000003546,1,1,368.80500009283,0.4444444444444444,1,object_06,1,2249,0,4,5,desert_6,1,memory-2step-stake-s,626,1968643,0.0-19.0-0.1-0.130,A3VFA6HNMEXO9L,3SA4EMRVKYI00KKCICLEW0FTGRS0PA,3VHHR074H7XRDT3S1LIIJICJD7W7LF,1,2
131,4,object_05,object_10,588.08499993756,8,2,261.51500013657,1.0,2,object_01,5,2294,0,6,9,restaurant_1,1,memory-2step-stake-s,627,1977046,0.0-19.0-0.1-0.131,A3VFA6HNMEXO9L,3SA4EMRVKYI00KKCICLEW0FTGRS0PA,3VHHR074H7XRDT3S1LIIJICJD7W7LF,7,8
132,1,object_08,object_03,612.87000006996,2,1,297.87999996915,0.5555555555555556,2,object_01,1,2299,0,4,5,desert_3,1,memory-2step-stake-s,628,1985083,0.0-19.0-0.1-0.132,A3VFA6HNMEXO9L,3SA4EMRVKYI00KKCICLEW0FTGRS0PA,3VHHR074H7XRDT3S1LIIJICJD7W7LF,2,1
133,2,object_02,object_09,661.82499984279,4,1,370.30499987304,0.5555555555555556,2,object_01,1,2304,0,3,5,forest_2,1,memory-2step-stake-s,629,1993185,0.0-19.0-0.1-0.133,A3VFA6HNMEXO9L,3SA4EMRVKYI00KKCICLEW0FTGRS0PA,3VHHR074H7XRDT3S1LIIJICJD7W7LF,4,3
134,4,object_10,object_05,816.02000002749,7,2,324.43000003695,0.5555555555555556,1,object_06,5,2329,0,5,7,restaurant_1,1,memory-2step-stake-s,630,2001244,0.0-19.0-0.1-0.134,A3VFA6HNMEXO9L,3SA4EMRVKYI00KKCICLEW0FTGRS0PA,3VHHR074H7XRDT3S1LIIJICJD7W7LF,8,7
135,4,object_05,object_10,766.9599999208,8,2,459.10500013269,0.8888888888888888,2,object_01,5,2369,0,0,8,restaurant_1,1,memory-2step-stake-s,631,2009744,0.0-19.0-0.1-0.135,A3VFA6HNMEXO9L,3SA4EMRVKYI00KKCICLEW0FTGRS0PA,3VHHR074H7XRDT3S1LIIJICJD7W7LF,7,8
136,3,object_07,object_04,862.52000019886,5,1,343.52999995463,0.1111111111111111,1,object_06,1,2370,0,1,8,library_5,1,memory-2step-stake-s,632,2017415,0.0-19.0-0.1-0.136,A3VFA6HNMEXO9L,3SA4EMRVKYI00KKCICLEW0FTGRS0PA,3VHHR074H7XRDT3S1LIIJICJD7W7LF,5,6
137,3,object_04,object_07,-1.0,-1,-1,-1.0,0.0,-,0,5,2370,0,2,7,library_5,1,memory-2step-stake-s,633,2023932,0.0-19.0-0.1-0.137,A3VFA6HNMEXO9L,3SA4EMRVKYI00KKCICLEW0FTGRS0PA,3VHHR074H7XRDT3S1LIIJICJD7W7LF,6,5
138,3,object_04,object_07,532.33999991789,6,1,295.75000004843,0.7777777777777778,2,object_01,5,2405,0,3,7,library_3,1,memory-2step-stake-s,634,2032158,0.0-19.0-0.1-0.138,A3VFA6HNMEXO9L,3SA4EMRVKYI00KKCICLEW0FTGRS0PA,3VHHR074H7XRDT3S1LIIJICJD7W7LF,6,5
139,4,object_05,object_10,384.45500005037,8,2,368.49000002258,0.4444444444444444,2,object_01,5,2425,0,1,4,restaurant_7,1,memory-2step-stake-s,635,2040151,0.0-19.0-0.1-0.139,A3VFA6HNMEXO9L,3SA4EMRVKYI00KKCICLEW0FTGRS0PA,3VHHR074H7XRDT3S1LIIJICJD7W7LF,7,8
140,1,object_08,object_03,328.02499993704,1,2,368.19500010461,0.1111111111111111,1,object_06,1,2426,0,1,1,desert_4,1,memory-2step-stake-s,636,2047848,0.0-19.0-0.1-0.140,A3VFA6HNMEXO9L,3SA4EMRVKYI00KKCICLEW0FTGRS0PA,3VHHR074H7XRDT3S1LIIJICJD7W7LF,2,1
141,3,object_07,object_04,695.87000017054,5,1,270.28000005521,0.1111111111111111,1,object_06,5,2431,0,1,2,library_8,1,memory-2step-stake-s,637,2055443,0.0-19.0-0.1-0.141,A3VFA6HNMEXO9L,3SA4EMRVKYI00KKCICLEW0FTGRS0PA,3VHHR074H7XRDT3S1LIIJICJD7W7LF,5,6
142,4,object_05,object_10,719.51000019908,7,1,344.21499981545,0.3333333333333333,1,object_06,5,2446,0,3,4,restaurant_7,1,memory-2step-stake-s,638,2063315,0.0-19.0-0.1-0.142,A3VFA6HNMEXO9L,3SA4EMRVKYI00KKCICLEW0FTGRS0PA,3VHHR074H7XRDT3S1LIIJICJD7W7LF,7,8
143,3,object_04,object_07,717.74500003085,5,2,434.82000008225,0.3333333333333333,1,object_06,5,2461,0,3,3,library_8,1,memory-2step-stake-s,639,2071278,0.0-19.0-0.1-0.143,A3VFA6HNMEXO9L,3SA4EMRVKYI00KKCICLEW0FTGRS0PA,3VHHR074H7XRDT3S1LIIJICJD7W7LF,6,5
144,4,object_05,object_10,883.32499982789,8,2,347.16500015929,0.3333333333333333,2,object_01,5,2476,0,2,3,restaurant_7,1,memory-2step-stake-s,640,2079150,0.0-19.0-0.1-0.144,A3VFA6HNMEXO9L,3SA4EMRVKYI00KKCICLEW0FTGRS0PA,3VHHR074H7XRDT3S1LIIJICJD7W7LF,7,8
145,4,object_05,object_10,549.23000000417,7,1,517.89000001736,0.3333333333333333,1,object_06,5,2491,0,3,1,restaurant_1,1,memory-2step-stake-s,641,2087198,0.0-19.0-0.1-0.145,A3VFA6HNMEXO9L,3SA4EMRVKYI00KKCICLEW0FTGRS0PA,3VHHR074H7XRDT3S1LIIJICJD7W7LF,7,8
146,3,object_04,object_07,725.65999999642,5,2,447.18000013381,0.0,1,object_06,5,2491,0,0,3,library_7,1,memory-2step-stake-s,642,2094868,0.0-19.0-0.1-0.146,A3VFA6HNMEXO9L,3SA4EMRVKYI00KKCICLEW0FTGRS0PA,3VHHR074H7XRDT3S1LIIJICJD7W7LF,6,5
147,3,object_04,object_07,701.11499982886,6,1,267.98500004224,0.5555555555555556,2,object_01,5,2516,0,1,5,library_3,1,memory-2step-stake-s,643,2102864,0.0-19.0-0.1-0.147,A3VFA6HNMEXO9L,3SA4EMRVKYI00KKCICLEW0FTGRS0PA,3VHHR074H7XRDT3S1LIIJICJD7W7LF,6,5
148,1,object_08,object_03,396.13499981351,1,2,427.69500007853,0.1111111111111111,1,object_06,1,2517,0,1,4,desert_2,1,memory-2step-stake-s,644,2110618,0.0-19.0-0.1-0.148,A3VFA6HNMEXO9L,3SA4EMRVKYI00KKCICLEW0FTGRS0PA,3VHHR074H7XRDT3S1LIIJICJD7W7LF,2,1
149,3,object_04,object_07,544.06500002369,6,1,379.9149999395,0.2222222222222222,2,object_01,5,2527,0,2,2,library_5,1,memory-2step-stake-s,645,2118420,0.0-19.0-0.1-0.149,A3VFA6HNMEXO9L,3SA4EMRVKYI00KKCICLEW0FTGRS0PA,3VHHR074H7XRDT3S1LIIJICJD7W7LF,6,5
150,4,object_10,object_05,422.71499987692,8,1,354.88500003703,0.1111111111111111,2,object_01,5,2532,0,3,1,restaurant_6,1,memory-2step-stake-s,646,2126095,0.0-19.0-0.1-0.150,A3VFA6HNMEXO9L,3SA4EMRVKYI00KKCICLEW0FTGRS0PA,3VHHR074H7XRDT3S1LIIJICJD7W7LF,8,7
151,3,object_04,object_07,314.46499982849,6,1,299.16999978013,0.2222222222222222,2,object_01,5,2542,0,3,2,library_7,1,memory-2step-stake-s,647,2133818,0.0-19.0-0.1-0.151,A3VFA6HNMEXO9L,3SA4EMRVKYI00KKCICLEW0FTGRS0PA,3VHHR074H7XRDT3S1LIIJICJD7W7LF,6,5
152,1,object_08,object_03,287.04000008292,1,2,230.23499990813,0.2222222222222222,1,object_06,1,2544,0,2,3,desert_3,1,memory-2step-stake-s,648,2141466,0.0-19.0-0.1-0.152,A3VFA6HNMEXO9L,3SA4EMRVKYI00KKCICLEW0FTGRS0PA,3VHHR074H7XRDT3S1LIIJICJD7W7LF,2,1
153,4,object_05,object_10,354.28500012495,8,2,394.24000005238,0.1111111111111111,2,object_01,1,2545,0,1,1,restaurant_2,1,memory-2step-stake-s,649,2149189,0.0-19.0-0.1-0.153,A3VFA6HNMEXO9L,3SA4EMRVKYI00KKCICLEW0FTGRS0PA,3VHHR074H7XRDT3S1LIIJICJD7W7LF,7,8
154,3,object_07,object_04,361.38999997638,5,1,346.08999988995,0.2222222222222222,1,object_06,1,2547,0,2,0,library_3,1,memory-2step-stake-s,650,2156954,0.0-19.0-0.1-0.154,A3VFA6HNMEXO9L,3SA4EMRVKYI00KKCICLEW0FTGRS0PA,3VHHR074H7XRDT3S1LIIJICJD7W7LF,5,6
155,2,object_02,object_09,477.88499994203,4,1,245.87500002235,0.1111111111111111,2,object_01,1,2548,0,5,1,forest_1,1,memory-2step-stake-s,651,2164528,0.0-19.0-0.1-0.155,A3VFA6HNMEXO9L,3SA4EMRVKYI00KKCICLEW0FTGRS0PA,3VHHR074H7XRDT3S1LIIJICJD7W7LF,4,3
156,2,object_09,object_02,422.93999996036,4,2,84.389999974519,0.3333333333333333,2,object_01,1,2551,0,5,3,forest_1,1,memory-2step-stake-s,652,2172139,0.0-19.0-0.1-0.156,A3VFA6HNMEXO9L,3SA4EMRVKYI00KKCICLEW0FTGRS0PA,3VHHR074H7XRDT3S1LIIJICJD7W7LF,3,4
157,1,object_08,object_03,630.42499986477,2,1,380.78500004485,0.1111111111111111,2,object_01,1,2552,0,6,1,desert_4,1,memory-2step-stake-s,653,2179840,0.0-19.0-0.1-0.157,A3VFA6HNMEXO9L,3SA4EMRVKYI00KKCICLEW0FTGRS0PA,3VHHR074H7XRDT3S1LIIJICJD7W7LF,2,1
158,1,object_03,object_08,745.54500007071,1,1,403.90500007197,0.8888888888888888,1,object_06,5,2592,0,8,1,desert_3,1,memory-2step-stake-s,654,2188278,0.0-19.0-0.1-0.158,A3VFA6HNMEXO9L,3SA4EMRVKYI00KKCICLEW0FTGRS0PA,3VHHR074H7XRDT3S1LIIJICJD7W7LF,1,2
159,1,object_08,object_03,377.3199999705,1,2,317.22000008449,0.8888888888888888,1,object_06,1,2600,0,8,2,desert_3,1,memory-2step-stake-s,655,2196630,0.0-19.0-0.1-0.159,A3VFA6HNMEXO9L,3SA4EMRVKYI00KKCICLEW0FTGRS0PA,3VHHR074H7XRDT3S1LIIJICJD7W7LF,2,1
160,2,object_09,object_02,330.53999999538,3,1,277.40500005893,0.5555555555555556,1,object_06,1,2605,0,5,4,forest_4,1,memory-2step-stake-s,656,2204641,0.0-19.0-0.1-0.160,A3VFA6HNMEXO9L,3SA4EMRVKYI00KKCICLEW0FTGRS0PA,3VHHR074H7XRDT3S1LIIJICJD7W7LF,3,4
161,3,object_07,object_04,800.96999998204,6,2,315.07000001147,0.5555555555555556,2,object_01,5,2630,0,7,5,library_7,1,memory-2step-stake-s,657,2212689,0.0-19.0-0.1-0.161,A3VFA6HNMEXO9L,3SA4EMRVKYI00KKCICLEW0FTGRS0PA,3VHHR074H7XRDT3S1LIIJICJD7W7LF,5,6
162,4,object_10,object_05,547.36500000581,8,1,362.88999998942,0.3333333333333333,2,object_01,5,2645,0,7,3,restaurant_7,1,memory-2step-stake-s,658,2220577,0.0-19.0-0.1-0.162,A3VFA6HNMEXO9L,3SA4EMRVKYI00KKCICLEW0FTGRS0PA,3VHHR074H7XRDT3S1LIIJICJD7W7LF,8,7
163,2,object_09,object_02,390.32000000589,4,2,257.77999986894,0.3333333333333333,2,object_01,5,2660,0,6,3,forest_1,1,memory-2step-stake-s,659,2228364,0.0-19.0-0.1-0.163,A3VFA6HNMEXO9L,3SA4EMRVKYI00KKCICLEW0FTGRS0PA,3VHHR074H7XRDT3S1LIIJICJD7W7LF,3,4
164,2,object_09,object_02,378.65500012413,3,1,341.2899998948,0.2222222222222222,1,object_06,1,2662,0,2,2,forest_8,1,memory-2step-stake-s,660,2236130,0.0-19.0-0.1-0.164,A3VFA6HNMEXO9L,3SA4EMRVKYI00KKCICLEW0FTGRS0PA,3VHHR074H7XRDT3S1LIIJICJD7W7LF,3,4
165,1,object_03,object_08,645.83499985747,1,1,348.04500010796,0.4444444444444444,1,object_06,1,2666,0,4,2,desert_4,1,memory-2step-stake-s,661,2244109,0.0-19.0-0.1-0.165,A3VFA6HNMEXO9L,3SA4EMRVKYI00KKCICLEW0FTGRS0PA,3VHHR074H7XRDT3S1LIIJICJD7W7LF,1,2
166,4,object_10,object_05,1111.0699998681,7,2,333.30000005662,0.5555555555555556,1,object_06,5,2691,0,5,0,restaurant_1,1,memory-2step-stake-s,662,2252168,0.0-19.0-0.1-0.166,A3VFA6HNMEXO9L,3SA4EMRVKYI00KKCICLEW0FTGRS0PA,3VHHR074H7XRDT3S1LIIJICJD7W7LF,8,7
167,1,object_03,object_08,734.59500004537,2,2,241.09999998473,0.1111111111111111,2,object_01,1,2692,0,3,1,desert_4,1,memory-2step-stake-s,663,2259731,0.0-19.0-0.1-0.167,A3VFA6HNMEXO9L,3SA4EMRVKYI00KKCICLEW0FTGRS0PA,3VHHR074H7XRDT3S1LIIJICJD7W7LF,1,2
168,3,object_04,object_07,614.63500000536,6,1,318.20499990135,0.1111111111111111,2,object_01,5,2697,0,4,1,library_8,1,memory-2step-stake-s,664,2267373,0.0-19.0-0.1-0.168,A3VFA6HNMEXO9L,3SA4EMRVKYI00KKCICLEW0FTGRS0PA,3VHHR074H7XRDT3S1LIIJICJD7W7LF,6,5
169,1,object_03,object_08,789.06000009738,2,2,274.04000004753,0.0,2,object_01,1,2697,0,5,0,desert_6,1,memory-2step-stake-s,665,2274872,0.0-19.0-0.1-0.169,A3VFA6HNMEXO9L,3SA4EMRVKYI00KKCICLEW0FTGRS0PA,3VHHR074H7XRDT3S1LIIJICJD7W7LF,1,2
170,3,object_04,object_07,1093.855000101,5,2,301.72499991022,0.2222222222222222,1,object_06,5,2707,0,2,3,library_5,1,memory-2step-stake-s,666,2282601,0.0-19.0-0.1-0.170,A3VFA6HNMEXO9L,3SA4EMRVKYI00KKCICLEW0FTGRS0PA,3VHHR074H7XRDT3S1LIIJICJD7W7LF,6,5
171,2,object_02,object_09,695.39500004612,3,2,278.51000009105,0.4444444444444444,1,object_06,1,2711,0,4,4,forest_2,1,memory-2step-stake-s,667,2290510,0.0-19.0-0.1-0.171,A3VFA6HNMEXO9L,3SA4EMRVKYI00KKCICLEW0FTGRS0PA,3VHHR074H7XRDT3S1LIIJICJD7W7LF,4,3
172,1,object_08,object_03,604.31499988772,2,1,248.91999992542,0.4444444444444444,2,object_01,1,2715,0,4,4,desert_2,1,memory-2step-stake-s,668,2298388,0.0-19.0-0.1-0.172,A3VFA6HNMEXO9L,3SA4EMRVKYI00KKCICLEW0FTGRS0PA,3VHHR074H7XRDT3S1LIIJICJD7W7LF,2,1
173,2,object_09,object_02,409.74000003189,3,1,327.68999994732,0.7777777777777778,1,object_06,1,2722,0,7,6,forest_4,1,memory-2step-stake-s,669,2306651,0.0-19.0-0.1-0.173,A3VFA6HNMEXO9L,3SA4EMRVKYI00KKCICLEW0FTGRS0PA,3VHHR074H7XRDT3S1LIIJICJD7W7LF,3,4
174,1,object_03,object_08,362.82499996014,2,2,353.79999992438,0.5555555555555556,2,object_01,1,2727,0,9,5,desert_6,1,memory-2step-stake-s,670,2314740,0.0-19.0-0.1-0.174,A3VFA6HNMEXO9L,3SA4EMRVKYI00KKCICLEW0FTGRS0PA,3VHHR074H7XRDT3S1LIIJICJD7W7LF,1,2
175,4,object_10,object_05,307.12999985553,8,1,336.37999999337,0.7777777777777778,2,object_01,5,2762,0,9,7,restaurant_2,1,memory-2step-stake-s,671,2323007,0.0-19.0-0.1-0.175,A3VFA6HNMEXO9L,3SA4EMRVKYI00KKCICLEW0FTGRS0PA,3VHHR074H7XRDT3S1LIIJICJD7W7LF,8,7
176,4,object_05,object_10,339.20500008389,7,1,309.12999995053,0.8888888888888888,1,object_06,5,2802,0,8,8,restaurant_1,1,memory-2step-stake-s,672,2331350,0.0-19.0-0.1-0.176,A3VFA6HNMEXO9L,3SA4EMRVKYI00KKCICLEW0FTGRS0PA,3VHHR074H7XRDT3S1LIIJICJD7W7LF,7,8
177,4,object_10,object_05,501.31500000134,7,2,292.61999996379,0.8888888888888888,1,object_06,5,2842,0,8,8,restaurant_2,1,memory-2step-stake-s,673,2339673,0.0-19.0-0.1-0.177,A3VFA6HNMEXO9L,3SA4EMRVKYI00KKCICLEW0FTGRS0PA,3VHHR074H7XRDT3S1LIIJICJD7W7LF,8,7
178,4,object_05,object_10,446.92500005476,8,2,366.4249998983,0.7777777777777778,2,object_01,5,2877,0,9,7,restaurant_2,1,memory-2step-stake-s,674,2347978,0.0-19.0-0.1-0.178,A3VFA6HNMEXO9L,3SA4EMRVKYI00KKCICLEW0FTGRS0PA,3VHHR074H7XRDT3S1LIIJICJD7W7LF,7,8
179,2,object_09,object_02,784.59000005387,3,1,232.80000011437,0.8888888888888888,1,object_06,1,2885,0,8,7,forest_4,1,memory-2step-stake-s,675,2356240,0.0-19.0-0.1-0.179,A3VFA6HNMEXO9L,3SA4EMRVKYI00KKCICLEW0FTGRS0PA,3VHHR074H7XRDT3S1LIIJICJD7W7LF,3,4
180,1,object_03,object_08,460.48500016332,1,1,389.47999989614,1.0,1,object_06,1,2894,0,9,6,desert_4,1,memory-2step-stake-s,676,2364762,0.0-19.0-0.1-0.180,A3VFA6HNMEXO9L,3SA4EMRVKYI00KKCICLEW0FTGRS0PA,3VHHR074H7XRDT3S1LIIJICJD7W7LF,1,2
181,1,object_03,object_08,679.59000007249,1,1,397.20000000671,0.8888888888888888,1,object_06,1,2902,0,8,8,desert_3,1,memory-2step-stake-s,677,2373194,0.0-19.0-0.1-0.181,A3VFA6HNMEXO9L,3SA4EMRVKYI00KKCICLEW0FTGRS0PA,3VHHR074H7XRDT3S1LIIJICJD7W7LF,1,2
182,1,object_03,object_08,620.54999987595,2,2,937.9300000146,0.7777777777777778,2,object_01,1,2909,0,8,7,desert_2,1,memory-2step-stake-s,678,2382065,0.0-19.0-0.1-0.182,A3VFA6HNMEXO9L,3SA4EMRVKYI00KKCICLEW0FTGRS0PA,3VHHR074H7XRDT3S1LIIJICJD7W7LF,1,2
183,1,object_08,object_03,786.88000002876,1,2,484.45000010543,0.7777777777777778,1,object_06,1,2916,0,7,6,desert_3,1,memory-2step-stake-s,679,2390491,0.0-19.0-0.1-0.183,A3VFA6HNMEXO9L,3SA4EMRVKYI00KKCICLEW0FTGRS0PA,3VHHR074H7XRDT3S1LIIJICJD7W7LF,2,1
184,2,object_09,object_02,518.82000011392,4,2,329.60500009358,0.5555555555555556,2,object_01,1,2921,0,8,5,forest_4,1,memory-2step-stake-s,680,2398550,0.0-19.0-0.1-0.184,A3VFA6HNMEXO9L,3SA4EMRVKYI00KKCICLEW0FTGRS0PA,3VHHR074H7XRDT3S1LIIJICJD7W7LF,3,4
185,3,object_04,object_07,399.9499999918,6,1,285.12999997474,0.8888888888888888,2,object_01,5,2961,0,4,8,library_8,1,memory-2step-stake-s,681,2406869,0.0-19.0-0.1-0.185,A3VFA6HNMEXO9L,3SA4EMRVKYI00KKCICLEW0FTGRS0PA,3VHHR074H7XRDT3S1LIIJICJD7W7LF,6,5
186,2,object_02,object_09,553.10999997891,3,2,328.91000015661,1.0,1,object_06,5,3006,0,9,7,forest_4,1,memory-2step-stake-s,682,2415335,0.0-19.0-0.1-0.186,A3VFA6HNMEXO9L,3SA4EMRVKYI00KKCICLEW0FTGRS0PA,3VHHR074H7XRDT3S1LIIJICJD7W7LF,4,3
187,3,object_07,object_04,787.99000009894,5,1,324.1149999667,0.6666666666666666,1,object_06,1,3012,0,6,8,library_8,1,memory-2step-stake-s,683,2423490,0.0-19.0-0.1-0.187,A3VFA6HNMEXO9L,3SA4EMRVKYI00KKCICLEW0FTGRS0PA,3VHHR074H7XRDT3S1LIIJICJD7W7LF,5,6
188,4,object_05,object_10,600.82499985583,8,2,383.32000002265,0.4444444444444444,2,object_01,1,3016,0,6,4,restaurant_1,1,memory-2step-stake-s,684,2431500,0.0-19.0-0.1-0.188,A3VFA6HNMEXO9L,3SA4EMRVKYI00KKCICLEW0FTGRS0PA,3VHHR074H7XRDT3S1LIIJICJD7W7LF,7,8
189,2,object_02,object_09,898.54500000365,4,1,351.67500004172,0.0,2,object_01,1,3016,0,1,0,forest_8,1,memory-2step-stake-s,685,2439074,0.0-19.0-0.1-0.189,A3VFA6HNMEXO9L,3SA4EMRVKYI00KKCICLEW0FTGRS0PA,3VHHR074H7XRDT3S1LIIJICJD7W7LF,4,3
190,4,object_05,object_10,447.69499986432,8,2,345.12499999255,0.1111111111111111,2,object_01,5,3021,0,1,1,restaurant_7,1,memory-2step-stake-s,686,2446743,0.0-19.0-0.1-0.190,A3VFA6HNMEXO9L,3SA4EMRVKYI00KKCICLEW0FTGRS0PA,3VHHR074H7XRDT3S1LIIJICJD7W7LF,7,8
191,3,object_07,object_04,824.75499995053,5,1,386.99500006624,0.1111111111111111,1,object_06,1,3022,0,1,1,library_5,1,memory-2step-stake-s,687,2454455,0.0-19.0-0.1-0.191,A3VFA6HNMEXO9L,3SA4EMRVKYI00KKCICLEW0FTGRS0PA,3VHHR074H7XRDT3S1LIIJICJD7W7LF,5,6
192,2,object_09,object_02,905.39500000887,3,1,488.06999996305,0.2222222222222222,1,object_06,1,3024,0,2,2,forest_2,1,memory-2step-stake-s,688,2462366,0.0-19.0-0.1-0.192,A3VFA6HNMEXO9L,3SA4EMRVKYI00KKCICLEW0FTGRS0PA,3VHHR074H7XRDT3S1LIIJICJD7W7LF,3,4
193,1,object_03,object_08,543.58000005595,2,2,272.29500003159,0.1111111111111111,2,object_01,5,3029,0,0,1,desert_3,1,memory-2step-stake-s,689,2469959,0.0-19.0-0.1-0.193,A3VFA6HNMEXO9L,3SA4EMRVKYI00KKCICLEW0FTGRS0PA,3VHHR074H7XRDT3S1LIIJICJD7W7LF,1,2
194,1,object_03,object_08,815.42499992065,2,2,330.83500014618,0.0,2,object_01,5,3029,0,1,0,desert_2,1,memory-2step-stake-s,690,2477506,0.0-19.0-0.1-0.194,A3VFA6HNMEXO9L,3SA4EMRVKYI00KKCICLEW0FTGRS0PA,3VHHR074H7XRDT3S1LIIJICJD7W7LF,1,2
195,1,object_03,object_08,212.62999996543,1,1,279.72999983467,0.3333333333333333,1,object_06,1,3032,0,3,2,desert_6,1,memory-2step-stake-s,691,2485317,0.0-19.0-0.1-0.195,A3VFA6HNMEXO9L,3SA4EMRVKYI00KKCICLEW0FTGRS0PA,3VHHR074H7XRDT3S1LIIJICJD7W7LF,1,2
196,2,object_09,object_02,475.88500007987,4,2,353.72000001371,0.1111111111111111,2,object_01,1,3033,0,4,1,forest_4,1,memory-2step-stake-s,692,2493000,0.0-19.0-0.1-0.196,A3VFA6HNMEXO9L,3SA4EMRVKYI00KKCICLEW0FTGRS0PA,3VHHR074H7XRDT3S1LIIJICJD7W7LF,3,4
197,4,object_05,object_10,476.61499981768,7,1,409.47000007145,0.3333333333333333,1,object_06,5,3048,0,3,3,restaurant_7,1,memory-2step-stake-s,693,2500936,0.0-19.0-0.1-0.197,A3VFA6HNMEXO9L,3SA4EMRVKYI00KKCICLEW0FTGRS0PA,3VHHR074H7XRDT3S1LIIJICJD7W7LF,7,8
198,3,object_07,object_04,505.87999983691,6,2,282.72000001743,0.5555555555555556,2,object_01,1,3053,0,2,5,library_5,1,memory-2step-stake-s,694,2508948,0.0-19.0-0.1-0.198,A3VFA6HNMEXO9L,3SA4EMRVKYI00KKCICLEW0FTGRS0PA,3VHHR074H7XRDT3S1LIIJICJD7W7LF,5,6
199,2,object_02,object_09,351.05499997735,3,2,277.43999985978,0.2222222222222222,1,object_06,1,3055,0,2,7,forest_2,1,memory-2step-stake-s,695,2516655,0.0-19.0-0.1-0.199,A3VFA6HNMEXO9L,3SA4EMRVKYI00KKCICLEW0FTGRS0PA,3VHHR074H7XRDT3S1LIIJICJD7W7LF,4,3
200,4,object_10,object_05,447.33999995515,8,1,283.98000006564,0.8888888888888888,2,object_01,5,3095,0,3,8,restaurant_2,1,memory-2step-stake-s,696,2524969,0.0-19.0-0.1-0.200,A3VFA6HNMEXO9L,3SA4EMRVKYI00KKCICLEW0FTGRS0PA,3VHHR074H7XRDT3S1LIIJICJD7W7LF,8,7
201,2,object_09,object_02,904.99000018463,3,1,324.14000015706,0.1111111111111111,1,object_06,1,3096,0,1,6,forest_8,1,memory-2step-stake-s,697,2532618,0.0-19.0-0.1-0.201,A3VFA6HNMEXO9L,3SA4EMRVKYI00KKCICLEW0FTGRS0PA,3VHHR074H7XRDT3S1LIIJICJD7W7LF,3,4
202,2,object_02,object_09,425.50999997184,3,2,301.16000003181,0.0,1,object_06,1,3096,0,0,5,forest_8,1,memory-2step-stake-s,698,2540137,0.0-19.0-0.1-0.202,A3VFA6HNMEXO9L,3SA4EMRVKYI00KKCICLEW0FTGRS0PA,3VHHR074H7XRDT3S1LIIJICJD7W7LF,4,3
203,3,object_04,object_07,561.86499982141,6,1,367.5500000827,1.0,2,object_01,5,3141,0,1,9,library_3,1,memory-2step-stake-s,699,2548644,0.0-19.0-0.1-0.203,A3VFA6HNMEXO9L,3SA4EMRVKYI00KKCICLEW0FTGRS0PA,3VHHR074H7XRDT3S1LIIJICJD7W7LF,6,5
204,2,object_02,object_09,857.73500008509,3,2,316.17000000551,0.0,1,object_06,1,3141,0,0,9,forest_8,1,memory-2step-stake-s,700,2556180,0.0-19.0-0.1-0.204,A3VFA6HNMEXO9L,3SA4EMRVKYI00KKCICLEW0FTGRS0PA,3VHHR074H7XRDT3S1LIIJICJD7W7LF,4,3
205,2,object_09,object_02,577.35999999568,4,2,407.17000002041,0.6666666666666666,2,object_01,5,3171,0,2,6,forest_8,1,memory-2step-stake-s,701,2564421,0.0-19.0-0.1-0.205,A3VFA6HNMEXO9L,3SA4EMRVKYI00KKCICLEW0FTGRS0PA,3VHHR074H7XRDT3S1LIIJICJD7W7LF,3,4
206,2,object_02,object_09,721.40999999829,4,1,305.40000018664,0.6666666666666666,2,object_01,5,3201,0,4,6,forest_1,1,memory-2step-stake-s,702,2572554,0.0-19.0-0.1-0.206,A3VFA6HNMEXO9L,3SA4EMRVKYI00KKCICLEW0FTGRS0PA,3VHHR074H7XRDT3S1LIIJICJD7W7LF,4,3
207,4,object_05,object_10,727.31500002556,8,2,259.53499996103,0.5555555555555556,2,object_01,5,3226,0,5,5,restaurant_6,1,memory-2step-stake-s,703,2580538,0.0-19.0-0.1-0.207,A3VFA6HNMEXO9L,3SA4EMRVKYI00KKCICLEW0FTGRS0PA,3VHHR074H7XRDT3S1LIIJICJD7W7LF,7,8
208,1,object_03,object_08,406.83999983594,1,1,286.03999991901,0.4444444444444444,1,object_06,1,3230,0,4,3,desert_2,1,memory-2step-stake-s,704,2588448,0.0-19.0-0.1-0.208,A3VFA6HNMEXO9L,3SA4EMRVKYI00KKCICLEW0FTGRS0PA,3VHHR074H7XRDT3S1LIIJICJD7W7LF,1,2
209,2,object_09,object_02,324.80499986559,4,2,464.19500000775,0.3333333333333333,2,object_01,1,3233,0,0,3,forest_8,1,memory-2step-stake-s,705,2596443,0.0-19.0-0.1-0.209,A3VFA6HNMEXO9L,3SA4EMRVKYI00KKCICLEW0FTGRS0PA,3VHHR074H7XRDT3S1LIIJICJD7W7LF,3,4
210,4,object_05,object_10,473.65000005811,7,1,319.42999991588,0.2222222222222222,1,object_06,5,3243,0,2,5,restaurant_7,1,memory-2step-stake-s,706,2604195,0.0-19.0-0.1-0.210,A3VFA6HNMEXO9L,3SA4EMRVKYI00KKCICLEW0FTGRS0PA,3VHHR074H7XRDT3S1LIIJICJD7W7LF,7,8
211,1,object_08,object_03,574.23499994911,2,1,387.40500016138,0.4444444444444444,2,object_01,5,3263,0,0,4,desert_6,1,memory-2step-stake-s,707,2612209,0.0-19.0-0.1-0.211,A3VFA6HNMEXO9L,3SA4EMRVKYI00KKCICLEW0FTGRS0PA,3VHHR074H7XRDT3S1LIIJICJD7W7LF,2,1
212,4,object_10,object_05,732.93499997817,7,2,275.77499998733,0.2222222222222222,1,object_06,5,3273,0,2,5,restaurant_1,1,memory-2step-stake-s,708,2619911,0.0-19.0-0.1-0.212,A3VFA6HNMEXO9L,3SA4EMRVKYI00KKCICLEW0FTGRS0PA,3VHHR074H7XRDT3S1LIIJICJD7W7LF,8,7
213,2,object_09,object_02,401.4699999243,3,1,250.86000002921,0.2222222222222222,1,object_06,1,3275,0,2,0,forest_8,1,memory-2step-stake-s,709,2627586,0.0-19.0-0.1-0.213,A3VFA6HNMEXO9L,3SA4EMRVKYI00KKCICLEW0FTGRS0PA,3VHHR074H7XRDT3S1LIIJICJD7W7LF,3,4
214,4,object_05,object_10,308.64499998279,8,2,279.39500007778,0.2222222222222222,2,object_01,5,3285,0,4,2,restaurant_1,1,memory-2step-stake-s,710,2635292,0.0-19.0-0.1-0.214,A3VFA6HNMEXO9L,3SA4EMRVKYI00KKCICLEW0FTGRS0PA,3VHHR074H7XRDT3S1LIIJICJD7W7LF,7,8
215,3,object_07,object_04,442.61999987066,5,1,399.42999999039,0.3333333333333333,1,object_06,1,3288,0,3,1,library_7,1,memory-2step-stake-s,711,2643213,0.0-19.0-0.1-0.215,A3VFA6HNMEXO9L,3SA4EMRVKYI00KKCICLEW0FTGRS0PA,3VHHR074H7XRDT3S1LIIJICJD7W7LF,5,6
216,4,object_05,object_10,340.91500006616,8,2,257.93499988504,0.2222222222222222,2,object_01,5,3298,0,4,2,restaurant_1,1,memory-2step-stake-s,712,2650897,0.0-19.0-0.1-0.216,A3VFA6HNMEXO9L,3SA4EMRVKYI00KKCICLEW0FTGRS0PA,3VHHR074H7XRDT3S1LIIJICJD7W7LF,7,8
217,3,object_04,object_07,563.28500015661,6,1,357.27000003681,0.4444444444444444,2,object_01,5,3318,0,3,4,library_5,1,memory-2step-stake-s,713,2658888,0.0-19.0-0.1-0.217,A3VFA6HNMEXO9L,3SA4EMRVKYI00KKCICLEW0FTGRS0PA,3VHHR074H7XRDT3S1LIIJICJD7W7LF,6,5
218,4,object_10,object_05,653.5800001584,8,1,286.09500010498,0.4444444444444444,2,object_01,5,3338,0,2,4,restaurant_7,1,memory-2step-stake-s,714,2666802,0.0-19.0-0.1-0.218,A3VFA6HNMEXO9L,3SA4EMRVKYI00KKCICLEW0FTGRS0PA,3VHHR074H7XRDT3S1LIIJICJD7W7LF,8,7
219,2,object_09,object_02,309.70999994315,3,1,272.52499992028,0.3333333333333333,1,object_06,1,3341,0,3,6,forest_4,1,memory-2step-stake-s,715,2674605,0.0-19.0-0.1-0.219,A3VFA6HNMEXO9L,3SA4EMRVKYI00KKCICLEW0FTGRS0PA,3VHHR074H7XRDT3S1LIIJICJD7W7LF,3,4
220,1,object_03,object_08,425.76500005089,2,2,395.64000000246,0.5555555555555556,2,object_01,5,3366,0,2,5,desert_2,1,memory-2step-stake-s,716,2682733,0.0-19.0-0.1-0.220,A3VFA6HNMEXO9L,3SA4EMRVKYI00KKCICLEW0FTGRS0PA,3VHHR074H7XRDT3S1LIIJICJD7W7LF,1,2
221,1,object_08,object_03,527.62499987148,1,2,230.45999999158,0.1111111111111111,1,object_06,1,3367,0,1,4,desert_6,1,memory-2step-stake-s,717,2690291,0.0-19.0-0.1-0.221,A3VFA6HNMEXO9L,3SA4EMRVKYI00KKCICLEW0FTGRS0PA,3VHHR074H7XRDT3S1LIIJICJD7W7LF,2,1
222,4,object_10,object_05,955.62499994412,8,1,349.0349999629,0.3333333333333333,2,object_01,5,3382,0,4,3,restaurant_6,1,memory-2step-stake-s,718,2698168,0.0-19.0-0.1-0.222,A3VFA6HNMEXO9L,3SA4EMRVKYI00KKCICLEW0FTGRS0PA,3VHHR074H7XRDT3S1LIIJICJD7W7LF,8,7
223,2,object_02,object_09,385.00000000931,4,1,293.28499990515,0.3333333333333333,2,object_01,1,3385,0,4,3,forest_1,1,memory-2step-stake-s,719,2705988,0.0-19.0-0.1-0.223,A3VFA6HNMEXO9L,3SA4EMRVKYI00KKCICLEW0FTGRS0PA,3VHHR074H7XRDT3S1LIIJICJD7W7LF,4,3
224,2,object_09,object_02,439.46000002325,3,1,409.41499988548,0.5555555555555556,1,object_06,1,3390,0,5,2,forest_2,1,memory-2step-stake-s,720,2714121,0.0-19.0-0.1-0.224,A3VFA6HNMEXO9L,3SA4EMRVKYI00KKCICLEW0FTGRS0PA,3VHHR074H7XRDT3S1LIIJICJD7W7LF,3,4
225,1,object_08,object_03,411.71000013128,1,2,346.61999996752,0.4444444444444444,1,object_06,1,3394,0,4,1,desert_3,1,memory-2step-stake-s,721,2722089,0.0-19.0-0.1-0.225,A3VFA6HNMEXO9L,3SA4EMRVKYI00KKCICLEW0FTGRS0PA,3VHHR074H7XRDT3S1LIIJICJD7W7LF,2,1
226,2,object_02,object_09,458.71999999508,4,1,399.25500005484,0.2222222222222222,2,object_01,1,3396,0,3,2,forest_2,1,memory-2step-stake-s,722,2729916,0.0-19.0-0.1-0.226,A3VFA6HNMEXO9L,3SA4EMRVKYI00KKCICLEW0FTGRS0PA,3VHHR074H7XRDT3S1LIIJICJD7W7LF,4,3
227,4,object_10,object_05,399.04000004753,7,2,304.8350000754,0.2222222222222222,1,object_06,5,3406,0,2,4,restaurant_2,1,memory-2step-stake-s,723,2737647,0.0-19.0-0.1-0.227,A3VFA6HNMEXO9L,3SA4EMRVKYI00KKCICLEW0FTGRS0PA,3VHHR074H7XRDT3S1LIIJICJD7W7LF,8,7
228,2,object_02,object_09,449.22000006773,4,1,373.21999995038,0.4444444444444444,2,object_01,1,3410,0,2,4,forest_4,1,memory-2step-stake-s,724,2745648,0.0-19.0-0.1-0.228,A3VFA6HNMEXO9L,3SA4EMRVKYI00KKCICLEW0FTGRS0PA,3VHHR074H7XRDT3S1LIIJICJD7W7LF,4,3
229,4,object_10,object_05,346.26000002027,7,2,358.13999990933,0.1111111111111111,1,object_06,5,3415,0,1,4,restaurant_6,1,memory-2step-stake-s,725,2753333,0.0-19.0-0.1-0.229,A3VFA6HNMEXO9L,3SA4EMRVKYI00KKCICLEW0FTGRS0PA,3VHHR074H7XRDT3S1LIIJICJD7W7LF,8,7
230,1,object_03,object_08,377.01499997638,2,2,541.36000014842,0.4444444444444444,2,object_01,5,3435,0,1,4,desert_2,1,memory-2step-stake-s,726,2761504,0.0-19.0-0.1-0.230,A3VFA6HNMEXO9L,3SA4EMRVKYI00KKCICLEW0FTGRS0PA,3VHHR074H7XRDT3S1LIIJICJD7W7LF,1,2
231,3,object_04,object_07,372.56000004709,5,2,407.75000001304,0.2222222222222222,1,object_06,1,3437,0,2,4,library_3,1,memory-2step-stake-s,727,2769332,0.0-19.0-0.1-0.231,A3VFA6HNMEXO9L,3SA4EMRVKYI00KKCICLEW0FTGRS0PA,3VHHR074H7XRDT3S1LIIJICJD7W7LF,6,5
232,1,object_03,object_08,350.0050001312,1,1,293.28000009991,0.2222222222222222,1,object_06,1,3439,0,2,1,desert_2,1,memory-2step-stake-s,728,2777051,0.0-19.0-0.1-0.232,A3VFA6HNMEXO9L,3SA4EMRVKYI00KKCICLEW0FTGRS0PA,3VHHR074H7XRDT3S1LIIJICJD7W7LF,1,2
233,2,object_09,object_02,424.77499996312,4,2,345.72999994271,0.3333333333333333,2,object_01,1,3442,0,0,3,forest_8,1,memory-2step-stake-s,729,2784923,0.0-19.0-0.1-0.233,A3VFA6HNMEXO9L,3SA4EMRVKYI00KKCICLEW0FTGRS0PA,3VHHR074H7XRDT3S1LIIJICJD7W7LF,3,4
234,1,object_08,object_03,433.43500001356,2,1,357.55000007339,0.2222222222222222,2,object_01,1,3444,0,3,2,desert_3,1,memory-2step-stake-s,730,2792704,0.0-19.0-0.1-0.234,A3VFA6HNMEXO9L,3SA4EMRVKYI00KKCICLEW0FTGRS0PA,3VHHR074H7XRDT3S1LIIJICJD7W7LF,2,1
235,4,object_05,object_10,436.10000004992,7,1,263.02499999292,0.2222222222222222,1,object_06,1,3446,0,2,1,restaurant_6,1,memory-2step-stake-s,731,2800384,0.0-19.0-0.1-0.235,A3VFA6HNMEXO9L,3SA4EMRVKYI00KKCICLEW0FTGRS0PA,3VHHR074H7XRDT3S1LIIJICJD7W7LF,7,8
236,1,object_03,object_08,335.36999998614,1,1,346.90500004217,0.2222222222222222,1,object_06,1,3448,0,2,3,desert_4,1,memory-2step-stake-s,732,2808141,0.0-19.0-0.1-0.236,A3VFA6HNMEXO9L,3SA4EMRVKYI00KKCICLEW0FTGRS0PA,3VHHR074H7XRDT3S1LIIJICJD7W7LF,1,2
237,1,object_08,object_03,410.19000019878,1,2,284.27499998361,0.2222222222222222,1,object_06,1,3450,0,2,4,desert_4,1,memory-2step-stake-s,733,2815839,0.0-19.0-0.1-0.237,A3VFA6HNMEXO9L,3SA4EMRVKYI00KKCICLEW0FTGRS0PA,3VHHR074H7XRDT3S1LIIJICJD7W7LF,2,1
238,2,object_09,object_02,551.26500013284,3,1,293.67499984801,0.2222222222222222,1,object_06,5,3460,0,2,3,forest_1,1,memory-2step-stake-s,734,2823551,0.0-19.0-0.1-0.238,A3VFA6HNMEXO9L,3SA4EMRVKYI00KKCICLEW0FTGRS0PA,3VHHR074H7XRDT3S1LIIJICJD7W7LF,3,4
239,4,object_05,object_10,545.25500000454,8,2,327.83000008203,0.4444444444444444,2,object_01,1,3464,0,4,4,restaurant_6,1,memory-2step-stake-s,735,2831500,0.0-19.0-0.1-0.239,A3VFA6HNMEXO9L,3SA4EMRVKYI00KKCICLEW0FTGRS0PA,3VHHR074H7XRDT3S1LIIJICJD7W7LF,7,8
240,3,object_04,object_07,719.4399998989,6,1,295.94499990344,0.1111111111111111,2,object_01,5,3469,0,3,1,library_5,1,memory-2step-stake-s,736,2839120,0.0-19.0-0.1-0.240,A3VFA6HNMEXO9L,3SA4EMRVKYI00KKCICLEW0FTGRS0PA,3VHHR074H7XRDT3S1LIIJICJD7W7LF,6,5
241,2,object_02,object_09,351.76500002854,3,2,710.72500012815,0.6666666666666666,1,object_06,1,3475,0,6,2,forest_1,1,memory-2step-stake-s,737,2847668,0.0-19.0-0.1-0.241,A3VFA6HNMEXO9L,3SA4EMRVKYI00KKCICLEW0FTGRS0PA,3VHHR074H7XRDT3S1LIIJICJD7W7LF,4,3
242,1,object_08,object_03,533.89000007883,1,2,394.54000000842,0.3333333333333333,1,object_06,1,3478,0,3,3,desert_4,1,memory-2step-stake-s,738,2855598,0.0-19.0-0.1-0.242,A3VFA6HNMEXO9L,3SA4EMRVKYI00KKCICLEW0FTGRS0PA,3VHHR074H7XRDT3S1LIIJICJD7W7LF,2,1
243,4,object_05,object_10,417.21000010148,7,1,439.17999998666,0.3333333333333333,1,object_06,1,3481,0,3,0,restaurant_2,1,memory-2step-stake-s,739,2863560,0.0-19.0-0.1-0.243,A3VFA6HNMEXO9L,3SA4EMRVKYI00KKCICLEW0FTGRS0PA,3VHHR074H7XRDT3S1LIIJICJD7W7LF,7,8
244,1,object_03,object_08,448.73000006191,1,1,567.12999986485,0.3333333333333333,1,object_06,1,3484,0,3,1,desert_4,1,memory-2step-stake-s,740,2871652,0.0-19.0-0.1-0.244,A3VFA6HNMEXO9L,3SA4EMRVKYI00KKCICLEW0FTGRS0PA,3VHHR074H7XRDT3S1LIIJICJD7W7LF,1,2
245,1,object_08,object_03,330.42000001296,1,2,316.40499993227,0.3333333333333333,1,object_06,1,3487,0,3,0,desert_4,1,memory-2step-stake-s,741,2879496,0.0-19.0-0.1-0.245,A3VFA6HNMEXO9L,3SA4EMRVKYI00KKCICLEW0FTGRS0PA,3VHHR074H7XRDT3S1LIIJICJD7W7LF,2,1
246,3,object_07,object_04,539.13499996997,5,1,296.71499994583,0.4444444444444444,1,object_06,5,3507,0,4,0,library_8,1,memory-2step-stake-s,742,2887416,0.0-19.0-0.1-0.246,A3VFA6HNMEXO9L,3SA4EMRVKYI00KKCICLEW0FTGRS0PA,3VHHR074H7XRDT3S1LIIJICJD7W7LF,5,6
247,3,object_07,object_04,474.94500014,6,2,294.38000009395,0.2222222222222222,2,object_01,1,3509,0,3,2,library_7,1,memory-2step-stake-s,743,2895140,0.0-19.0-0.1-0.247,A3VFA6HNMEXO9L,3SA4EMRVKYI00KKCICLEW0FTGRS0PA,3VHHR074H7XRDT3S1LIIJICJD7W7LF,5,6
248,4,object_05,object_10,735.94000004232,7,1,411.08500002883,0.1111111111111111,1,object_06,1,3510,0,1,1,restaurant_6,1,memory-2step-stake-s,744,2902878,0.0-19.0-0.1-0.248,A3VFA6HNMEXO9L,3SA4EMRVKYI00KKCICLEW0FTGRS0PA,3VHHR074H7XRDT3S1LIIJICJD7W7LF,7,8
249,4,object_10,object_05,347.12500008754,8,1,265.15999995172,0.2222222222222222,2,object_01,1,3512,0,4,2,restaurant_6,1,memory-2step-stake-s,745,2910563,0.0-19.0-0.1-0.249,A3VFA6HNMEXO9L,3SA4EMRVKYI00KKCICLEW0FTGRS0PA,3VHHR074H7XRDT3S1LIIJICJD7W7LF,8,7
250,1,object_08,object_03,1017.1600000467,1,2,291.08000011183,0.3333333333333333,1,object_06,5,3527,0,3,3,desert_6,1,memory-2step-stake-s,746,2918377,0.0-19.0-0.1-0.250,A3VFA6HNMEXO9L,3SA4EMRVKYI00KKCICLEW0FTGRS0PA,3VHHR074H7XRDT3S1LIIJICJD7W7LF,2,1
251,2,object_09,object_02,845.33499996178,4,2,276.00999991409,0.6666666666666666,2,object_01,1,3533,0,3,6,forest_8,1,memory-2step-stake-s,747,2926484,0.0-19.0-0.1-0.251,A3VFA6HNMEXO9L,3SA4EMRVKYI00KKCICLEW0FTGRS0PA,3VHHR074H7XRDT3S1LIIJICJD7W7LF,3,4
252,4,object_05,object_10,317.57999979891,7,1,280.849999981,0.4444444444444444,1,object_06,5,3553,0,4,6,restaurant_6,1,memory-2step-stake-s,748,2934394,0.0-19.0-0.1-0.252,A3VFA6HNMEXO9L,3SA4EMRVKYI00KKCICLEW0FTGRS0PA,3VHHR074H7XRDT3S1LIIJICJD7W7LF,7,8
253,2,object_02,object_09,520.18500003032,4,1,318.54499992914,0.3333333333333333,2,object_01,1,3556,0,0,3,forest_1,1,memory-2step-stake-s,749,2942238,0.0-19.0-0.1-0.253,A3VFA6HNMEXO9L,3SA4EMRVKYI00KKCICLEW0FTGRS0PA,3VHHR074H7XRDT3S1LIIJICJD7W7LF,4,3
254,3,object_04,object_07,325.76499995776,6,1,312.69500008784,0.1111111111111111,2,object_01,5,3561,0,1,1,library_8,1,memory-2step-stake-s,750,2949876,0.0-19.0-0.1-0.254,A3VFA6HNMEXO9L,3SA4EMRVKYI00KKCICLEW0FTGRS0PA,3VHHR074H7XRDT3S1LIIJICJD7W7LF,6,5
255,2,object_02,object_09,345.88000015356,3,2,289.30500010028,0.2222222222222222,1,object_06,1,3563,0,2,3,forest_2,1,memory-2step-stake-s,751,2957594,0.0-19.0-0.1-0.255,A3VFA6HNMEXO9L,3SA4EMRVKYI00KKCICLEW0FTGRS0PA,3VHHR074H7XRDT3S1LIIJICJD7W7LF,4,3
