,state1,stim_left,stim_right,rt_1,choice1,response1,rt_2,points,state2,stim_state2,stake,score,practice,rews1,rews2,background,high_arm,trial_type,trial_index,time_elapsed,internal_node_id,subid,hitid,assignmentid,stim_left_num,stim_right_num
0,4,object_09,object_10,1090.0999999642,7,1,-1.0,0.0,1,object_08,5,0,0,2,5,restaurant_2,2,memory-2step-stake-s,488,868017,0.0-19.0-0.0-0.0,AB60ITQGDVHF0,3DW3BNF1HKYVNTMBZS7SV7ATLD58VQ,374TNBHA8FBLJAF6GZGEDHVARDYQYW,7,8
1,3,object_04,object_06,-1.0,-1,-1,-1.0,0.0,-,0,1,0,0,2,3,library_6,2,memory-2step-stake-s,489,874552,0.0-19.0-0.0-0.1,AB60ITQGDVHF0,3DW3BNF1HKYVNTMBZS7SV7ATLD58VQ,374TNBHA8FBLJAF6GZGEDHVARDYQYW,5,6
2,1,object_05,object_07,602.80000001192,1,1,1449.1999999881,0.0,1,object_08,5,0,0,0,6,desert_8,2,memory-2step-stake-s,490,883242,0.0-19.0-0.0-0.2,AB60ITQGDVHF0,3DW3BNF1HKYVNTMBZS7SV7ATLD58VQ,374TNBHA8FBLJAF6GZGEDHVARDYQYW,1,2
3,1,object_05,object_07,1182.0,2,2,828.39999997616,0.6666666666666666,2,object_01,1,6,0,1,6,desert_7,2,memory-2step-stake-s,491,891953,0.0-19.0-0.0-0.3,AB60ITQGDVHF0,3DW3BNF1HKYVNTMBZS7SV7ATLD58VQ,374TNBHA8FBLJAF6GZGEDHVARDYQYW,1,2
4,4,object_10,object_09,896.19999998808,8,1,915.90000003576,0.7777777777777778,2,object_01,1,13,0,1,7,restaurant_6,2,memory-2step-stake-s,492,900859,0.0-19.0-0.0-0.4,AB60ITQGDVHF0,3DW3BNF1HKYVNTMBZS7SV7ATLD58VQ,374TNBHA8FBLJAF6GZGEDHVARDYQYW,8,7
5,3,object_04,object_06,871.80000001192,5,1,453.69999998808,0.1111111111111111,1,object_08,1,14,0,1,7,library_8,2,memory-2step-stake-s,493,908663,0.0-19.0-0.0-0.5,AB60ITQGDVHF0,3DW3BNF1HKYVNTMBZS7SV7ATLD58VQ,374TNBHA8FBLJAF6GZGEDHVARDYQYW,5,6
6,1,object_05,object_07,880.39999997616,2,2,582.80000001192,0.4444444444444444,2,object_01,5,34,0,1,4,desert_7,2,memory-2step-stake-s,494,916913,0.0-19.0-0.0-0.6,AB60ITQGDVHF0,3DW3BNF1HKYVNTMBZS7SV7ATLD58VQ,374TNBHA8FBLJAF6GZGEDHVARDYQYW,1,2
7,3,object_04,object_06,729.40000003576,5,1,410.90000003576,0.1111111111111111,1,object_08,1,35,0,1,4,library_1,2,memory-2step-stake-s,495,924673,0.0-19.0-0.0-0.7,AB60ITQGDVHF0,3DW3BNF1HKYVNTMBZS7SV7ATLD58VQ,374TNBHA8FBLJAF6GZGEDHVARDYQYW,5,6
8,2,object_03,object_02,955.60000002384,3,2,527.30000001192,0.2222222222222222,1,object_08,5,45,0,2,2,forest_6,2,memory-2step-stake-s,496,932657,0.0-19.0-0.0-0.8,AB60ITQGDVHF0,3DW3BNF1HKYVNTMBZS7SV7ATLD58VQ,374TNBHA8FBLJAF6GZGEDHVARDYQYW,4,3
9,4,object_10,object_09,969.60000002384,8,1,557.39999997616,0.3333333333333333,2,object_01,1,48,0,1,3,restaurant_5,2,memory-2step-stake-s,497,940774,0.0-19.0-0.0-0.9,AB60ITQGDVHF0,3DW3BNF1HKYVNTMBZS7SV7ATLD58VQ,374TNBHA8FBLJAF6GZGEDHVARDYQYW,8,7
10,1,object_07,object_05,748.0,1,2,487.60000002384,0.1111111111111111,1,object_08,5,53,0,1,6,desert_1,2,memory-2step-stake-s,498,948613,0.0-19.0-0.0-0.10,AB60ITQGDVHF0,3DW3BNF1HKYVNTMBZS7SV7ATLD58VQ,374TNBHA8FBLJAF6GZGEDHVARDYQYW,2,1
11,2,object_03,object_02,878.0,4,1,456.69999998808,0.2222222222222222,2,object_01,5,63,0,2,2,forest_6,2,memory-2step-stake-s,499,956529,0.0-19.0-0.0-0.11,AB60ITQGDVHF0,3DW3BNF1HKYVNTMBZS7SV7ATLD58VQ,374TNBHA8FBLJAF6GZGEDHVARDYQYW,4,3
12,4,object_10,object_09,1185.3999999762,8,1,590.10000002384,0.6666666666666666,2,object_01,1,69,0,2,6,restaurant_7,2,memory-2step-stake-s,500,964999,0.0-19.0-0.0-0.12,AB60ITQGDVHF0,3DW3BNF1HKYVNTMBZS7SV7ATLD58VQ,374TNBHA8FBLJAF6GZGEDHVARDYQYW,8,7
13,2,object_02,object_03,934.40000003576,4,2,425.5,0.6666666666666666,2,object_01,5,99,0,3,6,forest_6,2,memory-2step-stake-s,501,973284,0.0-19.0-0.0-0.13,AB60ITQGDVHF0,3DW3BNF1HKYVNTMBZS7SV7ATLD58VQ,374TNBHA8FBLJAF6GZGEDHVARDYQYW,3,4
14,3,object_04,object_06,1068.9000000358,6,2,501.90000003576,0.2222222222222222,2,object_01,1,101,0,4,2,library_8,2,memory-2step-stake-s,502,981220,0.0-19.0-0.0-0.14,AB60ITQGDVHF0,3DW3BNF1HKYVNTMBZS7SV7ATLD58VQ,374TNBHA8FBLJAF6GZGEDHVARDYQYW,5,6
15,2,object_03,object_02,1076.6000000238,4,1,488.0,0.1111111111111111,2,object_01,5,106,0,5,1,forest_7,2,memory-2step-stake-s,503,989039,0.0-19.0-0.0-0.15,AB60ITQGDVHF0,3DW3BNF1HKYVNTMBZS7SV7ATLD58VQ,374TNBHA8FBLJAF6GZGEDHVARDYQYW,4,3
16,4,object_10,object_09,945.5,7,2,439.59999996424,0.2222222222222222,1,object_08,1,108,0,2,2,restaurant_5,2,memory-2step-stake-s,504,996910,0.0-19.0-0.0-0.16,AB60ITQGDVHF0,3DW3BNF1HKYVNTMBZS7SV7ATLD58VQ,374TNBHA8FBLJAF6GZGEDHVARDYQYW,8,7
17,2,object_03,object_02,936.40000003576,3,2,453.5,0.1111111111111111,1,object_08,5,113,0,1,5,forest_4,2,memory-2step-stake-s,505,1004697,0.0-19.0-0.0-0.17,AB60ITQGDVHF0,3DW3BNF1HKYVNTMBZS7SV7ATLD58VQ,374TNBHA8FBLJAF6GZGEDHVARDYQYW,4,3
18,4,object_09,object_10,1192.3000000119,8,2,602.89999997616,0.6666666666666666,2,object_01,1,119,0,4,6,restaurant_5,2,memory-2step-stake-s,506,1013144,0.0-19.0-0.0-0.18,AB60ITQGDVHF0,3DW3BNF1HKYVNTMBZS7SV7ATLD58VQ,374TNBHA8FBLJAF6GZGEDHVARDYQYW,7,8
19,4,object_10,object_09,1110.2000000477,8,1,463.59999996424,0.5555555555555556,2,object_01,1,124,0,5,5,restaurant_2,2,memory-2step-stake-s,507,1021357,0.0-19.0-0.0-0.19,AB60ITQGDVHF0,3DW3BNF1HKYVNTMBZS7SV7ATLD58VQ,374TNBHA8FBLJAF6GZGEDHVARDYQYW,8,7
20,3,object_04,object_06,1098.7999999523,6,2,435.90000003576,0.5555555555555556,2,object_01,1,129,0,9,5,library_1,2,memory-2step-stake-s,508,1029538,0.0-19.0-0.0-0.20,AB60ITQGDVHF0,3DW3BNF1HKYVNTMBZS7SV7ATLD58VQ,374TNBHA8FBLJAF6GZGEDHVARDYQYW,5,6
21,1,object_05,object_07,1020.5999999642,2,2,475.30000001192,0.6666666666666666,2,object_01,5,159,0,8,6,desert_1,2,memory-2step-stake-s,509,1037853,0.0-19.0-0.0-0.21,AB60ITQGDVHF0,3DW3BNF1HKYVNTMBZS7SV7ATLD58VQ,374TNBHA8FBLJAF6GZGEDHVARDYQYW,1,2
22,4,object_10,object_09,966.09999996424,8,1,655.29999995232,0.6666666666666666,2,object_01,1,165,0,6,6,restaurant_6,2,memory-2step-stake-s,510,1046359,0.0-19.0-0.0-0.22,AB60ITQGDVHF0,3DW3BNF1HKYVNTMBZS7SV7ATLD58VQ,374TNBHA8FBLJAF6GZGEDHVARDYQYW,8,7
23,1,object_07,object_05,716.39999997616,2,1,416.5,0.6666666666666666,2,object_01,5,195,0,5,6,desert_8,2,memory-2step-stake-s,511,1054625,0.0-19.0-0.0-0.23,AB60ITQGDVHF0,3DW3BNF1HKYVNTMBZS7SV7ATLD58VQ,374TNBHA8FBLJAF6GZGEDHVARDYQYW,2,1
24,1,object_07,object_05,758.0,2,1,388.0,0.6666666666666666,2,object_01,5,225,0,5,6,desert_4,2,memory-2step-stake-s,512,1062865,0.0-19.0-0.0-0.24,AB60ITQGDVHF0,3DW3BNF1HKYVNTMBZS7SV7ATLD58VQ,374TNBHA8FBLJAF6GZGEDHVARDYQYW,2,1
25,3,object_04,object_06,825.30000001192,6,2,467.5,0.3333333333333333,2,object_01,1,228,0,6,3,library_6,2,memory-2step-stake-s,513,1070880,0.0-19.0-0.0-0.25,AB60ITQGDVHF0,3DW3BNF1HKYVNTMBZS7SV7ATLD58VQ,374TNBHA8FBLJAF6GZGEDHVARDYQYW,5,6
26,2,object_03,object_02,1314.6999999881,4,1,499.5,0.0,2,object_01,5,228,0,3,0,forest_4,2,memory-2step-stake-s,514,1078616,0.0-19.0-0.0-0.26,AB60ITQGDVHF0,3DW3BNF1HKYVNTMBZS7SV7ATLD58VQ,374TNBHA8FBLJAF6GZGEDHVARDYQYW,4,3
27,3,object_04,object_06,732.5,6,2,487.80000001192,0.0,2,object_01,1,228,0,2,0,library_2,2,memory-2step-stake-s,515,1086336,0.0-19.0-0.0-0.27,AB60ITQGDVHF0,3DW3BNF1HKYVNTMBZS7SV7ATLD58VQ,374TNBHA8FBLJAF6GZGEDHVARDYQYW,5,6
28,4,object_09,object_10,1063.7000000477,7,1,456.10000002384,0.4444444444444444,1,object_08,1,232,0,4,4,restaurant_7,2,memory-2step-stake-s,516,1094443,0.0-19.0-0.0-0.28,AB60ITQGDVHF0,3DW3BNF1HKYVNTMBZS7SV7ATLD58VQ,374TNBHA8FBLJAF6GZGEDHVARDYQYW,7,8
29,4,object_09,object_10,549.09999996424,7,1,497.40000003576,0.1111111111111111,1,object_08,1,233,0,1,0,restaurant_7,2,memory-2step-stake-s,517,1102277,0.0-19.0-0.0-0.29,AB60ITQGDVHF0,3DW3BNF1HKYVNTMBZS7SV7ATLD58VQ,374TNBHA8FBLJAF6GZGEDHVARDYQYW,7,8
30,1,object_05,object_07,950.40000003576,1,1,432.30000001192,0.1111111111111111,1,object_08,1,234,0,1,3,desert_7,2,memory-2step-stake-s,518,1110042,0.0-19.0-0.0-0.30,AB60ITQGDVHF0,3DW3BNF1HKYVNTMBZS7SV7ATLD58VQ,374TNBHA8FBLJAF6GZGEDHVARDYQYW,1,2
31,3,object_06,object_04,933.80000001192,5,2,579.90000003576,0.1111111111111111,1,object_08,5,239,0,1,3,library_6,2,memory-2step-stake-s,519,1117956,0.0-19.0-0.0-0.31,AB60ITQGDVHF0,3DW3BNF1HKYVNTMBZS7SV7ATLD58VQ,374TNBHA8FBLJAF6GZGEDHVARDYQYW,6,5
32,4,object_10,object_09,1368.3000000119,7,2,1207.6000000238,0.1111111111111111,1,object_08,5,244,0,1,5,restaurant_6,2,memory-2step-stake-s,520,1126505,0.0-19.0-0.0-0.32,AB60ITQGDVHF0,3DW3BNF1HKYVNTMBZS7SV7ATLD58VQ,374TNBHA8FBLJAF6GZGEDHVARDYQYW,8,7
33,4,object_09,object_10,655.59999996424,8,2,684.39999997616,0.4444444444444444,2,object_01,1,248,0,1,4,restaurant_7,2,memory-2step-stake-s,521,1134840,0.0-19.0-0.0-0.33,AB60ITQGDVHF0,3DW3BNF1HKYVNTMBZS7SV7ATLD58VQ,374TNBHA8FBLJAF6GZGEDHVARDYQYW,7,8
34,3,object_04,object_06,957.90000003576,6,2,442.69999998808,0.3333333333333333,2,object_01,1,251,0,1,3,library_1,2,memory-2step-stake-s,522,1142828,0.0-19.0-0.0-0.34,AB60ITQGDVHF0,3DW3BNF1HKYVNTMBZS7SV7ATLD58VQ,374TNBHA8FBLJAF6GZGEDHVARDYQYW,5,6
35,1,object_07,object_05,573.89999997616,2,1,498.80000001192,0.1111111111111111,2,object_01,5,256,0,1,1,desert_7,2,memory-2step-stake-s,523,1150665,0.0-19.0-0.0-0.35,AB60ITQGDVHF0,3DW3BNF1HKYVNTMBZS7SV7ATLD58VQ,374TNBHA8FBLJAF6GZGEDHVARDYQYW,2,1
36,4,object_10,object_09,1330.1999999881,8,1,475.80000001192,0.2222222222222222,2,object_01,1,258,0,4,2,restaurant_5,2,memory-2step-stake-s,524,1158579,0.0-19.0-0.0-0.36,AB60ITQGDVHF0,3DW3BNF1HKYVNTMBZS7SV7ATLD58VQ,374TNBHA8FBLJAF6GZGEDHVARDYQYW,8,7
37,4,object_10,object_09,630.09999996424,8,1,739.0,0.1111111111111111,2,object_01,1,259,0,1,1,restaurant_2,2,memory-2step-stake-s,525,1166662,0.0-19.0-0.0-0.37,AB60ITQGDVHF0,3DW3BNF1HKYVNTMBZS7SV7ATLD58VQ,374TNBHA8FBLJAF6GZGEDHVARDYQYW,8,7
38,4,object_10,object_09,684.19999998808,8,1,407.60000002384,0.0,2,object_01,1,259,0,3,0,restaurant_5,2,memory-2step-stake-s,526,1174306,0.0-19.0-0.0-0.38,AB60ITQGDVHF0,3DW3BNF1HKYVNTMBZS7SV7ATLD58VQ,374TNBHA8FBLJAF6GZGEDHVARDYQYW,8,7
39,3,object_06,object_04,1196.3000000119,5,2,484.5,0.0,1,object_08,5,259,0,0,2,library_8,2,memory-2step-stake-s,527,1182029,0.0-19.0-0.0-0.39,AB60ITQGDVHF0,3DW3BNF1HKYVNTMBZS7SV7ATLD58VQ,374TNBHA8FBLJAF6GZGEDHVARDYQYW,6,5
40,2,object_02,object_03,1196.1000000238,4,2,1430.4000000358,0.3333333333333333,2,object_01,5,274,0,1,3,forest_4,2,memory-2step-stake-s,528,1191004,0.0-19.0-0.0-0.40,AB60ITQGDVHF0,3DW3BNF1HKYVNTMBZS7SV7ATLD58VQ,374TNBHA8FBLJAF6GZGEDHVARDYQYW,3,4
41,1,object_05,object_07,1164.6999999881,2,2,520.30000001192,0.0,2,object_01,1,274,0,1,0,desert_8,2,memory-2step-stake-s,529,1198769,0.0-19.0-0.0-0.41,AB60ITQGDVHF0,3DW3BNF1HKYVNTMBZS7SV7ATLD58VQ,374TNBHA8FBLJAF6GZGEDHVARDYQYW,1,2
42,3,object_04,object_06,1053.5999999642,5,1,595.10000002384,0.4444444444444444,1,object_08,1,278,0,4,0,library_8,2,memory-2step-stake-s,530,1207015,0.0-19.0-0.0-0.42,AB60ITQGDVHF0,3DW3BNF1HKYVNTMBZS7SV7ATLD58VQ,374TNBHA8FBLJAF6GZGEDHVARDYQYW,5,6
43,2,object_03,object_02,981.5,3,2,469.90000003576,0.3333333333333333,1,object_08,5,293,0,3,0,forest_5,2,memory-2step-stake-s,531,1215025,0.0-19.0-0.0-0.43,AB60ITQGDVHF0,3DW3BNF1HKYVNTMBZS7SV7ATLD58VQ,374TNBHA8FBLJAF6GZGEDHVARDYQYW,4,3
44,1,object_05,object_07,1148.9000000358,1,1,852.89999997616,0.3333333333333333,1,object_08,5,308,0,3,3,desert_4,2,memory-2step-stake-s,532,1223419,0.0-19.0-0.0-0.44,AB60ITQGDVHF0,3DW3BNF1HKYVNTMBZS7SV7ATLD58VQ,374TNBHA8FBLJAF6GZGEDHVARDYQYW,1,2
45,1,object_07,object_05,1006.3000000119,1,2,547.59999996424,0.3333333333333333,1,object_08,5,323,0,3,5,desert_8,2,memory-2step-stake-s,533,1231510,0.0-19.0-0.0-0.45,AB60ITQGDVHF0,3DW3BNF1HKYVNTMBZS7SV7ATLD58VQ,374TNBHA8FBLJAF6GZGEDHVARDYQYW,2,1
46,3,object_06,object_04,1107.8999999762,5,2,423.80000001192,0.3333333333333333,1,object_08,1,326,0,3,8,library_1,2,memory-2step-stake-s,534,1239479,0.0-19.0-0.0-0.46,AB60ITQGDVHF0,3DW3BNF1HKYVNTMBZS7SV7ATLD58VQ,374TNBHA8FBLJAF6GZGEDHVARDYQYW,6,5
47,2,object_03,object_02,1026.1999999881,3,2,428.80000001192,0.5555555555555556,1,object_08,5,351,0,5,9,forest_5,2,memory-2step-stake-s,535,1247653,0.0-19.0-0.0-0.47,AB60ITQGDVHF0,3DW3BNF1HKYVNTMBZS7SV7ATLD58VQ,374TNBHA8FBLJAF6GZGEDHVARDYQYW,4,3
48,3,object_04,object_06,891.5,5,1,626.60000002384,0.3333333333333333,1,object_08,1,354,0,3,5,library_6,2,memory-2step-stake-s,536,1255829,0.0-19.0-0.0-0.48,AB60ITQGDVHF0,3DW3BNF1HKYVNTMBZS7SV7ATLD58VQ,374TNBHA8FBLJAF6GZGEDHVARDYQYW,5,6
49,3,object_04,object_06,1096.0,5,1,978.79999995232,0.2222222222222222,1,object_08,1,356,0,2,6,library_6,2,memory-2step-stake-s,537,1264250,0.0-19.0-0.0-0.49,AB60ITQGDVHF0,3DW3BNF1HKYVNTMBZS7SV7ATLD58VQ,374TNBHA8FBLJAF6GZGEDHVARDYQYW,5,6
50,3,object_06,object_04,731.0,5,2,442.30000001192,0.1111111111111111,1,object_08,1,357,0,1,5,library_6,2,memory-2step-stake-s,538,1272031,0.0-19.0-0.0-0.50,AB60ITQGDVHF0,3DW3BNF1HKYVNTMBZS7SV7ATLD58VQ,374TNBHA8FBLJAF6GZGEDHVARDYQYW,6,5
51,1,object_07,object_05,795.89999997616,1,2,476.0,0.2222222222222222,1,object_08,5,367,0,2,5,desert_7,2,memory-2step-stake-s,539,1279956,0.0-19.0-0.0-0.51,AB60ITQGDVHF0,3DW3BNF1HKYVNTMBZS7SV7ATLD58VQ,374TNBHA8FBLJAF6GZGEDHVARDYQYW,2,1
52,3,object_04,object_06,988.0,5,1,422.09999996424,0.5555555555555556,1,object_08,1,372,0,5,8,library_6,2,memory-2step-stake-s,540,1288131,0.0-19.0-0.0-0.52,AB60ITQGDVHF0,3DW3BNF1HKYVNTMBZS7SV7ATLD58VQ,374TNBHA8FBLJAF6GZGEDHVARDYQYW,5,6
53,4,object_10,object_09,1013.0,7,2,562.80000001192,0.3333333333333333,1,object_08,5,387,0,3,8,restaurant_7,2,memory-2step-stake-s,541,1296249,0.0-19.0-0.0-0.53,AB60ITQGDVHF0,3DW3BNF1HKYVNTMBZS7SV7ATLD58VQ,374TNBHA8FBLJAF6GZGEDHVARDYQYW,8,7
54,2,object_02,object_03,886.5,3,1,349.30000001192,0.3333333333333333,1,object_08,5,402,0,3,8,forest_5,2,memory-2step-stake-s,542,1304147,0.0-19.0-0.0-0.54,AB60ITQGDVHF0,3DW3BNF1HKYVNTMBZS7SV7ATLD58VQ,374TNBHA8FBLJAF6GZGEDHVARDYQYW,3,4
55,2,object_02,object_03,952.5,3,1,493.19999998808,0.3333333333333333,1,object_08,5,417,0,3,6,forest_4,2,memory-2step-stake-s,543,1312189,0.0-19.0-0.0-0.55,AB60ITQGDVHF0,3DW3BNF1HKYVNTMBZS7SV7ATLD58VQ,374TNBHA8FBLJAF6GZGEDHVARDYQYW,3,4
56,3,object_06,object_04,1280.5,5,2,512.5,0.6666666666666666,1,object_08,1,423,0,6,6,library_8,2,memory-2step-stake-s,544,1320562,0.0-19.0-0.0-0.56,AB60ITQGDVHF0,3DW3BNF1HKYVNTMBZS7SV7ATLD58VQ,374TNBHA8FBLJAF6GZGEDHVARDYQYW,6,5
57,3,object_04,object_06,698.70000004768,5,1,433.19999998808,0.6666666666666666,1,object_08,5,453,0,6,9,library_6,2,memory-2step-stake-s,545,1328862,0.0-19.0-0.0-0.57,AB60ITQGDVHF0,3DW3BNF1HKYVNTMBZS7SV7ATLD58VQ,374TNBHA8FBLJAF6GZGEDHVARDYQYW,5,6
58,1,object_07,object_05,1272.3000000119,1,2,488.0,0.6666666666666666,1,object_08,5,483,0,6,8,desert_4,2,memory-2step-stake-s,546,1337212,0.0-19.0-0.0-0.58,AB60ITQGDVHF0,3DW3BNF1HKYVNTMBZS7SV7ATLD58VQ,374TNBHA8FBLJAF6GZGEDHVARDYQYW,2,1
59,1,object_05,object_07,778.20000004768,1,1,788.5,0.5555555555555556,1,object_08,5,508,0,5,8,desert_8,2,memory-2step-stake-s,547,1345761,0.0-19.0-0.0-0.59,AB60ITQGDVHF0,3DW3BNF1HKYVNTMBZS7SV7ATLD58VQ,374TNBHA8FBLJAF6GZGEDHVARDYQYW,1,2
60,4,object_09,object_10,758.0,7,1,608.79999995232,0.4444444444444444,1,object_08,1,512,0,4,7,restaurant_2,2,memory-2step-stake-s,548,1354028,0.0-19.0-0.0-0.60,AB60ITQGDVHF0,3DW3BNF1HKYVNTMBZS7SV7ATLD58VQ,374TNBHA8FBLJAF6GZGEDHVARDYQYW,7,8
61,2,object_03,object_02,932.30000001192,3,2,453.70000004768,0.6666666666666666,1,object_08,1,518,0,6,9,forest_7,2,memory-2step-stake-s,549,1362343,0.0-19.0-0.0-0.61,AB60ITQGDVHF0,3DW3BNF1HKYVNTMBZS7SV7ATLD58VQ,374TNBHA8FBLJAF6GZGEDHVARDYQYW,4,3
62,4,object_09,object_10,502.30000001192,7,1,483.29999995232,0.8888888888888888,1,object_08,1,526,0,8,8,restaurant_6,2,memory-2step-stake-s,550,1370891,0.0-19.0-0.0-0.62,AB60ITQGDVHF0,3DW3BNF1HKYVNTMBZS7SV7ATLD58VQ,374TNBHA8FBLJAF6GZGEDHVARDYQYW,7,8
63,2,object_03,object_02,784.5,3,2,658.30000001192,0.6666666666666666,1,object_08,1,532,0,6,8,forest_4,2,memory-2step-stake-s,551,1379418,0.0-19.0-0.0-0.63,AB60ITQGDVHF0,3DW3BNF1HKYVNTMBZS7SV7ATLD58VQ,374TNBHA8FBLJAF6GZGEDHVARDYQYW,4,3
64,4,object_09,object_10,644.09999996424,7,1,553.0,0.3333333333333333,1,object_08,5,547,0,3,8,restaurant_2,2,memory-2step-stake-s,552,1387525,0.0-19.0-0.0-0.64,AB60ITQGDVHF0,3DW3BNF1HKYVNTMBZS7SV7ATLD58VQ,374TNBHA8FBLJAF6GZGEDHVARDYQYW,7,8
65,4,object_09,object_10,678.89999997616,7,1,412.59999996424,0.2222222222222222,1,object_08,5,557,0,2,8,restaurant_2,2,memory-2step-stake-s,553,1395391,0.0-19.0-0.0-0.65,AB60ITQGDVHF0,3DW3BNF1HKYVNTMBZS7SV7ATLD58VQ,374TNBHA8FBLJAF6GZGEDHVARDYQYW,7,8
66,2,object_03,object_02,787.30000001192,3,2,404.0,0.6666666666666666,1,object_08,1,563,0,6,8,forest_6,2,memory-2step-stake-s,554,1403658,0.0-19.0-0.0-0.66,AB60ITQGDVHF0,3DW3BNF1HKYVNTMBZS7SV7ATLD58VQ,374TNBHA8FBLJAF6GZGEDHVARDYQYW,4,3
67,3,object_06,object_04,1172.8000000119,5,2,547.39999997616,0.8888888888888888,1,object_08,1,571,0,8,9,library_6,2,memory-2step-stake-s,555,1412281,0.0-19.0-0.0-0.67,AB60ITQGDVHF0,3DW3BNF1HKYVNTMBZS7SV7ATLD58VQ,374TNBHA8FBLJAF6GZGEDHVARDYQYW,6,5
68,2,object_03,object_02,837.60000002384,3,2,682.69999998808,0.7777777777777778,1,object_08,5,606,0,7,7,forest_5,2,memory-2step-stake-s,556,1420943,0.0-19.0-0.0-0.68,AB60ITQGDVHF0,3DW3BNF1HKYVNTMBZS7SV7ATLD58VQ,374TNBHA8FBLJAF6GZGEDHVARDYQYW,4,3
69,4,object_09,object_10,750.0,7,1,499.60000002384,1.0,1,object_08,1,615,0,9,6,restaurant_7,2,memory-2step-stake-s,557,1429614,0.0-19.0-0.0-0.69,AB60ITQGDVHF0,3DW3BNF1HKYVNTMBZS7SV7ATLD58VQ,374TNBHA8FBLJAF6GZGEDHVARDYQYW,7,8
70,3,object_06,object_04,848.5,5,2,630.19999998808,0.8888888888888888,1,object_08,5,655,0,8,6,library_1,2,memory-2step-stake-s,558,1438332,0.0-19.0-0.0-0.70,AB60ITQGDVHF0,3DW3BNF1HKYVNTMBZS7SV7ATLD58VQ,374TNBHA8FBLJAF6GZGEDHVARDYQYW,6,5
71,4,object_10,object_09,902.69999998808,7,2,471.39999997616,0.8888888888888888,1,object_08,5,695,0,8,1,restaurant_7,2,memory-2step-stake-s,559,1446896,0.0-19.0-0.0-0.71,AB60ITQGDVHF0,3DW3BNF1HKYVNTMBZS7SV7ATLD58VQ,374TNBHA8FBLJAF6GZGEDHVARDYQYW,8,7
72,2,object_02,object_03,955.19999998808,3,1,452.59999996424,1.0,1,object_08,5,740,0,9,2,forest_6,2,memory-2step-stake-s,560,1455545,0.0-19.0-0.0-0.72,AB60ITQGDVHF0,3DW3BNF1HKYVNTMBZS7SV7ATLD58VQ,374TNBHA8FBLJAF6GZGEDHVARDYQYW,3,4
73,4,object_09,object_10,644.5,7,1,378.0,0.8888888888888888,1,object_08,1,748,0,8,1,restaurant_2,2,memory-2step-stake-s,561,1463970,0.0-19.0-0.0-0.73,AB60ITQGDVHF0,3DW3BNF1HKYVNTMBZS7SV7ATLD58VQ,374TNBHA8FBLJAF6GZGEDHVARDYQYW,7,8
74,1,object_05,object_07,641.30000001192,1,1,402.29999995232,0.8888888888888888,1,object_08,5,788,0,8,1,desert_1,2,memory-2step-stake-s,562,1472418,0.0-19.0-0.0-0.74,AB60ITQGDVHF0,3DW3BNF1HKYVNTMBZS7SV7ATLD58VQ,374TNBHA8FBLJAF6GZGEDHVARDYQYW,1,2
75,2,object_03,object_02,832.0,3,2,422.39999997616,0.7777777777777778,1,object_08,5,823,0,7,2,forest_6,2,memory-2step-stake-s,563,1480780,0.0-19.0-0.0-0.75,AB60ITQGDVHF0,3DW3BNF1HKYVNTMBZS7SV7ATLD58VQ,374TNBHA8FBLJAF6GZGEDHVARDYQYW,4,3
76,2,object_03,object_02,727.69999998808,3,2,484.39999997616,0.3333333333333333,1,object_08,5,838,0,3,1,forest_5,2,memory-2step-stake-s,564,1488807,0.0-19.0-0.0-0.76,AB60ITQGDVHF0,3DW3BNF1HKYVNTMBZS7SV7ATLD58VQ,374TNBHA8FBLJAF6GZGEDHVARDYQYW,4,3
77,2,object_02,object_03,744.80000001192,3,1,470.5,0.6666666666666666,1,object_08,5,868,0,6,2,forest_6,2,memory-2step-stake-s,565,1497121,0.0-19.0-0.0-0.77,AB60ITQGDVHF0,3DW3BNF1HKYVNTMBZS7SV7ATLD58VQ,374TNBHA8FBLJAF6GZGEDHVARDYQYW,3,4
78,2,object_03,object_02,730.60000002384,3,2,416.70000004768,0.5555555555555556,1,object_08,5,893,0,5,1,forest_7,2,memory-2step-stake-s,566,1505291,0.0-19.0-0.0-0.78,AB60ITQGDVHF0,3DW3BNF1HKYVNTMBZS7SV7ATLD58VQ,374TNBHA8FBLJAF6GZGEDHVARDYQYW,4,3
79,3,object_06,object_04,693.80000001192,5,2,443.09999996424,0.4444444444444444,1,object_08,1,897,0,4,2,library_2,2,memory-2step-stake-s,567,1513371,0.0-19.0-0.0-0.79,AB60ITQGDVHF0,3DW3BNF1HKYVNTMBZS7SV7ATLD58VQ,374TNBHA8FBLJAF6GZGEDHVARDYQYW,6,5
80,3,object_06,object_04,886.10000002384,5,2,777.39999997616,0.5555555555555556,1,object_08,5,922,0,5,3,library_2,2,memory-2step-stake-s,568,1521895,0.0-19.0-0.0-0.80,AB60ITQGDVHF0,3DW3BNF1HKYVNTMBZS7SV7ATLD58VQ,374TNBHA8FBLJAF6GZGEDHVARDYQYW,6,5
81,3,object_04,object_06,1038.2999999523,5,1,696.5,0.7777777777777778,1,object_08,1,929,0,7,5,library_1,2,memory-2step-stake-s,569,1530538,0.0-19.0-0.0-0.81,AB60ITQGDVHF0,3DW3BNF1HKYVNTMBZS7SV7ATLD58VQ,374TNBHA8FBLJAF6GZGEDHVARDYQYW,5,6
82,2,object_03,object_02,746.0,3,2,784.39999997616,0.7777777777777778,1,object_08,5,964,0,7,8,forest_7,2,memory-2step-stake-s,570,1539274,0.0-19.0-0.0-0.82,AB60ITQGDVHF0,3DW3BNF1HKYVNTMBZS7SV7ATLD58VQ,374TNBHA8FBLJAF6GZGEDHVARDYQYW,4,3
83,3,object_04,object_06,732.89999997616,5,1,676.20000004768,0.8888888888888888,1,object_08,1,972,0,8,9,library_2,2,memory-2step-stake-s,571,1548004,0.0-19.0-0.0-0.83,AB60ITQGDVHF0,3DW3BNF1HKYVNTMBZS7SV7ATLD58VQ,374TNBHA8FBLJAF6GZGEDHVARDYQYW,5,6
84,2,object_03,object_02,724.60000002384,3,2,529.29999995232,0.3333333333333333,1,object_08,1,975,0,3,6,forest_5,2,memory-2step-stake-s,572,1556073,0.0-19.0-0.0-0.84,AB60ITQGDVHF0,3DW3BNF1HKYVNTMBZS7SV7ATLD58VQ,374TNBHA8FBLJAF6GZGEDHVARDYQYW,4,3
85,3,object_06,object_04,923.0,5,2,458.89999997616,0.2222222222222222,1,object_08,1,977,0,2,6,library_8,2,memory-2step-stake-s,573,1563977,0.0-19.0-0.0-0.85,AB60ITQGDVHF0,3DW3BNF1HKYVNTMBZS7SV7ATLD58VQ,374TNBHA8FBLJAF6GZGEDHVARDYQYW,6,5
86,1,object_05,object_07,908.40000003576,1,1,565.39999997616,0.4444444444444444,1,object_08,1,981,0,4,6,desert_8,2,memory-2step-stake-s,574,1572185,0.0-19.0-0.0-0.86,AB60ITQGDVHF0,3DW3BNF1HKYVNTMBZS7SV7ATLD58VQ,374TNBHA8FBLJAF6GZGEDHVARDYQYW,1,2
87,3,object_06,object_04,850.90000003576,5,2,740.89999997616,0.3333333333333333,1,object_08,1,984,0,3,5,library_1,2,memory-2step-stake-s,575,1580473,0.0-19.0-0.0-0.87,AB60ITQGDVHF0,3DW3BNF1HKYVNTMBZS7SV7ATLD58VQ,374TNBHA8FBLJAF6GZGEDHVARDYQYW,6,5
88,1,object_07,object_05,740.19999998808,1,2,415.89999997616,0.3333333333333333,1,object_08,5,999,0,3,5,desert_7,2,memory-2step-stake-s,576,1588435,0.0-19.0-0.0-0.88,AB60ITQGDVHF0,3DW3BNF1HKYVNTMBZS7SV7ATLD58VQ,374TNBHA8FBLJAF6GZGEDHVARDYQYW,2,1
89,2,object_03,object_02,680.09999996424,3,2,549.90000003576,0.3333333333333333,1,object_08,5,1014,0,3,5,forest_4,2,memory-2step-stake-s,577,1596525,0.0-19.0-0.0-0.89,AB60ITQGDVHF0,3DW3BNF1HKYVNTMBZS7SV7ATLD58VQ,374TNBHA8FBLJAF6GZGEDHVARDYQYW,4,3
90,2,object_02,object_03,800.70000004768,3,1,817.30000001192,0.1111111111111111,1,object_08,5,1019,0,1,7,forest_5,2,memory-2step-stake-s,578,1604687,0.0-19.0-0.0-0.90,AB60ITQGDVHF0,3DW3BNF1HKYVNTMBZS7SV7ATLD58VQ,374TNBHA8FBLJAF6GZGEDHVARDYQYW,3,4
91,4,object_10,object_09,913.0,7,2,508.5,0.2222222222222222,1,object_08,1,1021,0,2,7,restaurant_2,2,memory-2step-stake-s,579,1612639,0.0-19.0-0.0-0.91,AB60ITQGDVHF0,3DW3BNF1HKYVNTMBZS7SV7ATLD58VQ,374TNBHA8FBLJAF6GZGEDHVARDYQYW,8,7
92,3,object_04,object_06,969.30000001192,6,2,522.0,0.6666666666666666,2,object_01,1,1027,0,2,6,library_6,2,memory-2step-stake-s,580,1621018,0.0-19.0-0.0-0.92,AB60ITQGDVHF0,3DW3BNF1HKYVNTMBZS7SV7ATLD58VQ,374TNBHA8FBLJAF6GZGEDHVARDYQYW,5,6
93,4,object_10,object_09,704.5,8,1,491.10000002384,0.7777777777777778,2,object_01,1,1034,0,3,7,restaurant_2,2,memory-2step-stake-s,581,1629464,0.0-19.0-0.0-0.93,AB60ITQGDVHF0,3DW3BNF1HKYVNTMBZS7SV7ATLD58VQ,374TNBHA8FBLJAF6GZGEDHVARDYQYW,8,7
94,2,object_03,object_02,874.0,4,1,553.59999996424,0.8888888888888888,2,object_01,5,1074,0,4,8,forest_4,2,memory-2step-stake-s,582,1638068,0.0-19.0-0.0-0.94,AB60ITQGDVHF0,3DW3BNF1HKYVNTMBZS7SV7ATLD58VQ,374TNBHA8FBLJAF6GZGEDHVARDYQYW,4,3
95,4,object_09,object_10,741.19999998808,8,2,507.39999997616,1.0,2,object_01,1,1083,0,1,9,restaurant_2,2,memory-2step-stake-s,583,1646725,0.0-19.0-0.0-0.95,AB60ITQGDVHF0,3DW3BNF1HKYVNTMBZS7SV7ATLD58VQ,374TNBHA8FBLJAF6GZGEDHVARDYQYW,7,8
96,3,object_06,object_04,949.59999996424,6,1,708.30000001192,0.8888888888888888,2,object_01,1,1091,0,0,8,library_2,2,memory-2step-stake-s,584,1655494,0.0-19.0-0.0-0.96,AB60ITQGDVHF0,3DW3BNF1HKYVNTMBZS7SV7ATLD58VQ,374TNBHA8FBLJAF6GZGEDHVARDYQYW,6,5
97,3,object_04,object_06,855.19999998808,6,2,592.59999996424,0.8888888888888888,2,object_01,1,1099,0,1,8,library_8,2,memory-2step-stake-s,585,1664139,0.0-19.0-0.0-0.97,AB60ITQGDVHF0,3DW3BNF1HKYVNTMBZS7SV7ATLD58VQ,374TNBHA8FBLJAF6GZGEDHVARDYQYW,5,6
98,3,object_06,object_04,1002.3999999762,6,1,588.90000003576,0.8888888888888888,2,object_01,1,1107,0,1,8,library_2,2,memory-2step-stake-s,586,1672785,0.0-19.0-0.0-0.98,AB60ITQGDVHF0,3DW3BNF1HKYVNTMBZS7SV7ATLD58VQ,374TNBHA8FBLJAF6GZGEDHVARDYQYW,6,5
99,1,object_07,object_05,1164.5,2,1,186.10000002384,0.4444444444444444,2,object_01,5,1127,0,2,4,desert_1,2,memory-2step-stake-s,587,1680630,0.0-19.0-0.0-0.99,AB60ITQGDVHF0,3DW3BNF1HKYVNTMBZS7SV7ATLD58VQ,374TNBHA8FBLJAF6GZGEDHVARDYQYW,2,1
100,2,object_03,object_02,813.30000001192,4,1,650.0,0.3333333333333333,2,object_01,5,1142,0,0,3,forest_4,2,memory-2step-stake-s,588,1688822,0.0-19.0-0.0-0.100,AB60ITQGDVHF0,3DW3BNF1HKYVNTMBZS7SV7ATLD58VQ,374TNBHA8FBLJAF6GZGEDHVARDYQYW,4,3
101,1,object_07,object_05,890.80000001192,2,1,530.69999998808,0.4444444444444444,2,object_01,5,1162,0,1,4,desert_1,2,memory-2step-stake-s,589,1697008,0.0-19.0-0.0-0.101,AB60ITQGDVHF0,3DW3BNF1HKYVNTMBZS7SV7ATLD58VQ,374TNBHA8FBLJAF6GZGEDHVARDYQYW,2,1
102,1,object_05,object_07,961.10000002384,2,2,764.89999997616,0.4444444444444444,2,object_01,1,1166,0,3,4,desert_4,2,memory-2step-stake-s,590,1705419,0.0-19.0-0.0-0.102,AB60ITQGDVHF0,3DW3BNF1HKYVNTMBZS7SV7ATLD58VQ,374TNBHA8FBLJAF6GZGEDHVARDYQYW,1,2
103,1,object_07,object_05,713.09999996424,2,1,841.29999995232,0.8888888888888888,2,object_01,5,1206,0,5,8,desert_1,2,memory-2step-stake-s,591,1714314,0.0-19.0-0.0-0.103,AB60ITQGDVHF0,3DW3BNF1HKYVNTMBZS7SV7ATLD58VQ,374TNBHA8FBLJAF6GZGEDHVARDYQYW,2,1
104,3,object_04,object_06,777.60000002384,6,2,767.80000001192,0.7777777777777778,2,object_01,5,1241,0,5,7,library_1,2,memory-2step-stake-s,592,1723045,0.0-19.0-0.0-0.104,AB60ITQGDVHF0,3DW3BNF1HKYVNTMBZS7SV7ATLD58VQ,374TNBHA8FBLJAF6GZGEDHVARDYQYW,5,6
105,2,object_03,object_02,1242.8000000119,4,1,685.10000002384,0.6666666666666666,2,object_01,5,1271,0,5,6,forest_5,2,memory-2step-stake-s,593,1731583,0.0-19.0-0.0-0.105,AB60ITQGDVHF0,3DW3BNF1HKYVNTMBZS7SV7ATLD58VQ,374TNBHA8FBLJAF6GZGEDHVARDYQYW,4,3
106,4,object_09,object_10,769.60000002384,8,2,-1.0,0.0,2,object_01,1,1271,0,5,6,restaurant_6,2,memory-2step-stake-s,594,1740122,0.0-19.0-0.0-0.106,AB60ITQGDVHF0,3DW3BNF1HKYVNTMBZS7SV7ATLD58VQ,374TNBHA8FBLJAF6GZGEDHVARDYQYW,7,8
107,4,object_09,object_10,884.0,8,2,725.09999996424,0.1111111111111111,2,object_01,1,1272,0,8,1,restaurant_2,2,memory-2step-stake-s,595,1748191,0.0-19.0-0.0-0.107,AB60ITQGDVHF0,3DW3BNF1HKYVNTMBZS7SV7ATLD58VQ,374TNBHA8FBLJAF6GZGEDHVARDYQYW,7,8
108,4,object_09,object_10,805.30000001192,8,2,604.89999997616,0.6666666666666666,2,object_01,1,1278,0,6,6,restaurant_5,2,memory-2step-stake-s,596,1756649,0.0-19.0-0.0-0.108,AB60ITQGDVHF0,3DW3BNF1HKYVNTMBZS7SV7ATLD58VQ,374TNBHA8FBLJAF6GZGEDHVARDYQYW,7,8
109,1,object_05,object_07,737.80000001192,2,2,591.59999996424,0.6666666666666666,2,object_01,5,1308,0,7,6,desert_8,2,memory-2step-stake-s,597,1765102,0.0-19.0-0.0-0.109,AB60ITQGDVHF0,3DW3BNF1HKYVNTMBZS7SV7ATLD58VQ,374TNBHA8FBLJAF6GZGEDHVARDYQYW,1,2
110,2,object_02,object_03,924.0,4,2,881.59999996424,0.6666666666666666,2,object_01,5,1338,0,4,6,forest_6,2,memory-2step-stake-s,598,1773847,0.0-19.0-0.0-0.110,AB60ITQGDVHF0,3DW3BNF1HKYVNTMBZS7SV7ATLD58VQ,374TNBHA8FBLJAF6GZGEDHVARDYQYW,3,4
111,4,object_09,object_10,839.19999998808,8,2,485.0,0.7777777777777778,2,object_01,1,1345,0,5,7,restaurant_6,2,memory-2step-stake-s,599,1782291,0.0-19.0-0.0-0.111,AB60ITQGDVHF0,3DW3BNF1HKYVNTMBZS7SV7ATLD58VQ,374TNBHA8FBLJAF6GZGEDHVARDYQYW,7,8
112,2,object_02,object_03,638.09999996424,4,2,522.5,0.6666666666666666,2,object_01,5,1375,0,4,6,forest_6,2,memory-2step-stake-s,600,1790680,0.0-19.0-0.0-0.112,AB60ITQGDVHF0,3DW3BNF1HKYVNTMBZS7SV7ATLD58VQ,374TNBHA8FBLJAF6GZGEDHVARDYQYW,3,4
113,4,object_09,object_10,671.39999997616,8,2,588.39999997616,0.4444444444444444,2,object_01,5,1395,0,5,4,restaurant_6,2,memory-2step-stake-s,601,1798925,0.0-19.0-0.0-0.113,AB60ITQGDVHF0,3DW3BNF1HKYVNTMBZS7SV7ATLD58VQ,374TNBHA8FBLJAF6GZGEDHVARDYQYW,7,8
114,2,object_02,object_03,578.5,4,2,508.0,0.3333333333333333,2,object_01,1,1398,0,3,3,forest_4,2,memory-2step-stake-s,602,1806979,0.0-19.0-0.0-0.114,AB60ITQGDVHF0,3DW3BNF1HKYVNTMBZS7SV7ATLD58VQ,374TNBHA8FBLJAF6GZGEDHVARDYQYW,3,4
115,3,object_04,object_06,743.40000003576,6,2,502.5,0.3333333333333333,2,object_01,1,1401,0,3,3,library_1,2,memory-2step-stake-s,603,1815037,0.0-19.0-0.0-0.115,AB60ITQGDVHF0,3DW3BNF1HKYVNTMBZS7SV7ATLD58VQ,374TNBHA8FBLJAF6GZGEDHVARDYQYW,5,6
116,2,object_03,object_02,639.5,4,1,547.0,0.2222222222222222,2,object_01,5,1411,0,0,2,forest_4,2,memory-2step-stake-s,604,1823026,0.0-19.0-0.0-0.116,AB60ITQGDVHF0,3DW3BNF1HKYVNTMBZS7SV7ATLD58VQ,374TNBHA8FBLJAF6GZGEDHVARDYQYW,4,3
117,2,object_02,object_03,775.30000001192,3,1,398.89999997616,0.4444444444444444,1,object_08,5,1431,0,4,2,forest_6,2,memory-2step-stake-s,605,1831074,0.0-19.0-0.0-0.117,AB60ITQGDVHF0,3DW3BNF1HKYVNTMBZS7SV7ATLD58VQ,374TNBHA8FBLJAF6GZGEDHVARDYQYW,3,4
118,2,object_02,object_03,853.19999998808,3,1,538.5,0.2222222222222222,1,object_08,1,1433,0,2,8,forest_7,2,memory-2step-stake-s,606,1839058,0.0-19.0-0.0-0.118,AB60ITQGDVHF0,3DW3BNF1HKYVNTMBZS7SV7ATLD58VQ,374TNBHA8FBLJAF6GZGEDHVARDYQYW,3,4
119,3,object_04,object_06,720.59999996424,5,1,440.0,0.5555555555555556,1,object_08,1,1438,0,5,5,library_6,2,memory-2step-stake-s,607,1847260,0.0-19.0-0.0-0.119,AB60ITQGDVHF0,3DW3BNF1HKYVNTMBZS7SV7ATLD58VQ,374TNBHA8FBLJAF6GZGEDHVARDYQYW,5,6
120,4,object_09,object_10,1380.6000000238,7,1,461.10000002384,0.5555555555555556,1,object_08,1,1443,0,5,4,restaurant_7,2,memory-2step-stake-s,608,1855484,0.0-19.0-0.0-0.120,AB60ITQGDVHF0,3DW3BNF1HKYVNTMBZS7SV7ATLD58VQ,374TNBHA8FBLJAF6GZGEDHVARDYQYW,7,8
121,1,object_07,object_05,1077.9000000358,1,2,492.5,0.0,1,object_08,1,1443,0,0,5,desert_8,2,memory-2step-stake-s,609,1863217,0.0-19.0-0.0-0.121,AB60ITQGDVHF0,3DW3BNF1HKYVNTMBZS7SV7ATLD58VQ,374TNBHA8FBLJAF6GZGEDHVARDYQYW,2,1
122,3,object_06,object_04,865.40000003576,5,2,446.09999996424,0.7777777777777778,1,object_08,1,1450,0,7,6,library_6,2,memory-2step-stake-s,610,1871643,0.0-19.0-0.0-0.122,AB60ITQGDVHF0,3DW3BNF1HKYVNTMBZS7SV7ATLD58VQ,374TNBHA8FBLJAF6GZGEDHVARDYQYW,6,5
123,1,object_05,object_07,888.89999997616,1,1,432.0,1.0,1,object_08,1,1459,0,9,3,desert_4,2,memory-2step-stake-s,611,1880246,0.0-19.0-0.0-0.123,AB60ITQGDVHF0,3DW3BNF1HKYVNTMBZS7SV7ATLD58VQ,374TNBHA8FBLJAF6GZGEDHVARDYQYW,1,2
124,1,object_07,object_05,828.09999996424,1,2,420.69999998808,0.7777777777777778,1,object_08,5,1494,0,7,2,desert_1,2,memory-2step-stake-s,612,1888646,0.0-19.0-0.0-0.124,AB60ITQGDVHF0,3DW3BNF1HKYVNTMBZS7SV7ATLD58VQ,374TNBHA8FBLJAF6GZGEDHVARDYQYW,2,1
125,4,object_09,object_10,562.39999997616,7,1,444.5,1.0,1,object_08,5,1539,0,9,4,restaurant_2,2,memory-2step-stake-s,613,1897280,0.0-19.0-0.0-0.125,AB60ITQGDVHF0,3DW3BNF1HKYVNTMBZS7SV7ATLD58VQ,374TNBHA8FBLJAF6GZGEDHVARDYQYW,7,8
126,1,object_05,object_07,770.0,1,1,462.90000003576,1.0,1,object_08,5,1584,0,9,4,desert_8,2,memory-2step-stake-s,614,1905932,0.0-19.0-0.0-0.126,AB60ITQGDVHF0,3DW3BNF1HKYVNTMBZS7SV7ATLD58VQ,374TNBHA8FBLJAF6GZGEDHVARDYQYW,1,2
127,4,object_10,object_09,686.80000001192,7,2,690.69999998808,0.8888888888888888,1,object_08,1,1592,0,8,2,restaurant_6,2,memory-2step-stake-s,615,1914677,0.0-19.0-0.0-0.127,AB60ITQGDVHF0,3DW3BNF1HKYVNTMBZS7SV7ATLD58VQ,374TNBHA8FBLJAF6GZGEDHVARDYQYW,8,7
128,4,object_10,object_09,1019.7999999523,7,2,513.20000004768,0.8888888888888888,1,object_08,5,1632,0,8,3,restaurant_6,2,memory-2step-stake-s,617,1941727,0.0-19.0-0.1-0.128,AB60ITQGDVHF0,3DW3BNF1HKYVNTMBZS7SV7ATLD58VQ,374TNBHA8FBLJAF6GZGEDHVARDYQYW,8,7
129,1,object_05,object_07,1352.5,1,1,443.19999998808,0.8888888888888888,1,object_08,5,1672,0,8,0,desert_4,2,memory-2step-stake-s,618,1950212,0.0-19.0-0.1-0.129,AB60ITQGDVHF0,3DW3BNF1HKYVNTMBZS7SV7ATLD58VQ,374TNBHA8FBLJAF6GZGEDHVARDYQYW,1,2
130,2,object_02,object_03,896.59999996424,3,1,434.5,1.0,1,object_08,1,1681,0,9,6,forest_7,2,memory-2step-stake-s,619,1958793,0.0-19.0-0.1-0.130,AB60ITQGDVHF0,3DW3BNF1HKYVNTMBZS7SV7ATLD58VQ,374TNBHA8FBLJAF6GZGEDHVARDYQYW,3,4
131,1,object_07,object_05,691.69999998808,1,2,616.69999998808,0.7777777777777778,1,object_08,1,1688,0,7,5,desert_1,2,memory-2step-stake-s,620,1967364,0.0-19.0-0.1-0.131,AB60ITQGDVHF0,3DW3BNF1HKYVNTMBZS7SV7ATLD58VQ,374TNBHA8FBLJAF6GZGEDHVARDYQYW,2,1
132,4,object_10,object_09,668.0,7,2,447.19999998808,0.7777777777777778,1,object_08,5,1723,0,7,1,restaurant_6,2,memory-2step-stake-s,621,1975758,0.0-19.0-0.1-0.132,AB60ITQGDVHF0,3DW3BNF1HKYVNTMBZS7SV7ATLD58VQ,374TNBHA8FBLJAF6GZGEDHVARDYQYW,8,7
133,2,object_02,object_03,725.19999998808,3,1,584.30000001192,0.6666666666666666,1,object_08,5,1753,0,6,2,forest_6,2,memory-2step-stake-s,622,1984193,0.0-19.0-0.1-0.133,AB60ITQGDVHF0,3DW3BNF1HKYVNTMBZS7SV7ATLD58VQ,374TNBHA8FBLJAF6GZGEDHVARDYQYW,3,4
134,3,object_06,object_04,697.69999998808,5,2,397.10000002384,0.7777777777777778,1,object_08,1,1760,0,7,4,library_1,2,memory-2step-stake-s,623,1992536,0.0-19.0-0.1-0.134,AB60ITQGDVHF0,3DW3BNF1HKYVNTMBZS7SV7ATLD58VQ,374TNBHA8FBLJAF6GZGEDHVARDYQYW,6,5
135,4,object_10,object_09,1209.6999999881,7,2,409.60000002384,0.7777777777777778,1,object_08,5,1795,0,7,1,restaurant_2,2,memory-2step-stake-s,624,2000899,0.0-19.0-0.1-0.135,AB60ITQGDVHF0,3DW3BNF1HKYVNTMBZS7SV7ATLD58VQ,374TNBHA8FBLJAF6GZGEDHVARDYQYW,8,7
136,3,object_04,object_06,734.69999998808,5,1,450.19999998808,0.4444444444444444,1,object_08,1,1799,0,4,4,library_2,2,memory-2step-stake-s,625,2008992,0.0-19.0-0.1-0.136,AB60ITQGDVHF0,3DW3BNF1HKYVNTMBZS7SV7ATLD58VQ,374TNBHA8FBLJAF6GZGEDHVARDYQYW,5,6
137,3,object_06,object_04,689.19999998808,5,2,400.60000002384,0.3333333333333333,1,object_08,1,1802,0,3,2,library_1,2,memory-2step-stake-s,626,2016930,0.0-19.0-0.1-0.137,AB60ITQGDVHF0,3DW3BNF1HKYVNTMBZS7SV7ATLD58VQ,374TNBHA8FBLJAF6GZGEDHVARDYQYW,6,5
138,3,object_04,object_06,821.09999996424,6,2,461.60000002384,0.0,2,object_01,1,1802,0,1,0,library_1,2,memory-2step-stake-s,627,2024631,0.0-19.0-0.1-0.138,AB60ITQGDVHF0,3DW3BNF1HKYVNTMBZS7SV7ATLD58VQ,374TNBHA8FBLJAF6GZGEDHVARDYQYW,5,6
139,3,object_04,object_06,1232.0,5,1,485.10000002384,0.0,1,object_08,1,1802,0,0,3,library_2,2,memory-2step-stake-s,628,2032349,0.0-19.0-0.1-0.139,AB60ITQGDVHF0,3DW3BNF1HKYVNTMBZS7SV7ATLD58VQ,374TNBHA8FBLJAF6GZGEDHVARDYQYW,5,6
140,2,object_02,object_03,1040.8000000119,4,2,626.69999998808,0.2222222222222222,2,object_01,5,1812,0,1,2,forest_6,2,memory-2step-stake-s,629,2040423,0.0-19.0-0.1-0.140,AB60ITQGDVHF0,3DW3BNF1HKYVNTMBZS7SV7ATLD58VQ,374TNBHA8FBLJAF6GZGEDHVARDYQYW,3,4
141,1,object_05,object_07,794.19999998808,2,2,567.19999998808,0.0,2,object_01,1,1812,0,1,0,desert_8,2,memory-2step-stake-s,630,2048221,0.0-19.0-0.1-0.141,AB60ITQGDVHF0,3DW3BNF1HKYVNTMBZS7SV7ATLD58VQ,374TNBHA8FBLJAF6GZGEDHVARDYQYW,1,2
142,2,object_02,object_03,635.30000001192,4,2,576.5,0.0,2,object_01,5,1812,0,0,0,forest_6,2,memory-2step-stake-s,631,2056033,0.0-19.0-0.1-0.142,AB60ITQGDVHF0,3DW3BNF1HKYVNTMBZS7SV7ATLD58VQ,374TNBHA8FBLJAF6GZGEDHVARDYQYW,3,4
143,4,object_10,object_09,749.10000002384,7,2,545.19999998808,0.1111111111111111,1,object_08,5,1817,0,1,2,restaurant_2,2,memory-2step-stake-s,632,2063910,0.0-19.0-0.1-0.143,AB60ITQGDVHF0,3DW3BNF1HKYVNTMBZS7SV7ATLD58VQ,374TNBHA8FBLJAF6GZGEDHVARDYQYW,8,7
144,1,object_07,object_05,1203.6000000238,1,2,869.19999998808,0.3333333333333333,1,object_08,5,1832,0,3,7,desert_4,2,memory-2step-stake-s,633,2072326,0.0-19.0-0.1-0.144,AB60ITQGDVHF0,3DW3BNF1HKYVNTMBZS7SV7ATLD58VQ,374TNBHA8FBLJAF6GZGEDHVARDYQYW,2,1
145,2,object_02,object_03,801.89999997616,3,1,476.60000002384,0.5555555555555556,1,object_08,5,1857,0,5,6,forest_5,2,memory-2step-stake-s,634,2080553,0.0-19.0-0.1-0.145,AB60ITQGDVHF0,3DW3BNF1HKYVNTMBZS7SV7ATLD58VQ,374TNBHA8FBLJAF6GZGEDHVARDYQYW,3,4
146,1,object_05,object_07,874.10000002384,2,2,522.60000002384,0.6666666666666666,2,object_01,5,1887,0,8,6,desert_7,2,memory-2step-stake-s,635,2088928,0.0-19.0-0.1-0.146,AB60ITQGDVHF0,3DW3BNF1HKYVNTMBZS7SV7ATLD58VQ,374TNBHA8FBLJAF6GZGEDHVARDYQYW,1,2
147,2,object_02,object_03,649.69999998808,3,1,457.60000002384,0.7777777777777778,1,object_08,5,1922,0,7,4,forest_7,2,memory-2step-stake-s,636,2097338,0.0-19.0-0.1-0.147,AB60ITQGDVHF0,3DW3BNF1HKYVNTMBZS7SV7ATLD58VQ,374TNBHA8FBLJAF6GZGEDHVARDYQYW,3,4
148,1,object_07,object_05,1034.1999999881,1,2,451.5,0.6666666666666666,1,object_08,5,1952,0,6,5,desert_1,2,memory-2step-stake-s,637,2105637,0.0-19.0-0.1-0.148,AB60ITQGDVHF0,3DW3BNF1HKYVNTMBZS7SV7ATLD58VQ,374TNBHA8FBLJAF6GZGEDHVARDYQYW,2,1
149,2,object_02,object_03,727.0,3,1,422.10000002384,0.5555555555555556,1,object_08,5,1977,0,5,4,forest_6,2,memory-2step-stake-s,638,2113802,0.0-19.0-0.1-0.149,AB60ITQGDVHF0,3DW3BNF1HKYVNTMBZS7SV7ATLD58VQ,374TNBHA8FBLJAF6GZGEDHVARDYQYW,3,4
150,3,object_06,object_04,1205.1000000238,5,2,194.89999997616,0.5555555555555556,1,object_08,1,1982,0,5,5,library_8,2,memory-2step-stake-s,639,2121749,0.0-19.0-0.1-0.150,AB60ITQGDVHF0,3DW3BNF1HKYVNTMBZS7SV7ATLD58VQ,374TNBHA8FBLJAF6GZGEDHVARDYQYW,6,5
151,1,object_05,object_07,579.10000002384,1,1,459.20000004768,0.5555555555555556,1,object_08,5,2007,0,5,3,desert_1,2,memory-2step-stake-s,640,2129951,0.0-19.0-0.1-0.151,AB60ITQGDVHF0,3DW3BNF1HKYVNTMBZS7SV7ATLD58VQ,374TNBHA8FBLJAF6GZGEDHVARDYQYW,1,2
152,3,object_06,object_04,855.10000002384,6,1,99.300000011921,0.3333333333333333,2,object_01,5,2022,0,8,3,library_2,2,memory-2step-stake-s,641,2137603,0.0-19.0-0.1-0.152,AB60ITQGDVHF0,3DW3BNF1HKYVNTMBZS7SV7ATLD58VQ,374TNBHA8FBLJAF6GZGEDHVARDYQYW,6,5
153,3,object_04,object_06,619.19999998808,5,1,491.89999997616,0.8888888888888888,1,object_08,1,2030,0,8,3,library_8,2,memory-2step-stake-s,642,2146153,0.0-19.0-0.1-0.153,AB60ITQGDVHF0,3DW3BNF1HKYVNTMBZS7SV7ATLD58VQ,374TNBHA8FBLJAF6GZGEDHVARDYQYW,5,6
154,2,object_03,object_02,899.90000003576,4,1,854.19999998808,0.5555555555555556,2,object_01,5,2055,0,7,5,forest_6,2,memory-2step-stake-s,643,2154761,0.0-19.0-0.1-0.154,AB60ITQGDVHF0,3DW3BNF1HKYVNTMBZS7SV7ATLD58VQ,374TNBHA8FBLJAF6GZGEDHVARDYQYW,4,3
155,3,object_06,object_04,560.30000001192,6,1,461.89999997616,0.7777777777777778,2,object_01,1,2062,0,6,7,library_6,2,memory-2step-stake-s,644,2163182,0.0-19.0-0.1-0.155,AB60ITQGDVHF0,3DW3BNF1HKYVNTMBZS7SV7ATLD58VQ,374TNBHA8FBLJAF6GZGEDHVARDYQYW,6,5
156,1,object_07,object_05,1495.1999999881,2,1,626.5,0.7777777777777778,2,object_01,1,2069,0,3,7,desert_4,2,memory-2step-stake-s,645,2171756,0.0-19.0-0.1-0.156,AB60ITQGDVHF0,3DW3BNF1HKYVNTMBZS7SV7ATLD58VQ,374TNBHA8FBLJAF6GZGEDHVARDYQYW,2,1
157,2,object_03,object_02,951.90000003576,4,1,465.09999996424,0.8888888888888888,2,object_01,5,2109,0,1,8,forest_5,2,memory-2step-stake-s,646,2180275,0.0-19.0-0.1-0.157,AB60ITQGDVHF0,3DW3BNF1HKYVNTMBZS7SV7ATLD58VQ,374TNBHA8FBLJAF6GZGEDHVARDYQYW,4,3
158,4,object_09,object_10,817.5,8,2,415.19999998808,0.8888888888888888,2,object_01,1,2117,0,2,8,restaurant_7,2,memory-2step-stake-s,647,2188744,0.0-19.0-0.1-0.158,AB60ITQGDVHF0,3DW3BNF1HKYVNTMBZS7SV7ATLD58VQ,374TNBHA8FBLJAF6GZGEDHVARDYQYW,7,8
159,4,object_09,object_10,781.19999998808,8,2,463.10000002384,1.0,2,object_01,1,2126,0,1,9,restaurant_7,2,memory-2step-stake-s,648,2197384,0.0-19.0-0.1-0.159,AB60ITQGDVHF0,3DW3BNF1HKYVNTMBZS7SV7ATLD58VQ,374TNBHA8FBLJAF6GZGEDHVARDYQYW,7,8
160,2,object_03,object_02,627.60000002384,4,1,435.20000004768,1.0,2,object_01,5,2171,0,1,9,forest_4,2,memory-2step-stake-s,649,2205992,0.0-19.0-0.1-0.160,AB60ITQGDVHF0,3DW3BNF1HKYVNTMBZS7SV7ATLD58VQ,374TNBHA8FBLJAF6GZGEDHVARDYQYW,4,3
161,2,object_03,object_02,777.80000001192,4,1,996.39999997616,1.0,2,object_01,5,2216,0,5,9,forest_7,2,memory-2step-stake-s,650,2215159,0.0-19.0-0.1-0.161,AB60ITQGDVHF0,3DW3BNF1HKYVNTMBZS7SV7ATLD58VQ,374TNBHA8FBLJAF6GZGEDHVARDYQYW,4,3
162,3,object_04,object_06,890.10000002384,6,2,452.59999996424,0.5555555555555556,2,object_01,1,2221,0,5,5,library_8,2,memory-2step-stake-s,651,2223362,0.0-19.0-0.1-0.162,AB60ITQGDVHF0,3DW3BNF1HKYVNTMBZS7SV7ATLD58VQ,374TNBHA8FBLJAF6GZGEDHVARDYQYW,5,6
163,1,object_07,object_05,1345.8000000119,2,1,547.10000002384,0.4444444444444444,2,object_01,5,2241,0,5,4,desert_4,2,memory-2step-stake-s,652,2231564,0.0-19.0-0.1-0.163,AB60ITQGDVHF0,3DW3BNF1HKYVNTMBZS7SV7ATLD58VQ,374TNBHA8FBLJAF6GZGEDHVARDYQYW,2,1
164,2,object_02,object_03,704.0,4,2,469.09999996424,0.2222222222222222,2,object_01,5,2251,0,6,2,forest_5,2,memory-2step-stake-s,653,2239479,0.0-19.0-0.1-0.164,AB60ITQGDVHF0,3DW3BNF1HKYVNTMBZS7SV7ATLD58VQ,374TNBHA8FBLJAF6GZGEDHVARDYQYW,3,4
165,3,object_04,object_06,834.10000002384,6,2,423.30000001192,0.3333333333333333,2,object_01,1,2254,0,5,3,library_1,2,memory-2step-stake-s,654,2247452,0.0-19.0-0.1-0.165,AB60ITQGDVHF0,3DW3BNF1HKYVNTMBZS7SV7ATLD58VQ,374TNBHA8FBLJAF6GZGEDHVARDYQYW,5,6
166,1,object_07,object_05,1001.1000000238,2,1,447.70000004768,0.5555555555555556,2,object_01,1,2259,0,6,5,desert_8,2,memory-2step-stake-s,655,2255654,0.0-19.0-0.1-0.166,AB60ITQGDVHF0,3DW3BNF1HKYVNTMBZS7SV7ATLD58VQ,374TNBHA8FBLJAF6GZGEDHVARDYQYW,2,1
167,1,object_07,object_05,531.5,2,1,466.60000002384,0.4444444444444444,2,object_01,5,2279,0,5,4,desert_7,2,memory-2step-stake-s,656,2263771,0.0-19.0-0.1-0.167,AB60ITQGDVHF0,3DW3BNF1HKYVNTMBZS7SV7ATLD58VQ,374TNBHA8FBLJAF6GZGEDHVARDYQYW,2,1
168,1,object_07,object_05,1189.8999999762,2,1,537.0,0.5555555555555556,2,object_01,5,2304,0,5,5,desert_8,2,memory-2step-stake-s,657,2272064,0.0-19.0-0.1-0.168,AB60ITQGDVHF0,3DW3BNF1HKYVNTMBZS7SV7ATLD58VQ,374TNBHA8FBLJAF6GZGEDHVARDYQYW,2,1
169,4,object_10,object_09,1072.2000000477,8,1,753.69999998808,0.3333333333333333,2,object_01,1,2307,0,7,3,restaurant_2,2,memory-2step-stake-s,658,2280379,0.0-19.0-0.1-0.169,AB60ITQGDVHF0,3DW3BNF1HKYVNTMBZS7SV7ATLD58VQ,374TNBHA8FBLJAF6GZGEDHVARDYQYW,8,7
170,1,object_05,object_07,1118.1000000238,2,2,519.80000001192,0.3333333333333333,2,object_01,5,2322,0,7,3,desert_7,2,memory-2step-stake-s,659,2288443,0.0-19.0-0.1-0.170,AB60ITQGDVHF0,3DW3BNF1HKYVNTMBZS7SV7ATLD58VQ,374TNBHA8FBLJAF6GZGEDHVARDYQYW,1,2
171,4,object_09,object_10,595.69999998808,8,2,580.19999998808,0.4444444444444444,2,object_01,1,2326,0,7,4,restaurant_5,2,memory-2step-stake-s,660,2296682,0.0-19.0-0.1-0.171,AB60ITQGDVHF0,3DW3BNF1HKYVNTMBZS7SV7ATLD58VQ,374TNBHA8FBLJAF6GZGEDHVARDYQYW,7,8
172,3,object_04,object_06,619.80000001192,5,1,401.80000001192,0.6666666666666666,1,object_08,1,2332,0,6,3,library_2,2,memory-2step-stake-s,661,2304949,0.0-19.0-0.1-0.172,AB60ITQGDVHF0,3DW3BNF1HKYVNTMBZS7SV7ATLD58VQ,374TNBHA8FBLJAF6GZGEDHVARDYQYW,5,6
173,4,object_09,object_10,625.20000004768,7,1,410.59999996424,0.5555555555555556,1,object_08,1,2337,0,5,2,restaurant_5,2,memory-2step-stake-s,662,2313114,0.0-19.0-0.1-0.173,AB60ITQGDVHF0,3DW3BNF1HKYVNTMBZS7SV7ATLD58VQ,374TNBHA8FBLJAF6GZGEDHVARDYQYW,7,8
174,1,object_07,object_05,675.5,1,2,414.10000002384,0.2222222222222222,1,object_08,1,2339,0,2,2,desert_7,2,memory-2step-stake-s,663,2320975,0.0-19.0-0.1-0.174,AB60ITQGDVHF0,3DW3BNF1HKYVNTMBZS7SV7ATLD58VQ,374TNBHA8FBLJAF6GZGEDHVARDYQYW,2,1
175,2,object_02,object_03,658.89999997616,3,1,408.60000002384,0.1111111111111111,1,object_08,5,2344,0,1,5,forest_4,2,memory-2step-stake-s,664,2328733,0.0-19.0-0.1-0.175,AB60ITQGDVHF0,3DW3BNF1HKYVNTMBZS7SV7ATLD58VQ,374TNBHA8FBLJAF6GZGEDHVARDYQYW,3,4
176,4,object_09,object_10,727.60000002384,7,1,421.90000003576,0.3333333333333333,1,object_08,1,2347,0,3,5,restaurant_7,2,memory-2step-stake-s,665,2336713,0.0-19.0-0.1-0.176,AB60ITQGDVHF0,3DW3BNF1HKYVNTMBZS7SV7ATLD58VQ,374TNBHA8FBLJAF6GZGEDHVARDYQYW,7,8
177,3,object_06,object_04,589.90000003576,5,2,546.39999997616,0.4444444444444444,1,object_08,1,2351,0,4,4,library_1,2,memory-2step-stake-s,666,2344916,0.0-19.0-0.1-0.177,AB60ITQGDVHF0,3DW3BNF1HKYVNTMBZS7SV7ATLD58VQ,374TNBHA8FBLJAF6GZGEDHVARDYQYW,6,5
178,1,object_05,object_07,944.19999998808,1,1,506.90000003576,0.2222222222222222,1,object_08,5,2361,0,2,5,desert_1,2,memory-2step-stake-s,667,2352869,0.0-19.0-0.1-0.178,AB60ITQGDVHF0,3DW3BNF1HKYVNTMBZS7SV7ATLD58VQ,374TNBHA8FBLJAF6GZGEDHVARDYQYW,1,2
179,2,object_03,object_02,707.80000001192,3,2,494.40000003576,0.3333333333333333,1,object_08,5,2376,0,3,4,forest_7,2,memory-2step-stake-s,668,2360905,0.0-19.0-0.1-0.179,AB60ITQGDVHF0,3DW3BNF1HKYVNTMBZS7SV7ATLD58VQ,374TNBHA8FBLJAF6GZGEDHVARDYQYW,4,3
180,4,object_09,object_10,646.5,7,1,384.5,0.3333333333333333,1,object_08,1,2379,0,3,4,restaurant_7,2,memory-2step-stake-s,669,2368846,0.0-19.0-0.1-0.180,AB60ITQGDVHF0,3DW3BNF1HKYVNTMBZS7SV7ATLD58VQ,374TNBHA8FBLJAF6GZGEDHVARDYQYW,7,8
181,2,object_02,object_03,641.10000002384,4,2,672.30000001192,0.4444444444444444,2,object_01,1,2383,0,2,4,forest_7,2,memory-2step-stake-s,670,2377176,0.0-19.0-0.1-0.181,AB60ITQGDVHF0,3DW3BNF1HKYVNTMBZS7SV7ATLD58VQ,374TNBHA8FBLJAF6GZGEDHVARDYQYW,3,4
182,3,object_06,object_04,689.60000002384,6,1,392.0,0.4444444444444444,2,object_01,1,2387,0,4,4,library_8,2,memory-2step-stake-s,671,2385232,0.0-19.0-0.1-0.182,AB60ITQGDVHF0,3DW3BNF1HKYVNTMBZS7SV7ATLD58VQ,374TNBHA8FBLJAF6GZGEDHVARDYQYW,6,5
183,1,object_05,object_07,631.80000001192,2,2,492.39999997616,0.6666666666666666,2,object_01,1,2393,0,4,6,desert_8,2,memory-2step-stake-s,672,2393576,0.0-19.0-0.1-0.183,AB60ITQGDVHF0,3DW3BNF1HKYVNTMBZS7SV7ATLD58VQ,374TNBHA8FBLJAF6GZGEDHVARDYQYW,1,2
184,2,object_02,object_03,595.19999998808,4,2,618.30000001192,0.5555555555555556,2,object_01,1,2398,0,5,5,forest_4,2,memory-2step-stake-s,673,2401938,0.0-19.0-0.1-0.184,AB60ITQGDVHF0,3DW3BNF1HKYVNTMBZS7SV7ATLD58VQ,374TNBHA8FBLJAF6GZGEDHVARDYQYW,3,4
185,4,object_09,object_10,807.5,8,2,532.0,0.6666666666666666,2,object_01,1,2404,0,4,6,restaurant_7,2,memory-2step-stake-s,674,2410317,0.0-19.0-0.1-0.185,AB60ITQGDVHF0,3DW3BNF1HKYVNTMBZS7SV7ATLD58VQ,374TNBHA8FBLJAF6GZGEDHVARDYQYW,7,8
186,2,object_02,object_03,1071.0999999642,4,2,476.59999996424,0.7777777777777778,2,object_01,1,2411,0,2,7,forest_5,2,memory-2step-stake-s,675,2418743,0.0-19.0-0.1-0.186,AB60ITQGDVHF0,3DW3BNF1HKYVNTMBZS7SV7ATLD58VQ,374TNBHA8FBLJAF6GZGEDHVARDYQYW,3,4
187,2,object_02,object_03,775.69999998808,4,2,623.69999998808,0.8888888888888888,2,object_01,1,2419,0,5,8,forest_5,2,memory-2step-stake-s,676,2427431,0.0-19.0-0.1-0.187,AB60ITQGDVHF0,3DW3BNF1HKYVNTMBZS7SV7ATLD58VQ,374TNBHA8FBLJAF6GZGEDHVARDYQYW,3,4
188,1,object_05,object_07,1001.3999999762,2,2,551.90000003576,1.0,2,object_01,5,2464,0,4,9,desert_4,2,memory-2step-stake-s,677,2436124,0.0-19.0-0.1-0.188,AB60ITQGDVHF0,3DW3BNF1HKYVNTMBZS7SV7ATLD58VQ,374TNBHA8FBLJAF6GZGEDHVARDYQYW,1,2
189,4,object_09,object_10,559.19999998808,8,2,594.40000003576,0.6666666666666666,2,object_01,1,2470,0,4,6,restaurant_6,2,memory-2step-stake-s,678,2444561,0.0-19.0-0.1-0.189,AB60ITQGDVHF0,3DW3BNF1HKYVNTMBZS7SV7ATLD58VQ,374TNBHA8FBLJAF6GZGEDHVARDYQYW,7,8
190,1,object_07,object_05,610.39999997616,2,1,671.90000003576,0.4444444444444444,2,object_01,5,2490,0,6,4,desert_7,2,memory-2step-stake-s,679,2452875,0.0-19.0-0.1-0.190,AB60ITQGDVHF0,3DW3BNF1HKYVNTMBZS7SV7ATLD58VQ,374TNBHA8FBLJAF6GZGEDHVARDYQYW,2,1
191,1,object_07,object_05,535.80000001192,2,1,684.39999997616,0.4444444444444444,2,object_01,5,2510,0,3,4,desert_1,2,memory-2step-stake-s,680,2461211,0.0-19.0-0.1-0.191,AB60ITQGDVHF0,3DW3BNF1HKYVNTMBZS7SV7ATLD58VQ,374TNBHA8FBLJAF6GZGEDHVARDYQYW,2,1
192,1,object_05,object_07,552.10000002384,2,2,383.40000003576,0.5555555555555556,2,object_01,1,2515,0,3,5,desert_4,2,memory-2step-stake-s,681,2469339,0.0-19.0-0.1-0.192,AB60ITQGDVHF0,3DW3BNF1HKYVNTMBZS7SV7ATLD58VQ,374TNBHA8FBLJAF6GZGEDHVARDYQYW,1,2
193,4,object_10,object_09,871.59999996424,8,1,518.30000001192,0.5555555555555556,2,object_01,1,2520,0,5,5,restaurant_5,2,memory-2step-stake-s,682,2477600,0.0-19.0-0.1-0.193,AB60ITQGDVHF0,3DW3BNF1HKYVNTMBZS7SV7ATLD58VQ,374TNBHA8FBLJAF6GZGEDHVARDYQYW,8,7
194,1,object_07,object_05,845.5,2,1,174.70000004768,0.7777777777777778,2,object_01,5,2555,0,0,7,desert_4,2,memory-2step-stake-s,683,2485731,0.0-19.0-0.1-0.194,AB60ITQGDVHF0,3DW3BNF1HKYVNTMBZS7SV7ATLD58VQ,374TNBHA8FBLJAF6GZGEDHVARDYQYW,2,1
195,1,object_05,object_07,616.0,2,2,660.40000003576,0.5555555555555556,2,object_01,5,2580,0,1,5,desert_4,2,memory-2step-stake-s,684,2494138,0.0-19.0-0.1-0.195,AB60ITQGDVHF0,3DW3BNF1HKYVNTMBZS7SV7ATLD58VQ,374TNBHA8FBLJAF6GZGEDHVARDYQYW,1,2
196,2,object_03,object_02,659.0,4,1,523.0,0.6666666666666666,2,object_01,5,2610,0,2,6,forest_7,2,memory-2step-stake-s,685,2502511,0.0-19.0-0.1-0.196,AB60ITQGDVHF0,3DW3BNF1HKYVNTMBZS7SV7ATLD58VQ,374TNBHA8FBLJAF6GZGEDHVARDYQYW,4,3
197,2,object_03,object_02,670.60000002384,4,1,458.70000004768,0.7777777777777778,2,object_01,5,2645,0,5,7,forest_4,2,memory-2step-stake-s,686,2510929,0.0-19.0-0.1-0.197,AB60ITQGDVHF0,3DW3BNF1HKYVNTMBZS7SV7ATLD58VQ,374TNBHA8FBLJAF6GZGEDHVARDYQYW,4,3
198,2,object_03,object_02,603.70000004768,4,1,909.90000003576,0.8888888888888888,2,object_01,5,2685,0,8,8,forest_7,2,memory-2step-stake-s,687,2519898,0.0-19.0-0.1-0.198,AB60ITQGDVHF0,3DW3BNF1HKYVNTMBZS7SV7ATLD58VQ,374TNBHA8FBLJAF6GZGEDHVARDYQYW,4,3
199,2,object_03,object_02,451.90000003576,4,1,532.69999998808,0.5555555555555556,2,object_01,5,2710,0,8,5,forest_6,2,memory-2step-stake-s,688,2528180,0.0-19.0-0.1-0.199,AB60ITQGDVHF0,3DW3BNF1HKYVNTMBZS7SV7ATLD58VQ,374TNBHA8FBLJAF6GZGEDHVARDYQYW,4,3
200,4,object_09,object_10,761.5,8,2,608.89999997616,0.5555555555555556,2,object_01,1,2715,0,7,5,restaurant_7,2,memory-2step-stake-s,689,2536537,0.0-19.0-0.1-0.200,AB60ITQGDVHF0,3DW3BNF1HKYVNTMBZS7SV7ATLD58VQ,374TNBHA8FBLJAF6GZGEDHVARDYQYW,7,8
201,3,object_04,object_06,934.69999998808,6,2,395.5,0.4444444444444444,2,object_01,5,2735,0,9,4,library_6,2,memory-2step-stake-s,690,2544574,0.0-19.0-0.1-0.201,AB60ITQGDVHF0,3DW3BNF1HKYVNTMBZS7SV7ATLD58VQ,374TNBHA8FBLJAF6GZGEDHVARDYQYW,5,6
202,4,object_09,object_10,647.19999998808,8,2,522.0,0.4444444444444444,2,object_01,1,2739,0,7,4,restaurant_6,2,memory-2step-stake-s,691,2552750,0.0-19.0-0.1-0.202,AB60ITQGDVHF0,3DW3BNF1HKYVNTMBZS7SV7ATLD58VQ,374TNBHA8FBLJAF6GZGEDHVARDYQYW,7,8
203,1,object_07,object_05,677.5,2,1,382.80000001192,0.7777777777777778,2,object_01,5,2774,0,9,7,desert_7,2,memory-2step-stake-s,692,2561086,0.0-19.0-0.1-0.203,AB60ITQGDVHF0,3DW3BNF1HKYVNTMBZS7SV7ATLD58VQ,374TNBHA8FBLJAF6GZGEDHVARDYQYW,2,1
204,4,object_10,object_09,513.0,8,1,387.79999995232,0.8888888888888888,2,object_01,1,2782,0,4,8,restaurant_5,2,memory-2step-stake-s,693,2569523,0.0-19.0-0.1-0.204,AB60ITQGDVHF0,3DW3BNF1HKYVNTMBZS7SV7ATLD58VQ,374TNBHA8FBLJAF6GZGEDHVARDYQYW,8,7
205,4,object_09,object_10,710.30000001192,8,2,453.69999998808,0.8888888888888888,2,object_01,5,2822,0,4,8,restaurant_5,2,memory-2step-stake-s,694,2578029,0.0-19.0-0.1-0.205,AB60ITQGDVHF0,3DW3BNF1HKYVNTMBZS7SV7ATLD58VQ,374TNBHA8FBLJAF6GZGEDHVARDYQYW,7,8
206,3,object_06,object_04,-1.0,-1,-1,-1.0,0.0,-,0,1,2822,0,4,8,library_6,2,memory-2step-stake-s,695,2584556,0.0-19.0-0.1-0.206,AB60ITQGDVHF0,3DW3BNF1HKYVNTMBZS7SV7ATLD58VQ,374TNBHA8FBLJAF6GZGEDHVARDYQYW,6,5
207,4,object_10,object_09,712.69999998808,8,1,444.79999995232,0.7777777777777778,2,object_01,1,2829,0,4,7,restaurant_5,2,memory-2step-stake-s,696,2592941,0.0-19.0-0.1-0.207,AB60ITQGDVHF0,3DW3BNF1HKYVNTMBZS7SV7ATLD58VQ,374TNBHA8FBLJAF6GZGEDHVARDYQYW,8,7
208,3,object_06,object_04,605.5,6,1,585.40000003576,0.4444444444444444,2,object_01,1,2833,0,2,4,library_8,2,memory-2step-stake-s,697,2601169,0.0-19.0-0.1-0.208,AB60ITQGDVHF0,3DW3BNF1HKYVNTMBZS7SV7ATLD58VQ,374TNBHA8FBLJAF6GZGEDHVARDYQYW,6,5
209,3,object_04,object_06,1052.8999999762,6,2,520.19999998808,0.5555555555555556,2,object_01,1,2838,0,2,5,library_2,2,memory-2step-stake-s,698,2609436,0.0-19.0-0.1-0.209,AB60ITQGDVHF0,3DW3BNF1HKYVNTMBZS7SV7ATLD58VQ,374TNBHA8FBLJAF6GZGEDHVARDYQYW,5,6
210,2,object_03,object_02,613.89999997616,4,1,447.09999996424,0.5555555555555556,2,object_01,5,2863,0,4,5,forest_7,2,memory-2step-stake-s,699,2617639,0.0-19.0-0.1-0.210,AB60ITQGDVHF0,3DW3BNF1HKYVNTMBZS7SV7ATLD58VQ,374TNBHA8FBLJAF6GZGEDHVARDYQYW,4,3
211,3,object_06,object_04,848.30000001192,6,1,372.79999995232,0.3333333333333333,2,object_01,1,2866,0,6,3,library_8,2,memory-2step-stake-s,700,2625553,0.0-19.0-0.1-0.211,AB60ITQGDVHF0,3DW3BNF1HKYVNTMBZS7SV7ATLD58VQ,374TNBHA8FBLJAF6GZGEDHVARDYQYW,6,5
212,3,object_06,object_04,499.5,6,1,416.60000002384,0.3333333333333333,2,object_01,1,2869,0,8,3,library_8,2,memory-2step-stake-s,701,2633516,0.0-19.0-0.1-0.212,AB60ITQGDVHF0,3DW3BNF1HKYVNTMBZS7SV7ATLD58VQ,374TNBHA8FBLJAF6GZGEDHVARDYQYW,6,5
213,4,object_09,object_10,1061.1999999881,7,1,377.69999998808,0.6666666666666666,1,object_08,1,2875,0,6,1,restaurant_7,2,memory-2step-stake-s,702,2641745,0.0-19.0-0.1-0.213,AB60ITQGDVHF0,3DW3BNF1HKYVNTMBZS7SV7ATLD58VQ,374TNBHA8FBLJAF6GZGEDHVARDYQYW,7,8
214,3,object_06,object_04,737.69999998808,5,2,420.80000001192,0.6666666666666666,1,object_08,1,2881,0,6,1,library_8,2,memory-2step-stake-s,703,2650022,0.0-19.0-0.1-0.214,AB60ITQGDVHF0,3DW3BNF1HKYVNTMBZS7SV7ATLD58VQ,374TNBHA8FBLJAF6GZGEDHVARDYQYW,6,5
215,1,object_05,object_07,666.69999998808,1,1,655.39999997616,0.7777777777777778,1,object_08,1,2888,0,7,0,desert_4,2,memory-2step-stake-s,704,2658643,0.0-19.0-0.1-0.215,AB60ITQGDVHF0,3DW3BNF1HKYVNTMBZS7SV7ATLD58VQ,374TNBHA8FBLJAF6GZGEDHVARDYQYW,1,2
216,4,object_10,object_09,1283.5,7,2,588.5,0.8888888888888888,1,object_08,1,2896,0,8,0,restaurant_5,2,memory-2step-stake-s,705,2667287,0.0-19.0-0.1-0.216,AB60ITQGDVHF0,3DW3BNF1HKYVNTMBZS7SV7ATLD58VQ,374TNBHA8FBLJAF6GZGEDHVARDYQYW,8,7
217,4,object_10,object_09,1404.8000000119,8,1,448.19999998808,0.2222222222222222,2,object_01,1,2898,0,4,2,restaurant_5,2,memory-2step-stake-s,706,2675179,0.0-19.0-0.1-0.217,AB60ITQGDVHF0,3DW3BNF1HKYVNTMBZS7SV7ATLD58VQ,374TNBHA8FBLJAF6GZGEDHVARDYQYW,8,7
218,3,object_04,object_06,712.30000001192,5,1,396.10000002384,0.3333333333333333,1,object_08,1,2901,0,3,1,library_2,2,memory-2step-stake-s,707,2683114,0.0-19.0-0.1-0.218,AB60ITQGDVHF0,3DW3BNF1HKYVNTMBZS7SV7ATLD58VQ,374TNBHA8FBLJAF6GZGEDHVARDYQYW,5,6
219,1,object_05,object_07,581.09999996424,1,1,371.69999998808,0.3333333333333333,1,object_08,1,2904,0,3,1,desert_8,2,memory-2step-stake-s,708,2691034,0.0-19.0-0.1-0.219,AB60ITQGDVHF0,3DW3BNF1HKYVNTMBZS7SV7ATLD58VQ,374TNBHA8FBLJAF6GZGEDHVARDYQYW,1,2
220,4,object_10,object_09,783.40000003576,7,2,365.30000001192,0.3333333333333333,1,object_08,1,2907,0,3,3,restaurant_6,2,memory-2step-stake-s,709,2698958,0.0-19.0-0.1-0.220,AB60ITQGDVHF0,3DW3BNF1HKYVNTMBZS7SV7ATLD58VQ,374TNBHA8FBLJAF6GZGEDHVARDYQYW,8,7
221,4,object_09,object_10,681.20000004768,8,2,400.30000001192,0.1111111111111111,2,object_01,1,2908,0,9,1,restaurant_6,2,memory-2step-stake-s,710,2706698,0.0-19.0-0.1-0.221,AB60ITQGDVHF0,3DW3BNF1HKYVNTMBZS7SV7ATLD58VQ,374TNBHA8FBLJAF6GZGEDHVARDYQYW,7,8
222,1,object_05,object_07,1007.0,2,2,428.09999996424,0.2222222222222222,2,object_01,1,2910,0,9,2,desert_4,2,memory-2step-stake-s,711,2714574,0.0-19.0-0.1-0.222,AB60ITQGDVHF0,3DW3BNF1HKYVNTMBZS7SV7ATLD58VQ,374TNBHA8FBLJAF6GZGEDHVARDYQYW,1,2
223,4,object_10,object_09,903.5,8,1,362.80000001192,0.2222222222222222,2,object_01,1,2912,0,8,2,restaurant_5,2,memory-2step-stake-s,712,2722384,0.0-19.0-0.1-0.223,AB60ITQGDVHF0,3DW3BNF1HKYVNTMBZS7SV7ATLD58VQ,374TNBHA8FBLJAF6GZGEDHVARDYQYW,8,7
224,2,object_02,object_03,814.19999998808,3,1,420.5,0.4444444444444444,1,object_08,1,2916,0,4,2,forest_7,2,memory-2step-stake-s,713,2730459,0.0-19.0-0.1-0.224,AB60ITQGDVHF0,3DW3BNF1HKYVNTMBZS7SV7ATLD58VQ,374TNBHA8FBLJAF6GZGEDHVARDYQYW,3,4
225,1,object_07,object_05,688.5,1,2,412.80000001192,0.5555555555555556,1,object_08,1,2921,0,5,3,desert_7,2,memory-2step-stake-s,714,2738631,0.0-19.0-0.1-0.225,AB60ITQGDVHF0,3DW3BNF1HKYVNTMBZS7SV7ATLD58VQ,374TNBHA8FBLJAF6GZGEDHVARDYQYW,2,1
226,3,object_04,object_06,944.10000002384,5,1,422.90000003576,0.8888888888888888,1,object_08,1,2929,0,8,3,library_2,2,memory-2step-stake-s,715,2747118,0.0-19.0-0.1-0.226,AB60ITQGDVHF0,3DW3BNF1HKYVNTMBZS7SV7ATLD58VQ,374TNBHA8FBLJAF6GZGEDHVARDYQYW,5,6
227,2,object_03,object_02,727.40000003576,3,2,428.30000001192,0.6666666666666666,1,object_08,5,2959,0,6,6,forest_5,2,memory-2step-stake-s,716,2755411,0.0-19.0-0.1-0.227,AB60ITQGDVHF0,3DW3BNF1HKYVNTMBZS7SV7ATLD58VQ,374TNBHA8FBLJAF6GZGEDHVARDYQYW,4,3
228,1,object_07,object_05,700.39999997616,1,2,434.30000001192,0.7777777777777778,1,object_08,5,2994,0,7,6,desert_7,2,memory-2step-stake-s,717,2763816,0.0-19.0-0.1-0.228,AB60ITQGDVHF0,3DW3BNF1HKYVNTMBZS7SV7ATLD58VQ,374TNBHA8FBLJAF6GZGEDHVARDYQYW,2,1
229,2,object_03,object_02,863.20000004768,3,2,398.60000002384,0.4444444444444444,1,object_08,5,3014,0,4,7,forest_4,2,memory-2step-stake-s,718,2771875,0.0-19.0-0.1-0.229,AB60ITQGDVHF0,3DW3BNF1HKYVNTMBZS7SV7ATLD58VQ,374TNBHA8FBLJAF6GZGEDHVARDYQYW,4,3
230,1,object_07,object_05,689.09999996424,1,2,451.69999998808,0.3333333333333333,1,object_08,1,3017,0,3,5,desert_7,2,memory-2step-stake-s,719,2779864,0.0-19.0-0.1-0.230,AB60ITQGDVHF0,3DW3BNF1HKYVNTMBZS7SV7ATLD58VQ,374TNBHA8FBLJAF6GZGEDHVARDYQYW,2,1
231,4,object_09,object_10,888.69999998808,7,1,384.10000002384,0.5555555555555556,1,object_08,1,3022,0,5,5,restaurant_2,2,memory-2step-stake-s,720,2788002,0.0-19.0-0.1-0.231,AB60ITQGDVHF0,3DW3BNF1HKYVNTMBZS7SV7ATLD58VQ,374TNBHA8FBLJAF6GZGEDHVARDYQYW,7,8
232,3,object_06,object_04,692.30000001192,5,2,452.80000001192,0.3333333333333333,1,object_08,1,3025,0,3,7,library_2,2,memory-2step-stake-s,721,2796013,0.0-19.0-0.1-0.232,AB60ITQGDVHF0,3DW3BNF1HKYVNTMBZS7SV7ATLD58VQ,374TNBHA8FBLJAF6GZGEDHVARDYQYW,6,5
233,3,object_06,object_04,1105.1999999881,5,2,407.80000001192,0.2222222222222222,1,object_08,1,3027,0,2,6,library_1,2,memory-2step-stake-s,722,2803868,0.0-19.0-0.1-0.233,AB60ITQGDVHF0,3DW3BNF1HKYVNTMBZS7SV7ATLD58VQ,374TNBHA8FBLJAF6GZGEDHVARDYQYW,6,5
234,1,object_05,object_07,1343.4000000358,2,2,441.09999996424,0.8888888888888888,2,object_01,5,3067,0,4,8,desert_8,2,memory-2step-stake-s,723,2812391,0.0-19.0-0.1-0.234,AB60ITQGDVHF0,3DW3BNF1HKYVNTMBZS7SV7ATLD58VQ,374TNBHA8FBLJAF6GZGEDHVARDYQYW,1,2
235,1,object_05,object_07,600.30000001192,2,2,371.80000001192,0.6666666666666666,2,object_01,1,3073,0,4,6,desert_4,2,memory-2step-stake-s,724,2820636,0.0-19.0-0.1-0.235,AB60ITQGDVHF0,3DW3BNF1HKYVNTMBZS7SV7ATLD58VQ,374TNBHA8FBLJAF6GZGEDHVARDYQYW,1,2
236,2,object_03,object_02,922.60000002384,4,1,472.69999998808,0.4444444444444444,2,object_01,5,3093,0,1,4,forest_7,2,memory-2step-stake-s,725,2828766,0.0-19.0-0.1-0.236,AB60ITQGDVHF0,3DW3BNF1HKYVNTMBZS7SV7ATLD58VQ,374TNBHA8FBLJAF6GZGEDHVARDYQYW,4,3
237,3,object_06,object_04,622.69999998808,6,1,408.5,0.0,2,object_01,1,3093,0,1,0,library_6,2,memory-2step-stake-s,726,2836411,0.0-19.0-0.1-0.237,AB60ITQGDVHF0,3DW3BNF1HKYVNTMBZS7SV7ATLD58VQ,374TNBHA8FBLJAF6GZGEDHVARDYQYW,6,5
238,4,object_10,object_09,798.69999998808,8,1,375.09999996424,0.1111111111111111,2,object_01,1,3094,0,3,1,restaurant_6,2,memory-2step-stake-s,727,2844123,0.0-19.0-0.1-0.238,AB60ITQGDVHF0,3DW3BNF1HKYVNTMBZS7SV7ATLD58VQ,374TNBHA8FBLJAF6GZGEDHVARDYQYW,8,7
239,1,object_05,object_07,990.40000003576,1,1,468.5,0.3333333333333333,1,object_08,5,3109,0,3,1,desert_1,2,memory-2step-stake-s,728,2852132,0.0-19.0-0.1-0.239,AB60ITQGDVHF0,3DW3BNF1HKYVNTMBZS7SV7ATLD58VQ,374TNBHA8FBLJAF6GZGEDHVARDYQYW,1,2
240,1,object_07,object_05,674.80000001192,2,1,369.40000003576,0.4444444444444444,2,object_01,5,3129,0,5,4,desert_1,2,memory-2step-stake-s,729,2860133,0.0-19.0-0.1-0.240,AB60ITQGDVHF0,3DW3BNF1HKYVNTMBZS7SV7ATLD58VQ,374TNBHA8FBLJAF6GZGEDHVARDYQYW,2,1
241,3,object_06,object_04,626.20000004768,6,1,473.5,0.0,2,object_01,1,3129,0,4,0,library_8,2,memory-2step-stake-s,730,2867845,0.0-19.0-0.1-0.241,AB60ITQGDVHF0,3DW3BNF1HKYVNTMBZS7SV7ATLD58VQ,374TNBHA8FBLJAF6GZGEDHVARDYQYW,6,5
242,4,object_10,object_09,577.10000002384,8,1,495.69999998808,0.2222222222222222,2,object_01,1,3131,0,1,2,restaurant_6,2,memory-2step-stake-s,731,2875776,0.0-19.0-0.1-0.242,AB60ITQGDVHF0,3DW3BNF1HKYVNTMBZS7SV7ATLD58VQ,374TNBHA8FBLJAF6GZGEDHVARDYQYW,8,7
243,3,object_04,object_06,660.5,6,2,539.5,0.3333333333333333,2,object_01,1,3134,0,1,3,library_1,2,memory-2step-stake-s,732,2883850,0.0-19.0-0.1-0.243,AB60ITQGDVHF0,3DW3BNF1HKYVNTMBZS7SV7ATLD58VQ,374TNBHA8FBLJAF6GZGEDHVARDYQYW,5,6
244,1,object_05,object_07,602.90000003576,1,1,446.19999998808,0.2222222222222222,1,object_08,5,3144,0,2,5,desert_8,2,memory-2step-stake-s,733,2891738,0.0-19.0-0.1-0.244,AB60ITQGDVHF0,3DW3BNF1HKYVNTMBZS7SV7ATLD58VQ,374TNBHA8FBLJAF6GZGEDHVARDYQYW,1,2
245,2,object_02,object_03,646.39999997616,3,1,545.29999995232,0.1111111111111111,1,object_08,5,3149,0,1,6,forest_5,2,memory-2step-stake-s,734,2899615,0.0-19.0-0.1-0.245,AB60ITQGDVHF0,3DW3BNF1HKYVNTMBZS7SV7ATLD58VQ,374TNBHA8FBLJAF6GZGEDHVARDYQYW,3,4
246,1,object_07,object_05,634.80000001192,2,1,569.19999998808,0.6666666666666666,2,object_01,5,3179,0,1,6,desert_1,2,memory-2step-stake-s,735,2908031,0.0-19.0-0.1-0.246,AB60ITQGDVHF0,3DW3BNF1HKYVNTMBZS7SV7ATLD58VQ,374TNBHA8FBLJAF6GZGEDHVARDYQYW,2,1
247,2,object_02,object_03,780.69999998808,4,2,459.0,0.6666666666666666,2,object_01,5,3209,0,4,6,forest_7,2,memory-2step-stake-s,736,2916334,0.0-19.0-0.1-0.247,AB60ITQGDVHF0,3DW3BNF1HKYVNTMBZS7SV7ATLD58VQ,374TNBHA8FBLJAF6GZGEDHVARDYQYW,3,4
248,1,object_07,object_05,592.69999998808,2,1,441.5,0.4444444444444444,2,object_01,5,3229,0,7,4,desert_7,2,memory-2step-stake-s,737,2924420,0.0-19.0-0.1-0.248,AB60ITQGDVHF0,3DW3BNF1HKYVNTMBZS7SV7ATLD58VQ,374TNBHA8FBLJAF6GZGEDHVARDYQYW,2,1
249,3,object_04,object_06,737.80000001192,6,2,415.60000002384,0.3333333333333333,2,object_01,5,3244,0,7,3,library_2,2,memory-2step-stake-s,738,2932379,0.0-19.0-0.1-0.249,AB60ITQGDVHF0,3DW3BNF1HKYVNTMBZS7SV7ATLD58VQ,374TNBHA8FBLJAF6GZGEDHVARDYQYW,5,6
250,2,object_03,object_02,569.39999997616,4,1,373.80000001192,0.6666666666666666,2,object_01,5,3274,0,7,6,forest_5,2,memory-2step-stake-s,739,2940600,0.0-19.0-0.1-0.250,AB60ITQGDVHF0,3DW3BNF1HKYVNTMBZS7SV7ATLD58VQ,374TNBHA8FBLJAF6GZGEDHVARDYQYW,4,3
251,3,object_06,object_04,779.90000003576,6,1,489.0,0.8888888888888888,2,object_01,1,3282,0,5,8,library_2,2,memory-2step-stake-s,740,2949144,0.0-19.0-0.1-0.251,AB60ITQGDVHF0,3DW3BNF1HKYVNTMBZS7SV7ATLD58VQ,374TNBHA8FBLJAF6GZGEDHVARDYQYW,6,5
252,1,object_05,object_07,716.09999996424,2,2,447.0,0.5555555555555556,2,object_01,5,3307,0,0,5,desert_1,2,memory-2step-stake-s,741,2957331,0.0-19.0-0.1-0.252,AB60ITQGDVHF0,3DW3BNF1HKYVNTMBZS7SV7ATLD58VQ,374TNBHA8FBLJAF6GZGEDHVARDYQYW,1,2
253,4,object_09,object_10,824.39999997616,8,2,319.89999997616,0.7777777777777778,2,object_01,1,3314,0,1,7,restaurant_5,2,memory-2step-stake-s,742,2965603,0.0-19.0-0.1-0.253,AB60ITQGDVHF0,3DW3BNF1HKYVNTMBZS7SV7ATLD58VQ,374TNBHA8FBLJAF6GZGEDHVARDYQYW,7,8
254,2,object_03,object_02,614.19999998808,4,1,501.69999998808,0.6666666666666666,2,object_01,5,3344,0,0,6,forest_4,2,memory-2step-stake-s,743,2973964,0.0-19.0-0.1-0.254,AB60ITQGDVHF0,3DW3BNF1HKYVNTMBZS7SV7ATLD58VQ,374TNBHA8FBLJAF6GZGEDHVARDYQYW,4,3
255,4,object_09,object_10,890.0,8,2,571.59999996424,0.5555555555555556,2,object_01,1,3349,0,2,5,restaurant_7,2,memory-2step-stake-s,744,2982290,0.0-19.0-0.1-0.255,AB60ITQGDVHF0,3DW3BNF1HKYVNTMBZS7SV7ATLD58VQ,374TNBHA8FBLJAF6GZGEDHVARDYQYW,7,8
