,state1,stim_left,stim_right,rt_1,choice1,response1,rt_2,points,state2,stim_state2,stake,score,practice,rews1,rews2,background,high_arm,trial_type,trial_index,time_elapsed,internal_node_id,subid,hitid,assignmentid,stim_left_num,stim_right_num
0,2,object_02,object_05,955.0,3,1,-1.0,0.0,1,object_08,1,0,0,2,9,forest_5,2,memory-2step-stake-s,492,845242,0.0-19.0-0.0-0.0,A353XKDTUX10NC,3YGE63DIOBDQKTHDUYZ9OUNPB7QW00,3C8HJ7UOPBAU3LRJKSBGAFK7VDJZM9,3,4
1,4,object_04,object_06,1378.0,7,2,-1.0,0.0,1,object_08,1,0,0,1,8,restaurant_3,2,memory-2step-stake-s,493,853761,0.0-19.0-0.0-0.1,A353XKDTUX10NC,3YGE63DIOBDQKTHDUYZ9OUNPB7QW00,3C8HJ7UOPBAU3LRJKSBGAFK7VDJZM9,8,7
2,3,object_07,object_03,-1.0,-1,-1,-1.0,0.0,-,0,1,0,0,2,7,library_8,2,memory-2step-stake-s,494,860268,0.0-19.0-0.0-0.2,A353XKDTUX10NC,3YGE63DIOBDQKTHDUYZ9OUNPB7QW00,3C8HJ7UOPBAU3LRJKSBGAFK7VDJZM9,6,5
3,2,object_05,object_02,743.0,4,1,-1.0,0.0,2,object_01,1,0,0,0,5,forest_7,2,memory-2step-stake-s,495,868785,0.0-19.0-0.0-0.3,A353XKDTUX10NC,3YGE63DIOBDQKTHDUYZ9OUNPB7QW00,3C8HJ7UOPBAU3LRJKSBGAFK7VDJZM9,4,3
4,2,object_02,object_05,921.0,4,2,-1.0,0.0,2,object_01,5,0,0,3,7,forest_8,2,memory-2step-stake-s,496,877299,0.0-19.0-0.0-0.4,A353XKDTUX10NC,3YGE63DIOBDQKTHDUYZ9OUNPB7QW00,3C8HJ7UOPBAU3LRJKSBGAFK7VDJZM9,3,4
5,3,object_03,object_07,1406.0,5,1,-1.0,0.0,1,object_08,1,0,0,2,5,library_6,2,memory-2step-stake-s,497,885814,0.0-19.0-0.0-0.5,A353XKDTUX10NC,3YGE63DIOBDQKTHDUYZ9OUNPB7QW00,3C8HJ7UOPBAU3LRJKSBGAFK7VDJZM9,5,6
6,3,object_03,object_07,1017.0,6,2,-1.0,0.0,2,object_01,1,0,0,2,5,library_6,2,memory-2step-stake-s,498,894328,0.0-19.0-0.0-0.6,A353XKDTUX10NC,3YGE63DIOBDQKTHDUYZ9OUNPB7QW00,3C8HJ7UOPBAU3LRJKSBGAFK7VDJZM9,5,6
7,2,object_02,object_05,1127.0,4,2,-1.0,0.0,2,object_01,5,0,0,3,4,forest_8,2,memory-2step-stake-s,499,902842,0.0-19.0-0.0-0.7,A353XKDTUX10NC,3YGE63DIOBDQKTHDUYZ9OUNPB7QW00,3C8HJ7UOPBAU3LRJKSBGAFK7VDJZM9,3,4
8,1,object_10,object_09,987.0,1,2,-1.0,0.0,1,object_08,5,0,0,7,5,desert_2,2,memory-2step-stake-s,500,911356,0.0-19.0-0.0-0.8,A353XKDTUX10NC,3YGE63DIOBDQKTHDUYZ9OUNPB7QW00,3C8HJ7UOPBAU3LRJKSBGAFK7VDJZM9,2,1
9,2,object_02,object_05,593.0,3,1,-1.0,0.0,1,object_08,5,0,0,6,4,forest_7,2,memory-2step-stake-s,501,919863,0.0-19.0-0.0-0.9,A353XKDTUX10NC,3YGE63DIOBDQKTHDUYZ9OUNPB7QW00,3C8HJ7UOPBAU3LRJKSBGAFK7VDJZM9,3,4
10,1,object_09,object_10,1233.0,1,1,-1.0,0.0,1,object_08,1,0,0,5,2,desert_3,2,memory-2step-stake-s,502,928379,0.0-19.0-0.0-0.10,A353XKDTUX10NC,3YGE63DIOBDQKTHDUYZ9OUNPB7QW00,3C8HJ7UOPBAU3LRJKSBGAFK7VDJZM9,1,2
11,4,object_06,object_04,-1.0,-1,-1,-1.0,0.0,-,0,1,0,0,6,3,restaurant_3,2,memory-2step-stake-s,503,934884,0.0-19.0-0.0-0.11,A353XKDTUX10NC,3YGE63DIOBDQKTHDUYZ9OUNPB7QW00,3C8HJ7UOPBAU3LRJKSBGAFK7VDJZM9,7,8
12,2,object_05,object_02,746.0,4,1,-1.0,0.0,2,object_01,5,0,0,7,4,forest_5,2,memory-2step-stake-s,504,943400,0.0-19.0-0.0-0.12,A353XKDTUX10NC,3YGE63DIOBDQKTHDUYZ9OUNPB7QW00,3C8HJ7UOPBAU3LRJKSBGAFK7VDJZM9,4,3
13,4,object_04,object_06,620.0,7,2,-1.0,0.0,1,object_08,5,0,0,7,4,restaurant_1,2,memory-2step-stake-s,505,951918,0.0-19.0-0.0-0.13,A353XKDTUX10NC,3YGE63DIOBDQKTHDUYZ9OUNPB7QW00,3C8HJ7UOPBAU3LRJKSBGAFK7VDJZM9,8,7
14,4,object_04,object_06,1086.0,7,2,-1.0,0.0,1,object_08,1,0,0,4,3,restaurant_2,2,memory-2step-stake-s,506,960431,0.0-19.0-0.0-0.14,A353XKDTUX10NC,3YGE63DIOBDQKTHDUYZ9OUNPB7QW00,3C8HJ7UOPBAU3LRJKSBGAFK7VDJZM9,8,7
15,1,object_10,object_09,1211.0,2,1,-1.0,0.0,2,object_01,5,0,0,4,4,desert_3,2,memory-2step-stake-s,507,968946,0.0-19.0-0.0-0.15,A353XKDTUX10NC,3YGE63DIOBDQKTHDUYZ9OUNPB7QW00,3C8HJ7UOPBAU3LRJKSBGAFK7VDJZM9,2,1
16,4,object_06,object_04,879.0,7,1,-1.0,0.0,1,object_08,1,0,0,5,2,restaurant_2,2,memory-2step-stake-s,508,977460,0.0-19.0-0.0-0.16,A353XKDTUX10NC,3YGE63DIOBDQKTHDUYZ9OUNPB7QW00,3C8HJ7UOPBAU3LRJKSBGAFK7VDJZM9,7,8
17,1,object_10,object_09,-1.0,-1,-1,-1.0,0.0,-,0,5,0,0,4,3,desert_8,2,memory-2step-stake-s,509,983965,0.0-19.0-0.0-0.17,A353XKDTUX10NC,3YGE63DIOBDQKTHDUYZ9OUNPB7QW00,3C8HJ7UOPBAU3LRJKSBGAFK7VDJZM9,2,1
18,3,object_03,object_07,1098.0,5,1,-1.0,0.0,1,object_08,1,0,0,6,3,library_2,2,memory-2step-stake-s,510,992477,0.0-19.0-0.0-0.18,A353XKDTUX10NC,3YGE63DIOBDQKTHDUYZ9OUNPB7QW00,3C8HJ7UOPBAU3LRJKSBGAFK7VDJZM9,5,6
19,2,object_05,object_02,1063.0,4,1,-1.0,0.0,2,object_01,5,0,0,7,2,forest_7,2,memory-2step-stake-s,511,1000992,0.0-19.0-0.0-0.19,A353XKDTUX10NC,3YGE63DIOBDQKTHDUYZ9OUNPB7QW00,3C8HJ7UOPBAU3LRJKSBGAFK7VDJZM9,4,3
20,2,object_02,object_05,1335.0,3,1,-1.0,0.0,1,object_08,5,0,0,7,1,forest_4,2,memory-2step-stake-s,512,1009505,0.0-19.0-0.0-0.20,A353XKDTUX10NC,3YGE63DIOBDQKTHDUYZ9OUNPB7QW00,3C8HJ7UOPBAU3LRJKSBGAFK7VDJZM9,3,4
21,4,object_06,object_04,-1.0,-1,-1,-1.0,0.0,-,0,1,0,0,5,2,restaurant_2,2,memory-2step-stake-s,513,1016010,0.0-19.0-0.0-0.21,A353XKDTUX10NC,3YGE63DIOBDQKTHDUYZ9OUNPB7QW00,3C8HJ7UOPBAU3LRJKSBGAFK7VDJZM9,7,8
22,4,object_06,object_04,1006.0,8,2,-1.0,0.0,2,object_01,1,0,0,6,4,restaurant_1,2,memory-2step-stake-s,514,1024525,0.0-19.0-0.0-0.22,A353XKDTUX10NC,3YGE63DIOBDQKTHDUYZ9OUNPB7QW00,3C8HJ7UOPBAU3LRJKSBGAFK7VDJZM9,7,8
23,2,object_02,object_05,811.0,4,2,-1.0,0.0,2,object_01,5,0,0,8,6,forest_7,2,memory-2step-stake-s,515,1033039,0.0-19.0-0.0-0.23,A353XKDTUX10NC,3YGE63DIOBDQKTHDUYZ9OUNPB7QW00,3C8HJ7UOPBAU3LRJKSBGAFK7VDJZM9,3,4
24,2,object_05,object_02,1334.0,3,2,-1.0,0.0,1,object_08,5,0,0,6,8,forest_7,2,memory-2step-stake-s,516,1041552,0.0-19.0-0.0-0.24,A353XKDTUX10NC,3YGE63DIOBDQKTHDUYZ9OUNPB7QW00,3C8HJ7UOPBAU3LRJKSBGAFK7VDJZM9,4,3
25,3,object_07,object_03,372.0,6,1,395.0,1.0,2,object_01,1,9,0,8,9,library_6,2,memory-2step-stake-s,517,1050065,0.0-19.0-0.0-0.25,A353XKDTUX10NC,3YGE63DIOBDQKTHDUYZ9OUNPB7QW00,3C8HJ7UOPBAU3LRJKSBGAFK7VDJZM9,6,5
26,2,object_05,object_02,985.0,3,2,433.0,0.6666666666666666,1,object_08,5,39,0,6,8,forest_5,2,memory-2step-stake-s,518,1058313,0.0-19.0-0.0-0.26,A353XKDTUX10NC,3YGE63DIOBDQKTHDUYZ9OUNPB7QW00,3C8HJ7UOPBAU3LRJKSBGAFK7VDJZM9,4,3
27,2,object_05,object_02,624.0,3,2,424.0,0.4444444444444444,1,object_08,5,59,0,4,7,forest_4,2,memory-2step-stake-s,519,1066351,0.0-19.0-0.0-0.27,A353XKDTUX10NC,3YGE63DIOBDQKTHDUYZ9OUNPB7QW00,3C8HJ7UOPBAU3LRJKSBGAFK7VDJZM9,4,3
28,4,object_06,object_04,433.0,8,2,370.0,0.8888888888888888,2,object_01,1,67,0,4,8,restaurant_2,2,memory-2step-stake-s,520,1074735,0.0-19.0-0.0-0.28,A353XKDTUX10NC,3YGE63DIOBDQKTHDUYZ9OUNPB7QW00,3C8HJ7UOPBAU3LRJKSBGAFK7VDJZM9,7,8
29,2,object_02,object_05,463.0,4,2,341.0,0.4444444444444444,2,object_01,5,87,0,7,4,forest_5,2,memory-2step-stake-s,521,1082692,0.0-19.0-0.0-0.29,A353XKDTUX10NC,3YGE63DIOBDQKTHDUYZ9OUNPB7QW00,3C8HJ7UOPBAU3LRJKSBGAFK7VDJZM9,3,4
30,1,object_10,object_09,472.0,2,1,519.0,0.2222222222222222,2,object_01,5,97,0,7,2,desert_8,2,memory-2step-stake-s,522,1090625,0.0-19.0-0.0-0.30,A353XKDTUX10NC,3YGE63DIOBDQKTHDUYZ9OUNPB7QW00,3C8HJ7UOPBAU3LRJKSBGAFK7VDJZM9,2,1
31,4,object_04,object_06,786.0,7,2,529.0,0.4444444444444444,1,object_08,5,117,0,4,0,restaurant_1,2,memory-2step-stake-s,523,1098769,0.0-19.0-0.0-0.31,A353XKDTUX10NC,3YGE63DIOBDQKTHDUYZ9OUNPB7QW00,3C8HJ7UOPBAU3LRJKSBGAFK7VDJZM9,8,7
32,3,object_07,object_03,464.0,5,2,679.0,0.4444444444444444,1,object_08,5,137,0,4,0,library_6,2,memory-2step-stake-s,524,1107063,0.0-19.0-0.0-0.32,A353XKDTUX10NC,3YGE63DIOBDQKTHDUYZ9OUNPB7QW00,3C8HJ7UOPBAU3LRJKSBGAFK7VDJZM9,6,5
33,2,object_02,object_05,297.0,4,2,550.0,0.1111111111111111,2,object_01,5,142,0,5,1,forest_4,2,memory-2step-stake-s,525,1114921,0.0-19.0-0.0-0.33,A353XKDTUX10NC,3YGE63DIOBDQKTHDUYZ9OUNPB7QW00,3C8HJ7UOPBAU3LRJKSBGAFK7VDJZM9,3,4
34,1,object_10,object_09,319.0,2,1,390.0,0.4444444444444444,2,object_01,5,162,0,5,4,desert_2,2,memory-2step-stake-s,526,1122925,0.0-19.0-0.0-0.34,A353XKDTUX10NC,3YGE63DIOBDQKTHDUYZ9OUNPB7QW00,3C8HJ7UOPBAU3LRJKSBGAFK7VDJZM9,2,1
35,1,object_10,object_09,864.0,1,2,576.0,0.7777777777777778,1,object_08,5,197,0,7,5,desert_8,2,memory-2step-stake-s,527,1131417,0.0-19.0-0.0-0.35,A353XKDTUX10NC,3YGE63DIOBDQKTHDUYZ9OUNPB7QW00,3C8HJ7UOPBAU3LRJKSBGAFK7VDJZM9,2,1
36,2,object_05,object_02,666.0,4,1,594.0,0.2222222222222222,2,object_01,5,207,0,9,2,forest_7,2,memory-2step-stake-s,528,1139425,0.0-19.0-0.0-0.36,A353XKDTUX10NC,3YGE63DIOBDQKTHDUYZ9OUNPB7QW00,3C8HJ7UOPBAU3LRJKSBGAFK7VDJZM9,4,3
37,2,object_05,object_02,609.0,3,2,496.0,0.4444444444444444,1,object_08,5,227,0,4,6,forest_7,2,memory-2step-stake-s,529,1147536,0.0-19.0-0.0-0.37,A353XKDTUX10NC,3YGE63DIOBDQKTHDUYZ9OUNPB7QW00,3C8HJ7UOPBAU3LRJKSBGAFK7VDJZM9,4,3
38,4,object_04,object_06,976.0,7,2,617.0,0.6666666666666666,1,object_08,1,233,0,6,6,restaurant_2,2,memory-2step-stake-s,530,1155967,0.0-19.0-0.0-0.38,A353XKDTUX10NC,3YGE63DIOBDQKTHDUYZ9OUNPB7QW00,3C8HJ7UOPBAU3LRJKSBGAFK7VDJZM9,8,7
39,4,object_06,object_04,599.0,8,2,526.0,0.5555555555555556,2,object_01,1,238,0,6,5,restaurant_5,2,memory-2step-stake-s,531,1164209,0.0-19.0-0.0-0.39,A353XKDTUX10NC,3YGE63DIOBDQKTHDUYZ9OUNPB7QW00,3C8HJ7UOPBAU3LRJKSBGAFK7VDJZM9,7,8
40,1,object_10,object_09,652.0,1,2,506.0,1.0,1,object_08,5,283,0,9,3,desert_6,2,memory-2step-stake-s,532,1172833,0.0-19.0-0.0-0.40,A353XKDTUX10NC,3YGE63DIOBDQKTHDUYZ9OUNPB7QW00,3C8HJ7UOPBAU3LRJKSBGAFK7VDJZM9,2,1
41,2,object_05,object_02,715.0,3,2,474.0,0.7777777777777778,1,object_08,5,318,0,7,3,forest_8,2,memory-2step-stake-s,533,1181223,0.0-19.0-0.0-0.41,A353XKDTUX10NC,3YGE63DIOBDQKTHDUYZ9OUNPB7QW00,3C8HJ7UOPBAU3LRJKSBGAFK7VDJZM9,4,3
42,1,object_10,object_09,1027.0,1,2,339.0,0.6666666666666666,1,object_08,5,348,0,6,1,desert_8,2,memory-2step-stake-s,534,1189377,0.0-19.0-0.0-0.42,A353XKDTUX10NC,3YGE63DIOBDQKTHDUYZ9OUNPB7QW00,3C8HJ7UOPBAU3LRJKSBGAFK7VDJZM9,2,1
43,2,object_05,object_02,576.0,3,2,487.0,0.7777777777777778,1,object_08,1,355,0,7,1,forest_4,2,memory-2step-stake-s,535,1197780,0.0-19.0-0.0-0.43,A353XKDTUX10NC,3YGE63DIOBDQKTHDUYZ9OUNPB7QW00,3C8HJ7UOPBAU3LRJKSBGAFK7VDJZM9,4,3
44,3,object_07,object_03,1196.0,5,2,307.0,0.8888888888888888,1,object_08,1,363,0,8,0,library_5,2,memory-2step-stake-s,536,1206103,0.0-19.0-0.0-0.44,A353XKDTUX10NC,3YGE63DIOBDQKTHDUYZ9OUNPB7QW00,3C8HJ7UOPBAU3LRJKSBGAFK7VDJZM9,6,5
45,4,object_06,object_04,695.0,8,2,599.0,0.1111111111111111,2,object_01,1,364,0,7,1,restaurant_5,2,memory-2step-stake-s,537,1214015,0.0-19.0-0.0-0.45,A353XKDTUX10NC,3YGE63DIOBDQKTHDUYZ9OUNPB7QW00,3C8HJ7UOPBAU3LRJKSBGAFK7VDJZM9,7,8
46,3,object_07,object_03,1005.0,5,2,291.0,1.0,1,object_08,1,373,0,9,0,library_8,2,memory-2step-stake-s,538,1222424,0.0-19.0-0.0-0.46,A353XKDTUX10NC,3YGE63DIOBDQKTHDUYZ9OUNPB7QW00,3C8HJ7UOPBAU3LRJKSBGAFK7VDJZM9,6,5
47,2,object_05,object_02,699.0,4,1,265.0,0.1111111111111111,2,object_01,5,378,0,8,1,forest_7,2,memory-2step-stake-s,539,1230003,0.0-19.0-0.0-0.47,A353XKDTUX10NC,3YGE63DIOBDQKTHDUYZ9OUNPB7QW00,3C8HJ7UOPBAU3LRJKSBGAFK7VDJZM9,4,3
48,3,object_03,object_07,374.0,6,2,669.0,0.0,2,object_01,5,378,0,7,0,library_6,2,memory-2step-stake-s,540,1237885,0.0-19.0-0.0-0.48,A353XKDTUX10NC,3YGE63DIOBDQKTHDUYZ9OUNPB7QW00,3C8HJ7UOPBAU3LRJKSBGAFK7VDJZM9,5,6
49,4,object_06,object_04,618.0,7,1,424.0,0.8888888888888888,1,object_08,1,386,0,8,2,restaurant_5,2,memory-2step-stake-s,541,1246328,0.0-19.0-0.0-0.49,A353XKDTUX10NC,3YGE63DIOBDQKTHDUYZ9OUNPB7QW00,3C8HJ7UOPBAU3LRJKSBGAFK7VDJZM9,7,8
50,4,object_04,object_06,744.0,7,2,486.0,0.6666666666666666,1,object_08,1,392,0,6,0,restaurant_5,2,memory-2step-stake-s,542,1254629,0.0-19.0-0.0-0.50,A353XKDTUX10NC,3YGE63DIOBDQKTHDUYZ9OUNPB7QW00,3C8HJ7UOPBAU3LRJKSBGAFK7VDJZM9,8,7
51,1,object_10,object_09,871.0,1,2,374.0,0.5555555555555556,1,object_08,5,417,0,5,1,desert_2,2,memory-2step-stake-s,543,1262719,0.0-19.0-0.0-0.51,A353XKDTUX10NC,3YGE63DIOBDQKTHDUYZ9OUNPB7QW00,3C8HJ7UOPBAU3LRJKSBGAFK7VDJZM9,2,1
52,4,object_04,object_06,772.0,7,2,620.0,0.4444444444444444,1,object_08,1,421,0,4,0,restaurant_5,2,memory-2step-stake-s,544,1270954,0.0-19.0-0.0-0.52,A353XKDTUX10NC,3YGE63DIOBDQKTHDUYZ9OUNPB7QW00,3C8HJ7UOPBAU3LRJKSBGAFK7VDJZM9,8,7
53,3,object_03,object_07,1065.0,5,1,528.0,0.3333333333333333,1,object_08,5,436,0,3,0,library_6,2,memory-2step-stake-s,545,1278996,0.0-19.0-0.0-0.53,A353XKDTUX10NC,3YGE63DIOBDQKTHDUYZ9OUNPB7QW00,3C8HJ7UOPBAU3LRJKSBGAFK7VDJZM9,5,6
54,3,object_03,object_07,870.0,6,2,302.0,0.2222222222222222,2,object_01,1,438,0,6,2,library_8,2,memory-2step-stake-s,546,1286709,0.0-19.0-0.0-0.54,A353XKDTUX10NC,3YGE63DIOBDQKTHDUYZ9OUNPB7QW00,3C8HJ7UOPBAU3LRJKSBGAFK7VDJZM9,5,6
55,2,object_05,object_02,865.0,3,2,495.0,0.5555555555555556,1,object_08,5,463,0,5,2,forest_7,2,memory-2step-stake-s,547,1294922,0.0-19.0-0.0-0.55,A353XKDTUX10NC,3YGE63DIOBDQKTHDUYZ9OUNPB7QW00,3C8HJ7UOPBAU3LRJKSBGAFK7VDJZM9,4,3
56,1,object_10,object_09,749.0,1,2,484.0,0.6666666666666666,1,object_08,5,493,0,6,0,desert_8,2,memory-2step-stake-s,548,1303220,0.0-19.0-0.0-0.56,A353XKDTUX10NC,3YGE63DIOBDQKTHDUYZ9OUNPB7QW00,3C8HJ7UOPBAU3LRJKSBGAFK7VDJZM9,2,1
57,3,object_03,object_07,560.0,6,2,464.0,0.1111111111111111,2,object_01,1,494,0,6,1,library_8,2,memory-2step-stake-s,549,1310997,0.0-19.0-0.0-0.57,A353XKDTUX10NC,3YGE63DIOBDQKTHDUYZ9OUNPB7QW00,3C8HJ7UOPBAU3LRJKSBGAFK7VDJZM9,5,6
58,2,object_02,object_05,687.0,3,1,462.0,0.7777777777777778,1,object_08,5,529,0,7,3,forest_5,2,memory-2step-stake-s,550,1319374,0.0-19.0-0.0-0.58,A353XKDTUX10NC,3YGE63DIOBDQKTHDUYZ9OUNPB7QW00,3C8HJ7UOPBAU3LRJKSBGAFK7VDJZM9,3,4
59,3,object_03,object_07,979.0,6,2,395.0,0.1111111111111111,2,object_01,1,530,0,7,1,library_6,2,memory-2step-stake-s,551,1327082,0.0-19.0-0.0-0.59,A353XKDTUX10NC,3YGE63DIOBDQKTHDUYZ9OUNPB7QW00,3C8HJ7UOPBAU3LRJKSBGAFK7VDJZM9,5,6
60,4,object_06,object_04,1047.0,7,1,528.0,0.6666666666666666,1,object_08,1,536,0,6,1,restaurant_3,2,memory-2step-stake-s,552,1335423,0.0-19.0-0.0-0.60,A353XKDTUX10NC,3YGE63DIOBDQKTHDUYZ9OUNPB7QW00,3C8HJ7UOPBAU3LRJKSBGAFK7VDJZM9,7,8
61,2,object_05,object_02,617.0,3,2,453.0,0.4444444444444444,1,object_08,5,556,0,4,2,forest_5,2,memory-2step-stake-s,553,1343484,0.0-19.0-0.0-0.61,A353XKDTUX10NC,3YGE63DIOBDQKTHDUYZ9OUNPB7QW00,3C8HJ7UOPBAU3LRJKSBGAFK7VDJZM9,4,3
62,4,object_04,object_06,704.0,8,1,753.0,0.1111111111111111,2,object_01,1,557,0,3,1,restaurant_1,2,memory-2step-stake-s,554,1351549,0.0-19.0-0.0-0.62,A353XKDTUX10NC,3YGE63DIOBDQKTHDUYZ9OUNPB7QW00,3C8HJ7UOPBAU3LRJKSBGAFK7VDJZM9,8,7
63,2,object_05,object_02,630.0,3,2,396.0,0.2222222222222222,1,object_08,5,567,0,2,1,forest_7,2,memory-2step-stake-s,555,1359360,0.0-19.0-0.0-0.63,A353XKDTUX10NC,3YGE63DIOBDQKTHDUYZ9OUNPB7QW00,3C8HJ7UOPBAU3LRJKSBGAFK7VDJZM9,4,3
64,3,object_07,object_03,970.0,6,1,746.0,0.3333333333333333,2,object_01,1,570,0,3,3,library_8,2,memory-2step-stake-s,556,1367619,0.0-19.0-0.0-0.64,A353XKDTUX10NC,3YGE63DIOBDQKTHDUYZ9OUNPB7QW00,3C8HJ7UOPBAU3LRJKSBGAFK7VDJZM9,6,5
65,4,object_06,object_04,910.0,8,2,558.0,0.5555555555555556,2,object_01,1,575,0,2,5,restaurant_5,2,memory-2step-stake-s,557,1375891,0.0-19.0-0.0-0.65,A353XKDTUX10NC,3YGE63DIOBDQKTHDUYZ9OUNPB7QW00,3C8HJ7UOPBAU3LRJKSBGAFK7VDJZM9,7,8
66,1,object_10,object_09,637.0,1,2,492.0,0.1111111111111111,1,object_08,1,576,0,1,4,desert_2,2,memory-2step-stake-s,558,1383695,0.0-19.0-0.0-0.66,A353XKDTUX10NC,3YGE63DIOBDQKTHDUYZ9OUNPB7QW00,3C8HJ7UOPBAU3LRJKSBGAFK7VDJZM9,2,1
67,3,object_03,object_07,821.0,5,1,601.0,0.1111111111111111,1,object_08,5,581,0,1,6,library_5,2,memory-2step-stake-s,559,1391606,0.0-19.0-0.0-0.67,A353XKDTUX10NC,3YGE63DIOBDQKTHDUYZ9OUNPB7QW00,3C8HJ7UOPBAU3LRJKSBGAFK7VDJZM9,5,6
68,3,object_07,object_03,695.0,5,2,894.0,0.2222222222222222,1,object_08,1,583,0,2,4,library_5,2,memory-2step-stake-s,560,1399913,0.0-19.0-0.0-0.68,A353XKDTUX10NC,3YGE63DIOBDQKTHDUYZ9OUNPB7QW00,3C8HJ7UOPBAU3LRJKSBGAFK7VDJZM9,6,5
69,1,object_09,object_10,722.0,2,2,509.0,0.2222222222222222,2,object_01,5,593,0,4,2,desert_6,2,memory-2step-stake-s,561,1407832,0.0-19.0-0.0-0.69,A353XKDTUX10NC,3YGE63DIOBDQKTHDUYZ9OUNPB7QW00,3C8HJ7UOPBAU3LRJKSBGAFK7VDJZM9,1,2
70,1,object_09,object_10,706.0,1,1,592.0,0.4444444444444444,1,object_08,5,613,0,4,1,desert_3,2,memory-2step-stake-s,562,1416039,0.0-19.0-0.0-0.70,A353XKDTUX10NC,3YGE63DIOBDQKTHDUYZ9OUNPB7QW00,3C8HJ7UOPBAU3LRJKSBGAFK7VDJZM9,1,2
71,2,object_02,object_05,665.0,3,1,557.0,0.6666666666666666,1,object_08,5,643,0,6,1,forest_4,2,memory-2step-stake-s,563,1424406,0.0-19.0-0.0-0.71,A353XKDTUX10NC,3YGE63DIOBDQKTHDUYZ9OUNPB7QW00,3C8HJ7UOPBAU3LRJKSBGAFK7VDJZM9,3,4
72,2,object_02,object_05,576.0,3,1,526.0,0.6666666666666666,1,object_08,5,673,0,6,3,forest_8,2,memory-2step-stake-s,564,1432749,0.0-19.0-0.0-0.72,A353XKDTUX10NC,3YGE63DIOBDQKTHDUYZ9OUNPB7QW00,3C8HJ7UOPBAU3LRJKSBGAFK7VDJZM9,3,4
73,3,object_03,object_07,728.0,6,2,487.0,0.6666666666666666,2,object_01,1,679,0,6,6,library_2,2,memory-2step-stake-s,565,1441051,0.0-19.0-0.0-0.73,A353XKDTUX10NC,3YGE63DIOBDQKTHDUYZ9OUNPB7QW00,3C8HJ7UOPBAU3LRJKSBGAFK7VDJZM9,5,6
74,4,object_04,object_06,512.0,8,1,587.0,0.8888888888888888,2,object_01,1,687,0,5,8,restaurant_1,2,memory-2step-stake-s,566,1449651,0.0-19.0-0.0-0.74,A353XKDTUX10NC,3YGE63DIOBDQKTHDUYZ9OUNPB7QW00,3C8HJ7UOPBAU3LRJKSBGAFK7VDJZM9,8,7
75,3,object_03,object_07,671.0,6,2,559.0,0.5555555555555556,2,object_01,5,712,0,5,5,library_5,2,memory-2step-stake-s,567,1457923,0.0-19.0-0.0-0.75,A353XKDTUX10NC,3YGE63DIOBDQKTHDUYZ9OUNPB7QW00,3C8HJ7UOPBAU3LRJKSBGAFK7VDJZM9,5,6
76,4,object_06,object_04,516.0,7,1,564.0,0.7777777777777778,1,object_08,1,719,0,7,6,restaurant_2,2,memory-2step-stake-s,568,1466403,0.0-19.0-0.0-0.76,A353XKDTUX10NC,3YGE63DIOBDQKTHDUYZ9OUNPB7QW00,3C8HJ7UOPBAU3LRJKSBGAFK7VDJZM9,7,8
77,3,object_03,object_07,508.0,6,2,436.0,0.7777777777777778,2,object_01,5,754,0,5,7,library_5,2,memory-2step-stake-s,569,1474754,0.0-19.0-0.0-0.77,A353XKDTUX10NC,3YGE63DIOBDQKTHDUYZ9OUNPB7QW00,3C8HJ7UOPBAU3LRJKSBGAFK7VDJZM9,5,6
78,2,object_02,object_05,316.0,4,2,420.0,0.5555555555555556,2,object_01,5,779,0,2,5,forest_5,2,memory-2step-stake-s,570,1482887,0.0-19.0-0.0-0.78,A353XKDTUX10NC,3YGE63DIOBDQKTHDUYZ9OUNPB7QW00,3C8HJ7UOPBAU3LRJKSBGAFK7VDJZM9,3,4
79,2,object_02,object_05,493.0,3,1,520.0,0.2222222222222222,1,object_08,5,789,0,2,2,forest_8,2,memory-2step-stake-s,571,1490816,0.0-19.0-0.0-0.79,A353XKDTUX10NC,3YGE63DIOBDQKTHDUYZ9OUNPB7QW00,3C8HJ7UOPBAU3LRJKSBGAFK7VDJZM9,3,4
80,1,object_10,object_09,474.0,1,2,497.0,0.2222222222222222,1,object_08,5,799,0,2,1,desert_3,2,memory-2step-stake-s,572,1498726,0.0-19.0-0.0-0.80,A353XKDTUX10NC,3YGE63DIOBDQKTHDUYZ9OUNPB7QW00,3C8HJ7UOPBAU3LRJKSBGAFK7VDJZM9,2,1
81,3,object_03,object_07,538.0,5,1,561.0,0.2222222222222222,1,object_08,1,801,0,2,3,library_8,2,memory-2step-stake-s,573,1506701,0.0-19.0-0.0-0.81,A353XKDTUX10NC,3YGE63DIOBDQKTHDUYZ9OUNPB7QW00,3C8HJ7UOPBAU3LRJKSBGAFK7VDJZM9,5,6
82,2,object_05,object_02,586.0,3,2,510.0,0.3333333333333333,1,object_08,5,816,0,3,3,forest_5,2,memory-2step-stake-s,574,1514720,0.0-19.0-0.0-0.82,A353XKDTUX10NC,3YGE63DIOBDQKTHDUYZ9OUNPB7QW00,3C8HJ7UOPBAU3LRJKSBGAFK7VDJZM9,4,3
83,3,object_07,object_03,637.0,5,2,771.0,0.5555555555555556,1,object_08,1,821,0,5,3,library_8,2,memory-2step-stake-s,575,1523207,0.0-19.0-0.0-0.83,A353XKDTUX10NC,3YGE63DIOBDQKTHDUYZ9OUNPB7QW00,3C8HJ7UOPBAU3LRJKSBGAFK7VDJZM9,6,5
84,1,object_09,object_10,685.0,1,1,628.0,0.0,1,object_08,5,821,0,0,2,desert_2,2,memory-2step-stake-s,576,1531049,0.0-19.0-0.0-0.84,A353XKDTUX10NC,3YGE63DIOBDQKTHDUYZ9OUNPB7QW00,3C8HJ7UOPBAU3LRJKSBGAFK7VDJZM9,1,2
85,4,object_06,object_04,883.0,8,2,562.0,0.2222222222222222,2,object_01,1,823,0,1,2,restaurant_5,2,memory-2step-stake-s,577,1539024,0.0-19.0-0.0-0.85,A353XKDTUX10NC,3YGE63DIOBDQKTHDUYZ9OUNPB7QW00,3C8HJ7UOPBAU3LRJKSBGAFK7VDJZM9,7,8
86,4,object_04,object_06,1106.0,7,2,544.0,0.1111111111111111,1,object_08,1,824,0,1,0,restaurant_1,2,memory-2step-stake-s,578,1546882,0.0-19.0-0.0-0.86,A353XKDTUX10NC,3YGE63DIOBDQKTHDUYZ9OUNPB7QW00,3C8HJ7UOPBAU3LRJKSBGAFK7VDJZM9,8,7
87,1,object_10,object_09,1150.0,2,1,426.0,0.2222222222222222,2,object_01,5,834,0,3,2,desert_6,2,memory-2step-stake-s,579,1554717,0.0-19.0-0.0-0.87,A353XKDTUX10NC,3YGE63DIOBDQKTHDUYZ9OUNPB7QW00,3C8HJ7UOPBAU3LRJKSBGAFK7VDJZM9,2,1
88,3,object_03,object_07,353.0,6,2,679.0,0.2222222222222222,2,object_01,1,836,0,3,2,library_2,2,memory-2step-stake-s,580,1562811,0.0-19.0-0.0-0.88,A353XKDTUX10NC,3YGE63DIOBDQKTHDUYZ9OUNPB7QW00,3C8HJ7UOPBAU3LRJKSBGAFK7VDJZM9,5,6
89,4,object_06,object_04,378.0,7,1,602.0,0.3333333333333333,1,object_08,1,839,0,3,1,restaurant_2,2,memory-2step-stake-s,581,1570926,0.0-19.0-0.0-0.89,A353XKDTUX10NC,3YGE63DIOBDQKTHDUYZ9OUNPB7QW00,3C8HJ7UOPBAU3LRJKSBGAFK7VDJZM9,7,8
90,4,object_06,object_04,869.0,7,1,638.0,0.4444444444444444,1,object_08,1,843,0,4,2,restaurant_5,2,memory-2step-stake-s,582,1579177,0.0-19.0-0.0-0.90,A353XKDTUX10NC,3YGE63DIOBDQKTHDUYZ9OUNPB7QW00,3C8HJ7UOPBAU3LRJKSBGAFK7VDJZM9,7,8
91,4,object_04,object_06,553.0,7,2,537.0,0.4444444444444444,1,object_08,1,847,0,4,2,restaurant_3,2,memory-2step-stake-s,583,1587328,0.0-19.0-0.0-0.91,A353XKDTUX10NC,3YGE63DIOBDQKTHDUYZ9OUNPB7QW00,3C8HJ7UOPBAU3LRJKSBGAFK7VDJZM9,8,7
92,3,object_03,object_07,1065.0,5,1,631.0,0.6666666666666666,1,object_08,1,853,0,6,3,library_8,2,memory-2step-stake-s,584,1595775,0.0-19.0-0.0-0.92,A353XKDTUX10NC,3YGE63DIOBDQKTHDUYZ9OUNPB7QW00,3C8HJ7UOPBAU3LRJKSBGAFK7VDJZM9,5,6
93,1,object_10,object_09,808.0,1,2,456.0,0.4444444444444444,1,object_08,5,873,0,4,5,desert_8,2,memory-2step-stake-s,585,1603845,0.0-19.0-0.0-0.93,A353XKDTUX10NC,3YGE63DIOBDQKTHDUYZ9OUNPB7QW00,3C8HJ7UOPBAU3LRJKSBGAFK7VDJZM9,2,1
94,1,object_10,object_09,650.0,1,2,368.0,0.5555555555555556,1,object_08,5,898,0,5,3,desert_6,2,memory-2step-stake-s,586,1611928,0.0-19.0-0.0-0.94,A353XKDTUX10NC,3YGE63DIOBDQKTHDUYZ9OUNPB7QW00,3C8HJ7UOPBAU3LRJKSBGAFK7VDJZM9,2,1
95,4,object_06,object_04,636.0,8,2,356.0,0.1111111111111111,2,object_01,1,899,0,4,1,restaurant_2,2,memory-2step-stake-s,587,1619596,0.0-19.0-0.0-0.95,A353XKDTUX10NC,3YGE63DIOBDQKTHDUYZ9OUNPB7QW00,3C8HJ7UOPBAU3LRJKSBGAFK7VDJZM9,7,8
96,4,object_06,object_04,887.0,7,1,335.0,0.3333333333333333,1,object_08,1,902,0,3,1,restaurant_5,2,memory-2step-stake-s,588,1627444,0.0-19.0-0.0-0.96,A353XKDTUX10NC,3YGE63DIOBDQKTHDUYZ9OUNPB7QW00,3C8HJ7UOPBAU3LRJKSBGAFK7VDJZM9,7,8
97,3,object_07,object_03,877.0,5,2,540.0,0.0,1,object_08,5,902,0,0,3,library_6,2,memory-2step-stake-s,589,1635197,0.0-19.0-0.0-0.97,A353XKDTUX10NC,3YGE63DIOBDQKTHDUYZ9OUNPB7QW00,3C8HJ7UOPBAU3LRJKSBGAFK7VDJZM9,6,5
98,3,object_07,object_03,651.0,5,2,395.0,0.2222222222222222,1,object_08,5,912,0,2,2,library_6,2,memory-2step-stake-s,590,1643004,0.0-19.0-0.0-0.98,A353XKDTUX10NC,3YGE63DIOBDQKTHDUYZ9OUNPB7QW00,3C8HJ7UOPBAU3LRJKSBGAFK7VDJZM9,6,5
99,2,object_02,object_05,826.0,3,1,418.0,0.2222222222222222,1,object_08,5,922,0,2,0,forest_5,2,memory-2step-stake-s,591,1650835,0.0-19.0-0.0-0.99,A353XKDTUX10NC,3YGE63DIOBDQKTHDUYZ9OUNPB7QW00,3C8HJ7UOPBAU3LRJKSBGAFK7VDJZM9,3,4
100,1,object_10,object_09,634.0,1,2,560.0,0.5555555555555556,1,object_08,5,947,0,5,3,desert_8,2,memory-2step-stake-s,592,1659111,0.0-19.0-0.0-0.100,A353XKDTUX10NC,3YGE63DIOBDQKTHDUYZ9OUNPB7QW00,3C8HJ7UOPBAU3LRJKSBGAFK7VDJZM9,2,1
101,2,object_02,object_05,622.0,3,1,678.0,0.5555555555555556,1,object_08,5,972,0,5,5,forest_8,2,memory-2step-stake-s,593,1667501,0.0-19.0-0.0-0.101,A353XKDTUX10NC,3YGE63DIOBDQKTHDUYZ9OUNPB7QW00,3C8HJ7UOPBAU3LRJKSBGAFK7VDJZM9,3,4
102,1,object_09,object_10,757.0,1,1,549.0,0.5555555555555556,1,object_08,5,997,0,5,4,desert_6,2,memory-2step-stake-s,594,1675764,0.0-19.0-0.0-0.102,A353XKDTUX10NC,3YGE63DIOBDQKTHDUYZ9OUNPB7QW00,3C8HJ7UOPBAU3LRJKSBGAFK7VDJZM9,1,2
103,1,object_09,object_10,724.0,1,1,580.0,0.6666666666666666,1,object_08,5,1027,0,6,2,desert_2,2,memory-2step-stake-s,595,1684159,0.0-19.0-0.0-0.103,A353XKDTUX10NC,3YGE63DIOBDQKTHDUYZ9OUNPB7QW00,3C8HJ7UOPBAU3LRJKSBGAFK7VDJZM9,1,2
104,4,object_06,object_04,752.0,8,2,646.0,0.4444444444444444,2,object_01,1,1031,0,7,4,restaurant_3,2,memory-2step-stake-s,596,1692420,0.0-19.0-0.0-0.104,A353XKDTUX10NC,3YGE63DIOBDQKTHDUYZ9OUNPB7QW00,3C8HJ7UOPBAU3LRJKSBGAFK7VDJZM9,7,8
105,3,object_07,object_03,793.0,5,2,353.0,1.0,1,object_08,1,1040,0,9,4,library_5,2,memory-2step-stake-s,597,1700889,0.0-19.0-0.0-0.105,A353XKDTUX10NC,3YGE63DIOBDQKTHDUYZ9OUNPB7QW00,3C8HJ7UOPBAU3LRJKSBGAFK7VDJZM9,6,5
106,4,object_06,object_04,700.0,8,2,660.0,0.6666666666666666,2,object_01,1,1046,0,5,6,restaurant_2,2,memory-2step-stake-s,598,1709362,0.0-19.0-0.0-0.106,A353XKDTUX10NC,3YGE63DIOBDQKTHDUYZ9OUNPB7QW00,3C8HJ7UOPBAU3LRJKSBGAFK7VDJZM9,7,8
107,3,object_03,object_07,584.0,5,1,502.0,0.5555555555555556,1,object_08,5,1071,0,5,5,library_8,2,memory-2step-stake-s,599,1717580,0.0-19.0-0.0-0.107,A353XKDTUX10NC,3YGE63DIOBDQKTHDUYZ9OUNPB7QW00,3C8HJ7UOPBAU3LRJKSBGAFK7VDJZM9,5,6
108,4,object_04,object_06,669.0,7,2,629.0,0.4444444444444444,1,object_08,1,1075,0,4,7,restaurant_3,2,memory-2step-stake-s,600,1725822,0.0-19.0-0.0-0.108,A353XKDTUX10NC,3YGE63DIOBDQKTHDUYZ9OUNPB7QW00,3C8HJ7UOPBAU3LRJKSBGAFK7VDJZM9,8,7
109,3,object_03,object_07,849.0,5,1,938.0,0.3333333333333333,1,object_08,5,1090,0,3,7,library_5,2,memory-2step-stake-s,601,1734272,0.0-19.0-0.0-0.109,A353XKDTUX10NC,3YGE63DIOBDQKTHDUYZ9OUNPB7QW00,3C8HJ7UOPBAU3LRJKSBGAFK7VDJZM9,5,6
110,4,object_04,object_06,61.0,7,2,449.0,0.2222222222222222,1,object_08,1,1092,0,2,8,restaurant_3,2,memory-2step-stake-s,602,1742131,0.0-19.0-0.0-0.110,A353XKDTUX10NC,3YGE63DIOBDQKTHDUYZ9OUNPB7QW00,3C8HJ7UOPBAU3LRJKSBGAFK7VDJZM9,8,7
111,3,object_07,object_03,625.0,5,2,400.0,0.3333333333333333,1,object_08,5,1107,0,3,6,library_2,2,memory-2step-stake-s,603,1750046,0.0-19.0-0.0-0.111,A353XKDTUX10NC,3YGE63DIOBDQKTHDUYZ9OUNPB7QW00,3C8HJ7UOPBAU3LRJKSBGAFK7VDJZM9,6,5
112,3,object_07,object_03,509.0,5,2,909.0,0.4444444444444444,1,object_08,1,1111,0,4,5,library_5,2,memory-2step-stake-s,604,1758568,0.0-19.0-0.0-0.112,A353XKDTUX10NC,3YGE63DIOBDQKTHDUYZ9OUNPB7QW00,3C8HJ7UOPBAU3LRJKSBGAFK7VDJZM9,6,5
113,3,object_07,object_03,713.0,5,2,586.0,0.6666666666666666,1,object_08,1,1117,0,6,3,library_8,2,memory-2step-stake-s,605,1766968,0.0-19.0-0.0-0.113,A353XKDTUX10NC,3YGE63DIOBDQKTHDUYZ9OUNPB7QW00,3C8HJ7UOPBAU3LRJKSBGAFK7VDJZM9,6,5
114,4,object_06,object_04,656.0,8,2,691.0,0.5555555555555556,2,object_01,1,1122,0,9,5,restaurant_2,2,memory-2step-stake-s,606,1775370,0.0-19.0-0.0-0.114,A353XKDTUX10NC,3YGE63DIOBDQKTHDUYZ9OUNPB7QW00,3C8HJ7UOPBAU3LRJKSBGAFK7VDJZM9,7,8
115,1,object_10,object_09,692.0,1,2,691.0,0.6666666666666666,1,object_08,5,1152,0,6,4,desert_6,2,memory-2step-stake-s,607,1783877,0.0-19.0-0.0-0.115,A353XKDTUX10NC,3YGE63DIOBDQKTHDUYZ9OUNPB7QW00,3C8HJ7UOPBAU3LRJKSBGAFK7VDJZM9,2,1
116,4,object_04,object_06,599.0,8,1,502.0,0.3333333333333333,2,object_01,1,1155,0,5,3,restaurant_5,2,memory-2step-stake-s,608,1791894,0.0-19.0-0.0-0.116,A353XKDTUX10NC,3YGE63DIOBDQKTHDUYZ9OUNPB7QW00,3C8HJ7UOPBAU3LRJKSBGAFK7VDJZM9,8,7
117,2,object_02,object_05,717.0,3,1,380.0,0.6666666666666666,1,object_08,1,1161,0,6,2,forest_5,2,memory-2step-stake-s,609,1800090,0.0-19.0-0.0-0.117,A353XKDTUX10NC,3YGE63DIOBDQKTHDUYZ9OUNPB7QW00,3C8HJ7UOPBAU3LRJKSBGAFK7VDJZM9,3,4
118,1,object_10,object_09,655.0,2,1,469.0,0.1111111111111111,2,object_01,5,1166,0,6,1,desert_3,2,memory-2step-stake-s,610,1807874,0.0-19.0-0.0-0.118,A353XKDTUX10NC,3YGE63DIOBDQKTHDUYZ9OUNPB7QW00,3C8HJ7UOPBAU3LRJKSBGAFK7VDJZM9,2,1
119,1,object_10,object_09,414.0,1,2,519.0,0.7777777777777778,1,object_08,5,1201,0,7,2,desert_3,2,memory-2step-stake-s,611,1816307,0.0-19.0-0.0-0.119,A353XKDTUX10NC,3YGE63DIOBDQKTHDUYZ9OUNPB7QW00,3C8HJ7UOPBAU3LRJKSBGAFK7VDJZM9,2,1
120,4,object_06,object_04,732.0,8,2,1242.0,0.4444444444444444,2,object_01,1,1205,0,8,4,restaurant_1,2,memory-2step-stake-s,612,1825164,0.0-19.0-0.0-0.120,A353XKDTUX10NC,3YGE63DIOBDQKTHDUYZ9OUNPB7QW00,3C8HJ7UOPBAU3LRJKSBGAFK7VDJZM9,7,8
121,1,object_10,object_09,312.0,2,1,539.0,0.4444444444444444,2,object_01,5,1225,0,7,4,desert_2,2,memory-2step-stake-s,613,1833314,0.0-19.0-0.0-0.121,A353XKDTUX10NC,3YGE63DIOBDQKTHDUYZ9OUNPB7QW00,3C8HJ7UOPBAU3LRJKSBGAFK7VDJZM9,2,1
122,3,object_07,object_03,393.0,5,2,529.0,0.7777777777777778,1,object_08,1,1232,0,7,4,library_6,2,memory-2step-stake-s,614,1841758,0.0-19.0-0.0-0.122,A353XKDTUX10NC,3YGE63DIOBDQKTHDUYZ9OUNPB7QW00,3C8HJ7UOPBAU3LRJKSBGAFK7VDJZM9,6,5
123,3,object_07,object_03,395.0,5,2,381.0,0.8888888888888888,1,object_08,1,1240,0,8,0,library_6,2,memory-2step-stake-s,615,1850153,0.0-19.0-0.0-0.123,A353XKDTUX10NC,3YGE63DIOBDQKTHDUYZ9OUNPB7QW00,3C8HJ7UOPBAU3LRJKSBGAFK7VDJZM9,6,5
124,4,object_04,object_06,536.0,7,2,382.0,1.0,1,object_08,1,1249,0,9,1,restaurant_3,2,memory-2step-stake-s,616,1858652,0.0-19.0-0.0-0.124,A353XKDTUX10NC,3YGE63DIOBDQKTHDUYZ9OUNPB7QW00,3C8HJ7UOPBAU3LRJKSBGAFK7VDJZM9,8,7
125,4,object_06,object_04,626.0,8,2,585.0,0.0,2,object_01,1,1249,0,7,0,restaurant_1,2,memory-2step-stake-s,617,1866450,0.0-19.0-0.0-0.125,A353XKDTUX10NC,3YGE63DIOBDQKTHDUYZ9OUNPB7QW00,3C8HJ7UOPBAU3LRJKSBGAFK7VDJZM9,7,8
126,4,object_04,object_06,738.0,7,2,626.0,0.7777777777777778,1,object_08,1,1256,0,7,4,restaurant_2,2,memory-2step-stake-s,618,1874992,0.0-19.0-0.0-0.126,A353XKDTUX10NC,3YGE63DIOBDQKTHDUYZ9OUNPB7QW00,3C8HJ7UOPBAU3LRJKSBGAFK7VDJZM9,8,7
127,4,object_04,object_06,1019.0,8,1,907.0,0.5555555555555556,2,object_01,1,1261,0,8,5,restaurant_5,2,memory-2step-stake-s,619,1883614,0.0-19.0-0.0-0.127,A353XKDTUX10NC,3YGE63DIOBDQKTHDUYZ9OUNPB7QW00,3C8HJ7UOPBAU3LRJKSBGAFK7VDJZM9,8,7
128,2,object_05,object_02,919.0,4,1,1096.0,0.5555555555555556,2,object_01,5,1286,0,7,5,forest_8,2,memory-2step-stake-s,621,1931518,0.0-19.0-0.1-0.128,A353XKDTUX10NC,3YGE63DIOBDQKTHDUYZ9OUNPB7QW00,3C8HJ7UOPBAU3LRJKSBGAFK7VDJZM9,4,3
129,1,object_10,object_09,572.0,1,2,563.0,0.6666666666666666,1,object_08,5,1316,0,6,4,desert_6,2,memory-2step-stake-s,622,1939896,0.0-19.0-0.1-0.129,A353XKDTUX10NC,3YGE63DIOBDQKTHDUYZ9OUNPB7QW00,3C8HJ7UOPBAU3LRJKSBGAFK7VDJZM9,2,1
130,3,object_07,object_03,807.0,5,2,511.0,0.6666666666666666,1,object_08,1,1322,0,6,3,library_2,2,memory-2step-stake-s,623,1948222,0.0-19.0-0.1-0.130,A353XKDTUX10NC,3YGE63DIOBDQKTHDUYZ9OUNPB7QW00,3C8HJ7UOPBAU3LRJKSBGAFK7VDJZM9,6,5
131,2,object_02,object_05,664.0,3,1,532.0,0.4444444444444444,1,object_08,5,1342,0,4,4,forest_8,2,memory-2step-stake-s,624,1956364,0.0-19.0-0.1-0.131,A353XKDTUX10NC,3YGE63DIOBDQKTHDUYZ9OUNPB7QW00,3C8HJ7UOPBAU3LRJKSBGAFK7VDJZM9,3,4
132,3,object_07,object_03,1056.0,5,2,448.0,0.8888888888888888,1,object_08,1,1350,0,8,5,library_5,2,memory-2step-stake-s,625,1964828,0.0-19.0-0.1-0.132,A353XKDTUX10NC,3YGE63DIOBDQKTHDUYZ9OUNPB7QW00,3C8HJ7UOPBAU3LRJKSBGAFK7VDJZM9,6,5
133,1,object_10,object_09,600.0,1,2,502.0,0.7777777777777778,1,object_08,5,1385,0,7,4,desert_3,2,memory-2step-stake-s,626,1973246,0.0-19.0-0.1-0.133,A353XKDTUX10NC,3YGE63DIOBDQKTHDUYZ9OUNPB7QW00,3C8HJ7UOPBAU3LRJKSBGAFK7VDJZM9,2,1
134,4,object_06,object_04,842.0,7,1,473.0,1.0,1,object_08,1,1394,0,9,4,restaurant_3,2,memory-2step-stake-s,627,1981837,0.0-19.0-0.1-0.134,A353XKDTUX10NC,3YGE63DIOBDQKTHDUYZ9OUNPB7QW00,3C8HJ7UOPBAU3LRJKSBGAFK7VDJZM9,7,8
135,2,object_02,object_05,626.0,3,1,442.0,0.6666666666666666,1,object_08,5,1424,0,6,3,forest_8,2,memory-2step-stake-s,628,1990095,0.0-19.0-0.1-0.135,A353XKDTUX10NC,3YGE63DIOBDQKTHDUYZ9OUNPB7QW00,3C8HJ7UOPBAU3LRJKSBGAFK7VDJZM9,3,4
136,2,object_02,object_05,591.0,3,1,528.0,0.5555555555555556,1,object_08,5,1449,0,5,4,forest_5,2,memory-2step-stake-s,629,1998337,0.0-19.0-0.1-0.136,A353XKDTUX10NC,3YGE63DIOBDQKTHDUYZ9OUNPB7QW00,3C8HJ7UOPBAU3LRJKSBGAFK7VDJZM9,3,4
137,4,object_04,object_06,852.0,7,2,628.0,0.4444444444444444,1,object_08,1,1453,0,4,3,restaurant_1,2,memory-2step-stake-s,630,2006578,0.0-19.0-0.1-0.137,A353XKDTUX10NC,3YGE63DIOBDQKTHDUYZ9OUNPB7QW00,3C8HJ7UOPBAU3LRJKSBGAFK7VDJZM9,8,7
138,4,object_04,object_06,840.0,7,2,357.0,0.4444444444444444,1,object_08,5,1473,0,4,1,restaurant_3,2,memory-2step-stake-s,631,2014553,0.0-19.0-0.1-0.138,A353XKDTUX10NC,3YGE63DIOBDQKTHDUYZ9OUNPB7QW00,3C8HJ7UOPBAU3LRJKSBGAFK7VDJZM9,8,7
139,4,object_04,object_06,793.0,8,1,656.0,0.0,2,object_01,1,1473,0,2,0,restaurant_5,2,memory-2step-stake-s,632,2022422,0.0-19.0-0.1-0.139,A353XKDTUX10NC,3YGE63DIOBDQKTHDUYZ9OUNPB7QW00,3C8HJ7UOPBAU3LRJKSBGAFK7VDJZM9,8,7
140,1,object_09,object_10,556.0,2,2,700.0,0.1111111111111111,2,object_01,5,1478,0,2,1,desert_8,2,memory-2step-stake-s,633,2030433,0.0-19.0-0.1-0.140,A353XKDTUX10NC,3YGE63DIOBDQKTHDUYZ9OUNPB7QW00,3C8HJ7UOPBAU3LRJKSBGAFK7VDJZM9,1,2
141,3,object_03,object_07,702.0,5,1,492.0,0.3333333333333333,1,object_08,1,1481,0,3,2,library_2,2,memory-2step-stake-s,634,2038440,0.0-19.0-0.1-0.141,A353XKDTUX10NC,3YGE63DIOBDQKTHDUYZ9OUNPB7QW00,3C8HJ7UOPBAU3LRJKSBGAFK7VDJZM9,5,6
142,1,object_10,object_09,878.0,1,2,382.0,0.2222222222222222,1,object_08,5,1491,0,2,1,desert_2,2,memory-2step-stake-s,635,2046235,0.0-19.0-0.1-0.142,A353XKDTUX10NC,3YGE63DIOBDQKTHDUYZ9OUNPB7QW00,3C8HJ7UOPBAU3LRJKSBGAFK7VDJZM9,2,1
143,2,object_05,object_02,617.0,3,2,425.0,0.3333333333333333,1,object_08,5,1506,0,3,0,forest_8,2,memory-2step-stake-s,636,2054174,0.0-19.0-0.1-0.143,A353XKDTUX10NC,3YGE63DIOBDQKTHDUYZ9OUNPB7QW00,3C8HJ7UOPBAU3LRJKSBGAFK7VDJZM9,4,3
144,3,object_03,object_07,501.0,6,2,431.0,0.1111111111111111,2,object_01,1,1507,0,1,1,library_8,2,memory-2step-stake-s,637,2061915,0.0-19.0-0.1-0.144,A353XKDTUX10NC,3YGE63DIOBDQKTHDUYZ9OUNPB7QW00,3C8HJ7UOPBAU3LRJKSBGAFK7VDJZM9,5,6
145,2,object_02,object_05,574.0,3,1,462.0,0.0,1,object_08,5,1507,0,0,5,forest_4,2,memory-2step-stake-s,638,2069590,0.0-19.0-0.1-0.145,A353XKDTUX10NC,3YGE63DIOBDQKTHDUYZ9OUNPB7QW00,3C8HJ7UOPBAU3LRJKSBGAFK7VDJZM9,3,4
146,2,object_05,object_02,563.0,3,2,467.0,0.1111111111111111,1,object_08,5,1512,0,1,1,forest_4,2,memory-2step-stake-s,639,2077369,0.0-19.0-0.1-0.146,A353XKDTUX10NC,3YGE63DIOBDQKTHDUYZ9OUNPB7QW00,3C8HJ7UOPBAU3LRJKSBGAFK7VDJZM9,4,3
147,4,object_04,object_06,654.0,7,2,526.0,0.3333333333333333,1,object_08,1,1515,0,3,2,restaurant_1,2,memory-2step-stake-s,640,2085408,0.0-19.0-0.1-0.147,A353XKDTUX10NC,3YGE63DIOBDQKTHDUYZ9OUNPB7QW00,3C8HJ7UOPBAU3LRJKSBGAFK7VDJZM9,8,7
148,3,object_03,object_07,838.0,5,1,646.0,0.3333333333333333,1,object_08,1,1518,0,3,2,library_2,2,memory-2step-stake-s,641,2093567,0.0-19.0-0.1-0.148,A353XKDTUX10NC,3YGE63DIOBDQKTHDUYZ9OUNPB7QW00,3C8HJ7UOPBAU3LRJKSBGAFK7VDJZM9,5,6
149,1,object_09,object_10,484.0,2,2,436.0,0.5555555555555556,2,object_01,1,1523,0,6,5,desert_3,2,memory-2step-stake-s,642,2101718,0.0-19.0-0.1-0.149,A353XKDTUX10NC,3YGE63DIOBDQKTHDUYZ9OUNPB7QW00,3C8HJ7UOPBAU3LRJKSBGAFK7VDJZM9,1,2
150,2,object_05,object_02,587.0,3,2,435.0,0.5555555555555556,1,object_08,5,1548,0,5,7,forest_4,2,memory-2step-stake-s,643,2109869,0.0-19.0-0.1-0.150,A353XKDTUX10NC,3YGE63DIOBDQKTHDUYZ9OUNPB7QW00,3C8HJ7UOPBAU3LRJKSBGAFK7VDJZM9,4,3
151,4,object_04,object_06,717.0,7,2,612.0,0.2222222222222222,1,object_08,1,1550,0,2,7,restaurant_1,2,memory-2step-stake-s,644,2117894,0.0-19.0-0.1-0.151,A353XKDTUX10NC,3YGE63DIOBDQKTHDUYZ9OUNPB7QW00,3C8HJ7UOPBAU3LRJKSBGAFK7VDJZM9,8,7
152,2,object_02,object_05,593.0,3,1,383.0,0.2222222222222222,1,object_08,1,1552,0,2,5,forest_4,2,memory-2step-stake-s,645,2125692,0.0-19.0-0.1-0.152,A353XKDTUX10NC,3YGE63DIOBDQKTHDUYZ9OUNPB7QW00,3C8HJ7UOPBAU3LRJKSBGAFK7VDJZM9,3,4
153,3,object_07,object_03,578.0,5,2,698.0,0.0,1,object_08,1,1552,0,0,7,library_2,2,memory-2step-stake-s,646,2133601,0.0-19.0-0.1-0.153,A353XKDTUX10NC,3YGE63DIOBDQKTHDUYZ9OUNPB7QW00,3C8HJ7UOPBAU3LRJKSBGAFK7VDJZM9,6,5
154,4,object_04,object_06,682.0,7,2,625.0,0.1111111111111111,1,object_08,1,1553,0,1,9,restaurant_3,2,memory-2step-stake-s,647,2141541,0.0-19.0-0.1-0.154,A353XKDTUX10NC,3YGE63DIOBDQKTHDUYZ9OUNPB7QW00,3C8HJ7UOPBAU3LRJKSBGAFK7VDJZM9,8,7
155,1,object_09,object_10,701.0,1,1,507.0,0.0,1,object_08,1,1553,0,0,8,desert_8,2,memory-2step-stake-s,648,2149263,0.0-19.0-0.1-0.155,A353XKDTUX10NC,3YGE63DIOBDQKTHDUYZ9OUNPB7QW00,3C8HJ7UOPBAU3LRJKSBGAFK7VDJZM9,1,2
156,1,object_10,object_09,547.0,1,2,580.0,0.1111111111111111,1,object_08,5,1558,0,1,6,desert_2,2,memory-2step-stake-s,649,2157154,0.0-19.0-0.1-0.156,A353XKDTUX10NC,3YGE63DIOBDQKTHDUYZ9OUNPB7QW00,3C8HJ7UOPBAU3LRJKSBGAFK7VDJZM9,2,1
157,1,object_09,object_10,438.0,1,1,662.0,0.1111111111111111,1,object_08,5,1563,0,1,6,desert_3,2,memory-2step-stake-s,650,2165129,0.0-19.0-0.1-0.157,A353XKDTUX10NC,3YGE63DIOBDQKTHDUYZ9OUNPB7QW00,3C8HJ7UOPBAU3LRJKSBGAFK7VDJZM9,1,2
158,2,object_05,object_02,566.0,3,2,717.0,0.1111111111111111,1,object_08,5,1568,0,1,7,forest_7,2,memory-2step-stake-s,651,2173159,0.0-19.0-0.1-0.158,A353XKDTUX10NC,3YGE63DIOBDQKTHDUYZ9OUNPB7QW00,3C8HJ7UOPBAU3LRJKSBGAFK7VDJZM9,4,3
159,4,object_04,object_06,837.0,7,2,741.0,0.2222222222222222,1,object_08,1,1570,0,2,6,restaurant_5,2,memory-2step-stake-s,652,2181314,0.0-19.0-0.1-0.159,A353XKDTUX10NC,3YGE63DIOBDQKTHDUYZ9OUNPB7QW00,3C8HJ7UOPBAU3LRJKSBGAFK7VDJZM9,8,7
160,4,object_06,object_04,683.0,8,2,611.0,0.5555555555555556,2,object_01,1,1575,0,2,5,restaurant_3,2,memory-2step-stake-s,653,2189638,0.0-19.0-0.1-0.160,A353XKDTUX10NC,3YGE63DIOBDQKTHDUYZ9OUNPB7QW00,3C8HJ7UOPBAU3LRJKSBGAFK7VDJZM9,7,8
161,1,object_09,object_10,669.0,1,1,419.0,0.0,1,object_08,5,1575,0,0,8,desert_2,2,memory-2step-stake-s,654,2197270,0.0-19.0-0.1-0.161,A353XKDTUX10NC,3YGE63DIOBDQKTHDUYZ9OUNPB7QW00,3C8HJ7UOPBAU3LRJKSBGAFK7VDJZM9,1,2
162,4,object_04,object_06,522.0,7,2,-1.0,0.0,1,object_08,1,1575,0,1,9,restaurant_2,2,memory-2step-stake-s,655,2205782,0.0-19.0-0.1-0.162,A353XKDTUX10NC,3YGE63DIOBDQKTHDUYZ9OUNPB7QW00,3C8HJ7UOPBAU3LRJKSBGAFK7VDJZM9,8,7
163,1,object_10,object_09,625.0,1,2,560.0,0.4444444444444444,1,object_08,5,1595,0,4,6,desert_6,2,memory-2step-stake-s,656,2213957,0.0-19.0-0.1-0.163,A353XKDTUX10NC,3YGE63DIOBDQKTHDUYZ9OUNPB7QW00,3C8HJ7UOPBAU3LRJKSBGAFK7VDJZM9,2,1
164,4,object_06,object_04,432.0,8,2,519.0,0.8888888888888888,2,object_01,1,1603,0,5,8,restaurant_2,2,memory-2step-stake-s,657,2222493,0.0-19.0-0.1-0.164,A353XKDTUX10NC,3YGE63DIOBDQKTHDUYZ9OUNPB7QW00,3C8HJ7UOPBAU3LRJKSBGAFK7VDJZM9,7,8
165,2,object_05,object_02,536.0,3,2,384.0,0.5555555555555556,1,object_08,5,1628,0,5,7,forest_8,2,memory-2step-stake-s,658,2230591,0.0-19.0-0.1-0.165,A353XKDTUX10NC,3YGE63DIOBDQKTHDUYZ9OUNPB7QW00,3C8HJ7UOPBAU3LRJKSBGAFK7VDJZM9,4,3
166,2,object_02,object_05,597.0,3,1,517.0,1.0,1,object_08,5,1673,0,9,7,forest_5,2,memory-2step-stake-s,659,2239222,0.0-19.0-0.1-0.166,A353XKDTUX10NC,3YGE63DIOBDQKTHDUYZ9OUNPB7QW00,3C8HJ7UOPBAU3LRJKSBGAFK7VDJZM9,3,4
167,3,object_07,object_03,907.0,5,2,442.0,0.4444444444444444,1,object_08,1,1677,0,4,6,library_6,2,memory-2step-stake-s,660,2247279,0.0-19.0-0.1-0.167,A353XKDTUX10NC,3YGE63DIOBDQKTHDUYZ9OUNPB7QW00,3C8HJ7UOPBAU3LRJKSBGAFK7VDJZM9,6,5
168,1,object_10,object_09,648.0,1,2,456.0,0.1111111111111111,1,object_08,5,1682,0,1,6,desert_8,2,memory-2step-stake-s,661,2255048,0.0-19.0-0.1-0.168,A353XKDTUX10NC,3YGE63DIOBDQKTHDUYZ9OUNPB7QW00,3C8HJ7UOPBAU3LRJKSBGAFK7VDJZM9,2,1
169,1,object_10,object_09,454.0,1,2,487.0,0.1111111111111111,1,object_08,5,1687,0,1,6,desert_3,2,memory-2step-stake-s,662,2262846,0.0-19.0-0.1-0.169,A353XKDTUX10NC,3YGE63DIOBDQKTHDUYZ9OUNPB7QW00,3C8HJ7UOPBAU3LRJKSBGAFK7VDJZM9,2,1
170,3,object_03,object_07,767.0,5,1,492.0,0.2222222222222222,1,object_08,1,1689,0,2,7,library_8,2,memory-2step-stake-s,663,2270754,0.0-19.0-0.1-0.170,A353XKDTUX10NC,3YGE63DIOBDQKTHDUYZ9OUNPB7QW00,3C8HJ7UOPBAU3LRJKSBGAFK7VDJZM9,5,6
171,3,object_07,object_03,755.0,5,2,546.0,0.2222222222222222,1,object_08,1,1691,0,2,5,library_5,2,memory-2step-stake-s,664,2278712,0.0-19.0-0.1-0.171,A353XKDTUX10NC,3YGE63DIOBDQKTHDUYZ9OUNPB7QW00,3C8HJ7UOPBAU3LRJKSBGAFK7VDJZM9,6,5
172,2,object_05,object_02,578.0,3,2,424.0,0.0,1,object_08,5,1691,0,0,2,forest_5,2,memory-2step-stake-s,665,2286349,0.0-19.0-0.1-0.172,A353XKDTUX10NC,3YGE63DIOBDQKTHDUYZ9OUNPB7QW00,3C8HJ7UOPBAU3LRJKSBGAFK7VDJZM9,4,3
173,2,object_02,object_05,666.0,4,2,464.0,0.0,2,object_01,5,1691,0,2,0,forest_7,2,memory-2step-stake-s,666,2294028,0.0-19.0-0.1-0.173,A353XKDTUX10NC,3YGE63DIOBDQKTHDUYZ9OUNPB7QW00,3C8HJ7UOPBAU3LRJKSBGAFK7VDJZM9,3,4
174,3,object_03,object_07,659.0,5,1,267.0,0.2222222222222222,1,object_08,1,1693,0,2,0,library_2,2,memory-2step-stake-s,667,2301709,0.0-19.0-0.1-0.174,A353XKDTUX10NC,3YGE63DIOBDQKTHDUYZ9OUNPB7QW00,3C8HJ7UOPBAU3LRJKSBGAFK7VDJZM9,5,6
175,3,object_07,object_03,641.0,5,2,848.0,0.2222222222222222,1,object_08,1,1695,0,2,0,library_2,2,memory-2step-stake-s,668,2309971,0.0-19.0-0.1-0.175,A353XKDTUX10NC,3YGE63DIOBDQKTHDUYZ9OUNPB7QW00,3C8HJ7UOPBAU3LRJKSBGAFK7VDJZM9,6,5
176,1,object_10,object_09,554.0,1,2,465.0,0.1111111111111111,1,object_08,5,1700,0,1,1,desert_3,2,memory-2step-stake-s,669,2317749,0.0-19.0-0.1-0.176,A353XKDTUX10NC,3YGE63DIOBDQKTHDUYZ9OUNPB7QW00,3C8HJ7UOPBAU3LRJKSBGAFK7VDJZM9,2,1
177,2,object_02,object_05,534.0,3,1,598.0,0.1111111111111111,1,object_08,5,1705,0,1,0,forest_8,2,memory-2step-stake-s,670,2325660,0.0-19.0-0.1-0.177,A353XKDTUX10NC,3YGE63DIOBDQKTHDUYZ9OUNPB7QW00,3C8HJ7UOPBAU3LRJKSBGAFK7VDJZM9,3,4
178,4,object_06,object_04,734.0,8,2,509.0,0.1111111111111111,2,object_01,1,1706,0,2,1,restaurant_5,2,memory-2step-stake-s,671,2333482,0.0-19.0-0.1-0.178,A353XKDTUX10NC,3YGE63DIOBDQKTHDUYZ9OUNPB7QW00,3C8HJ7UOPBAU3LRJKSBGAFK7VDJZM9,7,8
179,1,object_09,object_10,429.0,1,1,445.0,0.1111111111111111,1,object_08,5,1711,0,1,4,desert_2,2,memory-2step-stake-s,672,2341241,0.0-19.0-0.1-0.179,A353XKDTUX10NC,3YGE63DIOBDQKTHDUYZ9OUNPB7QW00,3C8HJ7UOPBAU3LRJKSBGAFK7VDJZM9,1,2
180,2,object_02,object_05,542.0,3,1,655.0,0.2222222222222222,1,object_08,5,1721,0,2,7,forest_8,2,memory-2step-stake-s,673,2349307,0.0-19.0-0.1-0.180,A353XKDTUX10NC,3YGE63DIOBDQKTHDUYZ9OUNPB7QW00,3C8HJ7UOPBAU3LRJKSBGAFK7VDJZM9,3,4
181,1,object_10,object_09,682.0,1,2,594.0,0.2222222222222222,1,object_08,5,1731,0,2,3,desert_3,2,memory-2step-stake-s,674,2357314,0.0-19.0-0.1-0.181,A353XKDTUX10NC,3YGE63DIOBDQKTHDUYZ9OUNPB7QW00,3C8HJ7UOPBAU3LRJKSBGAFK7VDJZM9,2,1
182,1,object_09,object_10,722.0,1,1,449.0,0.5555555555555556,1,object_08,5,1756,0,5,6,desert_6,2,memory-2step-stake-s,675,2365477,0.0-19.0-0.1-0.182,A353XKDTUX10NC,3YGE63DIOBDQKTHDUYZ9OUNPB7QW00,3C8HJ7UOPBAU3LRJKSBGAFK7VDJZM9,1,2
183,3,object_03,object_07,716.0,5,1,1227.0,0.4444444444444444,1,object_08,5,1776,0,4,5,library_8,2,memory-2step-stake-s,676,2374320,0.0-19.0-0.1-0.183,A353XKDTUX10NC,3YGE63DIOBDQKTHDUYZ9OUNPB7QW00,3C8HJ7UOPBAU3LRJKSBGAFK7VDJZM9,5,6
184,1,object_10,object_09,561.0,1,2,577.0,0.5555555555555556,1,object_08,5,1801,0,5,3,desert_3,2,memory-2step-stake-s,677,2382611,0.0-19.0-0.1-0.184,A353XKDTUX10NC,3YGE63DIOBDQKTHDUYZ9OUNPB7QW00,3C8HJ7UOPBAU3LRJKSBGAFK7VDJZM9,2,1
185,2,object_02,object_05,556.0,3,1,684.0,0.3333333333333333,1,object_08,5,1816,0,3,4,forest_7,2,memory-2step-stake-s,678,2390809,0.0-19.0-0.1-0.185,A353XKDTUX10NC,3YGE63DIOBDQKTHDUYZ9OUNPB7QW00,3C8HJ7UOPBAU3LRJKSBGAFK7VDJZM9,3,4
186,4,object_04,object_06,878.0,8,1,1150.0,0.5555555555555556,2,object_01,1,1821,0,0,5,restaurant_5,2,memory-2step-stake-s,679,2399672,0.0-19.0-0.1-0.186,A353XKDTUX10NC,3YGE63DIOBDQKTHDUYZ9OUNPB7QW00,3C8HJ7UOPBAU3LRJKSBGAFK7VDJZM9,8,7
187,2,object_02,object_05,645.0,3,1,390.0,0.3333333333333333,1,object_08,1,1824,0,3,8,forest_4,2,memory-2step-stake-s,680,2407573,0.0-19.0-0.1-0.187,A353XKDTUX10NC,3YGE63DIOBDQKTHDUYZ9OUNPB7QW00,3C8HJ7UOPBAU3LRJKSBGAFK7VDJZM9,3,4
188,2,object_02,object_05,661.0,3,1,652.0,0.3333333333333333,1,object_08,5,1839,0,3,9,forest_4,2,memory-2step-stake-s,681,2415740,0.0-19.0-0.1-0.188,A353XKDTUX10NC,3YGE63DIOBDQKTHDUYZ9OUNPB7QW00,3C8HJ7UOPBAU3LRJKSBGAFK7VDJZM9,3,4
189,1,object_10,object_09,670.0,1,2,478.0,0.4444444444444444,1,object_08,5,1859,0,4,5,desert_8,2,memory-2step-stake-s,682,2423831,0.0-19.0-0.1-0.189,A353XKDTUX10NC,3YGE63DIOBDQKTHDUYZ9OUNPB7QW00,3C8HJ7UOPBAU3LRJKSBGAFK7VDJZM9,2,1
190,1,object_09,object_10,480.0,1,1,376.0,0.5555555555555556,1,object_08,5,1884,0,5,8,desert_6,2,memory-2step-stake-s,683,2431921,0.0-19.0-0.1-0.190,A353XKDTUX10NC,3YGE63DIOBDQKTHDUYZ9OUNPB7QW00,3C8HJ7UOPBAU3LRJKSBGAFK7VDJZM9,1,2
191,3,object_03,object_07,380.0,5,1,427.0,0.3333333333333333,1,object_08,5,1899,0,3,7,library_2,2,memory-2step-stake-s,684,2439863,0.0-19.0-0.1-0.191,A353XKDTUX10NC,3YGE63DIOBDQKTHDUYZ9OUNPB7QW00,3C8HJ7UOPBAU3LRJKSBGAFK7VDJZM9,5,6
192,3,object_03,object_07,590.0,6,2,342.0,0.5555555555555556,2,object_01,1,1904,0,2,5,library_2,2,memory-2step-stake-s,685,2447919,0.0-19.0-0.1-0.192,A353XKDTUX10NC,3YGE63DIOBDQKTHDUYZ9OUNPB7QW00,3C8HJ7UOPBAU3LRJKSBGAFK7VDJZM9,5,6
193,4,object_06,object_04,1012.0,7,1,482.0,0.0,1,object_08,1,1904,0,0,8,restaurant_1,2,memory-2step-stake-s,686,2455615,0.0-19.0-0.1-0.193,A353XKDTUX10NC,3YGE63DIOBDQKTHDUYZ9OUNPB7QW00,3C8HJ7UOPBAU3LRJKSBGAFK7VDJZM9,7,8
194,3,object_03,object_07,563.0,6,2,332.0,0.7777777777777778,2,object_01,1,1911,0,2,7,library_6,2,memory-2step-stake-s,687,2463861,0.0-19.0-0.1-0.194,A353XKDTUX10NC,3YGE63DIOBDQKTHDUYZ9OUNPB7QW00,3C8HJ7UOPBAU3LRJKSBGAFK7VDJZM9,5,6
195,1,object_09,object_10,524.0,1,1,532.0,0.0,1,object_08,5,1911,0,0,8,desert_2,2,memory-2step-stake-s,688,2471604,0.0-19.0-0.1-0.195,A353XKDTUX10NC,3YGE63DIOBDQKTHDUYZ9OUNPB7QW00,3C8HJ7UOPBAU3LRJKSBGAFK7VDJZM9,1,2
196,1,object_10,object_09,611.0,1,2,287.0,0.2222222222222222,1,object_08,5,1921,0,2,8,desert_2,2,memory-2step-stake-s,689,2479308,0.0-19.0-0.1-0.196,A353XKDTUX10NC,3YGE63DIOBDQKTHDUYZ9OUNPB7QW00,3C8HJ7UOPBAU3LRJKSBGAFK7VDJZM9,2,1
197,3,object_03,object_07,945.0,5,1,448.0,0.3333333333333333,1,object_08,1,1924,0,3,9,library_2,2,memory-2step-stake-s,690,2487271,0.0-19.0-0.1-0.197,A353XKDTUX10NC,3YGE63DIOBDQKTHDUYZ9OUNPB7QW00,3C8HJ7UOPBAU3LRJKSBGAFK7VDJZM9,5,6
198,2,object_02,object_05,805.0,4,2,355.0,0.8888888888888888,2,object_01,5,1964,0,5,8,forest_4,2,memory-2step-stake-s,691,2495643,0.0-19.0-0.1-0.198,A353XKDTUX10NC,3YGE63DIOBDQKTHDUYZ9OUNPB7QW00,3C8HJ7UOPBAU3LRJKSBGAFK7VDJZM9,3,4
199,3,object_07,object_03,887.0,6,1,605.0,0.8888888888888888,2,object_01,5,2004,0,5,8,library_2,2,memory-2step-stake-s,692,2504265,0.0-19.0-0.1-0.199,A353XKDTUX10NC,3YGE63DIOBDQKTHDUYZ9OUNPB7QW00,3C8HJ7UOPBAU3LRJKSBGAFK7VDJZM9,6,5
200,2,object_05,object_02,727.0,4,1,-1.0,0.0,2,object_01,5,2004,0,5,5,forest_8,2,memory-2step-stake-s,693,2512779,0.0-19.0-0.1-0.200,A353XKDTUX10NC,3YGE63DIOBDQKTHDUYZ9OUNPB7QW00,3C8HJ7UOPBAU3LRJKSBGAFK7VDJZM9,4,3
201,3,object_07,object_03,972.0,6,1,708.0,0.4444444444444444,2,object_01,1,2008,0,6,4,library_5,2,memory-2step-stake-s,694,2521102,0.0-19.0-0.1-0.201,A353XKDTUX10NC,3YGE63DIOBDQKTHDUYZ9OUNPB7QW00,3C8HJ7UOPBAU3LRJKSBGAFK7VDJZM9,6,5
202,4,object_06,object_04,943.0,8,2,448.0,0.4444444444444444,2,object_01,1,2012,0,5,4,restaurant_1,2,memory-2step-stake-s,695,2529164,0.0-19.0-0.1-0.202,A353XKDTUX10NC,3YGE63DIOBDQKTHDUYZ9OUNPB7QW00,3C8HJ7UOPBAU3LRJKSBGAFK7VDJZM9,7,8
203,4,object_04,object_06,665.0,7,2,449.0,0.5555555555555556,1,object_08,1,2017,0,5,8,restaurant_2,2,memory-2step-stake-s,696,2537327,0.0-19.0-0.1-0.203,A353XKDTUX10NC,3YGE63DIOBDQKTHDUYZ9OUNPB7QW00,3C8HJ7UOPBAU3LRJKSBGAFK7VDJZM9,8,7
204,1,object_10,object_09,469.0,1,2,476.0,0.7777777777777778,1,object_08,5,2052,0,7,8,desert_8,2,memory-2step-stake-s,697,2545717,0.0-19.0-0.1-0.204,A353XKDTUX10NC,3YGE63DIOBDQKTHDUYZ9OUNPB7QW00,3C8HJ7UOPBAU3LRJKSBGAFK7VDJZM9,2,1
205,2,object_05,object_02,612.0,3,2,658.0,0.7777777777777778,1,object_08,5,2087,0,7,5,forest_5,2,memory-2step-stake-s,698,2554292,0.0-19.0-0.1-0.205,A353XKDTUX10NC,3YGE63DIOBDQKTHDUYZ9OUNPB7QW00,3C8HJ7UOPBAU3LRJKSBGAFK7VDJZM9,4,3
206,3,object_07,object_03,635.0,6,1,409.0,0.6666666666666666,2,object_01,1,2093,0,7,6,library_6,2,memory-2step-stake-s,699,2562519,0.0-19.0-0.1-0.206,A353XKDTUX10NC,3YGE63DIOBDQKTHDUYZ9OUNPB7QW00,3C8HJ7UOPBAU3LRJKSBGAFK7VDJZM9,6,5
207,3,object_07,object_03,640.0,5,2,376.0,0.7777777777777778,1,object_08,5,2128,0,7,7,library_8,2,memory-2step-stake-s,700,2570809,0.0-19.0-0.1-0.207,A353XKDTUX10NC,3YGE63DIOBDQKTHDUYZ9OUNPB7QW00,3C8HJ7UOPBAU3LRJKSBGAFK7VDJZM9,6,5
208,1,object_10,object_09,564.0,1,2,523.0,0.8888888888888888,1,object_08,5,2168,0,8,7,desert_2,2,memory-2step-stake-s,701,2579348,0.0-19.0-0.1-0.208,A353XKDTUX10NC,3YGE63DIOBDQKTHDUYZ9OUNPB7QW00,3C8HJ7UOPBAU3LRJKSBGAFK7VDJZM9,2,1
209,4,object_04,object_06,615.0,8,1,469.0,0.3333333333333333,2,object_01,1,2171,0,9,3,restaurant_1,2,memory-2step-stake-s,702,2587332,0.0-19.0-0.1-0.209,A353XKDTUX10NC,3YGE63DIOBDQKTHDUYZ9OUNPB7QW00,3C8HJ7UOPBAU3LRJKSBGAFK7VDJZM9,8,7
210,1,object_10,object_09,501.0,1,2,341.0,0.8888888888888888,1,object_08,5,2211,0,8,3,desert_3,2,memory-2step-stake-s,703,2595689,0.0-19.0-0.1-0.210,A353XKDTUX10NC,3YGE63DIOBDQKTHDUYZ9OUNPB7QW00,3C8HJ7UOPBAU3LRJKSBGAFK7VDJZM9,2,1
211,1,object_09,object_10,727.0,1,1,544.0,0.8888888888888888,1,object_08,5,2251,0,8,2,desert_2,2,memory-2step-stake-s,704,2604247,0.0-19.0-0.1-0.211,A353XKDTUX10NC,3YGE63DIOBDQKTHDUYZ9OUNPB7QW00,3C8HJ7UOPBAU3LRJKSBGAFK7VDJZM9,1,2
212,3,object_03,object_07,591.0,6,2,560.0,0.0,2,object_01,1,2251,0,7,0,library_5,2,memory-2step-stake-s,705,2612018,0.0-19.0-0.1-0.212,A353XKDTUX10NC,3YGE63DIOBDQKTHDUYZ9OUNPB7QW00,3C8HJ7UOPBAU3LRJKSBGAFK7VDJZM9,5,6
213,3,object_03,object_07,660.0,5,1,469.0,0.8888888888888888,1,object_08,1,2259,0,8,2,library_2,2,memory-2step-stake-s,706,2620501,0.0-19.0-0.1-0.213,A353XKDTUX10NC,3YGE63DIOBDQKTHDUYZ9OUNPB7QW00,3C8HJ7UOPBAU3LRJKSBGAFK7VDJZM9,5,6
214,1,object_09,object_10,559.0,1,1,371.0,1.0,1,object_08,5,2304,0,9,2,desert_8,2,memory-2step-stake-s,707,2628984,0.0-19.0-0.1-0.214,A353XKDTUX10NC,3YGE63DIOBDQKTHDUYZ9OUNPB7QW00,3C8HJ7UOPBAU3LRJKSBGAFK7VDJZM9,1,2
215,2,object_05,object_02,619.0,3,2,347.0,1.0,1,object_08,5,2349,0,9,3,forest_7,2,memory-2step-stake-s,708,2637446,0.0-19.0-0.1-0.215,A353XKDTUX10NC,3YGE63DIOBDQKTHDUYZ9OUNPB7QW00,3C8HJ7UOPBAU3LRJKSBGAFK7VDJZM9,4,3
216,3,object_07,object_03,747.0,6,1,386.0,0.2222222222222222,2,object_01,1,2351,0,8,2,library_6,2,memory-2step-stake-s,709,2645245,0.0-19.0-0.1-0.216,A353XKDTUX10NC,3YGE63DIOBDQKTHDUYZ9OUNPB7QW00,3C8HJ7UOPBAU3LRJKSBGAFK7VDJZM9,6,5
217,1,object_10,object_09,1233.0,2,1,-1.0,0.0,2,object_01,1,2351,0,3,0,desert_8,2,memory-2step-stake-s,710,2653757,0.0-19.0-0.1-0.217,A353XKDTUX10NC,3YGE63DIOBDQKTHDUYZ9OUNPB7QW00,3C8HJ7UOPBAU3LRJKSBGAFK7VDJZM9,2,1
218,1,object_09,object_10,521.0,2,2,464.0,0.3333333333333333,2,object_01,5,2366,0,2,3,desert_8,2,memory-2step-stake-s,711,2661735,0.0-19.0-0.1-0.218,A353XKDTUX10NC,3YGE63DIOBDQKTHDUYZ9OUNPB7QW00,3C8HJ7UOPBAU3LRJKSBGAFK7VDJZM9,1,2
219,3,object_03,object_07,622.0,5,1,261.0,0.2222222222222222,1,object_08,5,2376,0,2,4,library_5,2,memory-2step-stake-s,712,2669409,0.0-19.0-0.1-0.219,A353XKDTUX10NC,3YGE63DIOBDQKTHDUYZ9OUNPB7QW00,3C8HJ7UOPBAU3LRJKSBGAFK7VDJZM9,5,6
220,1,object_10,object_09,473.0,1,2,345.0,0.1111111111111111,1,object_08,5,2381,0,1,5,desert_6,2,memory-2step-stake-s,713,2677067,0.0-19.0-0.1-0.220,A353XKDTUX10NC,3YGE63DIOBDQKTHDUYZ9OUNPB7QW00,3C8HJ7UOPBAU3LRJKSBGAFK7VDJZM9,2,1
221,1,object_09,object_10,679.0,1,1,-1.0,0.0,1,object_08,1,2381,0,0,3,desert_6,2,memory-2step-stake-s,714,2685575,0.0-19.0-0.1-0.221,A353XKDTUX10NC,3YGE63DIOBDQKTHDUYZ9OUNPB7QW00,3C8HJ7UOPBAU3LRJKSBGAFK7VDJZM9,1,2
222,3,object_03,object_07,656.0,6,2,577.0,0.3333333333333333,2,object_01,5,2396,0,0,3,library_8,2,memory-2step-stake-s,715,2693665,0.0-19.0-0.1-0.222,A353XKDTUX10NC,3YGE63DIOBDQKTHDUYZ9OUNPB7QW00,3C8HJ7UOPBAU3LRJKSBGAFK7VDJZM9,5,6
223,1,object_10,object_09,404.0,2,1,501.0,0.2222222222222222,2,object_01,1,2398,0,5,2,desert_6,2,memory-2step-stake-s,716,2701579,0.0-19.0-0.1-0.223,A353XKDTUX10NC,3YGE63DIOBDQKTHDUYZ9OUNPB7QW00,3C8HJ7UOPBAU3LRJKSBGAFK7VDJZM9,2,1
224,4,object_06,object_04,466.0,8,2,390.0,0.2222222222222222,2,object_01,1,2400,0,6,2,restaurant_2,2,memory-2step-stake-s,717,2709377,0.0-19.0-0.1-0.224,A353XKDTUX10NC,3YGE63DIOBDQKTHDUYZ9OUNPB7QW00,3C8HJ7UOPBAU3LRJKSBGAFK7VDJZM9,7,8
225,2,object_05,object_02,642.0,3,2,402.0,0.3333333333333333,1,object_08,5,2415,0,3,2,forest_7,2,memory-2step-stake-s,718,2717292,0.0-19.0-0.1-0.225,A353XKDTUX10NC,3YGE63DIOBDQKTHDUYZ9OUNPB7QW00,3C8HJ7UOPBAU3LRJKSBGAFK7VDJZM9,4,3
226,3,object_07,object_03,805.0,6,1,516.0,0.3333333333333333,2,object_01,1,2418,0,5,3,library_5,2,memory-2step-stake-s,719,2725323,0.0-19.0-0.1-0.226,A353XKDTUX10NC,3YGE63DIOBDQKTHDUYZ9OUNPB7QW00,3C8HJ7UOPBAU3LRJKSBGAFK7VDJZM9,6,5
227,1,object_10,object_09,421.0,1,2,504.0,0.3333333333333333,1,object_08,5,2433,0,3,4,desert_6,2,memory-2step-stake-s,720,2733337,0.0-19.0-0.1-0.227,A353XKDTUX10NC,3YGE63DIOBDQKTHDUYZ9OUNPB7QW00,3C8HJ7UOPBAU3LRJKSBGAFK7VDJZM9,2,1
228,2,object_02,object_05,405.0,3,1,437.0,0.3333333333333333,1,object_08,5,2448,0,3,2,forest_5,2,memory-2step-stake-s,721,2741288,0.0-19.0-0.1-0.228,A353XKDTUX10NC,3YGE63DIOBDQKTHDUYZ9OUNPB7QW00,3C8HJ7UOPBAU3LRJKSBGAFK7VDJZM9,3,4
229,3,object_07,object_03,557.0,6,1,517.0,0.1111111111111111,2,object_01,1,2449,0,2,1,library_8,2,memory-2step-stake-s,722,2749118,0.0-19.0-0.1-0.229,A353XKDTUX10NC,3YGE63DIOBDQKTHDUYZ9OUNPB7QW00,3C8HJ7UOPBAU3LRJKSBGAFK7VDJZM9,6,5
230,3,object_07,object_03,454.0,5,2,878.0,0.0,1,object_08,1,2449,0,0,2,library_6,2,memory-2step-stake-s,723,2757208,0.0-19.0-0.1-0.230,A353XKDTUX10NC,3YGE63DIOBDQKTHDUYZ9OUNPB7QW00,3C8HJ7UOPBAU3LRJKSBGAFK7VDJZM9,6,5
231,4,object_06,object_04,867.0,7,1,771.0,0.3333333333333333,1,object_08,1,2452,0,3,3,restaurant_3,2,memory-2step-stake-s,724,2765492,0.0-19.0-0.1-0.231,A353XKDTUX10NC,3YGE63DIOBDQKTHDUYZ9OUNPB7QW00,3C8HJ7UOPBAU3LRJKSBGAFK7VDJZM9,7,8
232,1,object_09,object_10,446.0,1,1,601.0,0.5555555555555556,1,object_08,5,2477,0,5,2,desert_8,2,memory-2step-stake-s,725,2773803,0.0-19.0-0.1-0.232,A353XKDTUX10NC,3YGE63DIOBDQKTHDUYZ9OUNPB7QW00,3C8HJ7UOPBAU3LRJKSBGAFK7VDJZM9,1,2
233,4,object_04,object_06,1012.0,8,1,732.0,0.1111111111111111,2,object_01,1,2478,0,5,1,restaurant_3,2,memory-2step-stake-s,726,2781848,0.0-19.0-0.1-0.233,A353XKDTUX10NC,3YGE63DIOBDQKTHDUYZ9OUNPB7QW00,3C8HJ7UOPBAU3LRJKSBGAFK7VDJZM9,8,7
234,1,object_10,object_09,575.0,1,2,471.0,0.5555555555555556,1,object_08,5,2503,0,5,3,desert_3,2,memory-2step-stake-s,727,2790032,0.0-19.0-0.1-0.234,A353XKDTUX10NC,3YGE63DIOBDQKTHDUYZ9OUNPB7QW00,3C8HJ7UOPBAU3LRJKSBGAFK7VDJZM9,2,1
235,1,object_10,object_09,563.0,1,2,499.0,0.6666666666666666,1,object_08,1,2509,0,6,4,desert_2,2,memory-2step-stake-s,728,2798347,0.0-19.0-0.1-0.235,A353XKDTUX10NC,3YGE63DIOBDQKTHDUYZ9OUNPB7QW00,3C8HJ7UOPBAU3LRJKSBGAFK7VDJZM9,2,1
236,2,object_05,object_02,871.0,3,2,502.0,0.8888888888888888,1,object_08,5,2549,0,8,3,forest_4,2,memory-2step-stake-s,729,2806867,0.0-19.0-0.1-0.236,A353XKDTUX10NC,3YGE63DIOBDQKTHDUYZ9OUNPB7QW00,3C8HJ7UOPBAU3LRJKSBGAFK7VDJZM9,4,3
237,1,object_10,object_09,730.0,1,2,397.0,0.6666666666666666,1,object_08,5,2579,0,6,6,desert_6,2,memory-2step-stake-s,730,2815088,0.0-19.0-0.1-0.237,A353XKDTUX10NC,3YGE63DIOBDQKTHDUYZ9OUNPB7QW00,3C8HJ7UOPBAU3LRJKSBGAFK7VDJZM9,2,1
238,2,object_05,object_02,573.0,3,2,482.0,0.4444444444444444,1,object_08,5,2599,0,4,8,forest_8,2,memory-2step-stake-s,731,2823190,0.0-19.0-0.1-0.238,A353XKDTUX10NC,3YGE63DIOBDQKTHDUYZ9OUNPB7QW00,3C8HJ7UOPBAU3LRJKSBGAFK7VDJZM9,4,3
239,1,object_10,object_09,501.0,1,2,516.0,0.4444444444444444,1,object_08,5,2619,0,4,3,desert_6,2,memory-2step-stake-s,732,2831324,0.0-19.0-0.1-0.239,A353XKDTUX10NC,3YGE63DIOBDQKTHDUYZ9OUNPB7QW00,3C8HJ7UOPBAU3LRJKSBGAFK7VDJZM9,2,1
240,4,object_06,object_04,-1.0,-1,-1,-1.0,0.0,-,0,1,2619,0,2,3,restaurant_1,2,memory-2step-stake-s,733,2837831,0.0-19.0-0.1-0.240,A353XKDTUX10NC,3YGE63DIOBDQKTHDUYZ9OUNPB7QW00,3C8HJ7UOPBAU3LRJKSBGAFK7VDJZM9,7,8
241,4,object_06,object_04,609.0,7,1,742.0,0.5555555555555556,1,object_08,1,2624,0,5,2,restaurant_3,2,memory-2step-stake-s,734,2846294,0.0-19.0-0.1-0.241,A353XKDTUX10NC,3YGE63DIOBDQKTHDUYZ9OUNPB7QW00,3C8HJ7UOPBAU3LRJKSBGAFK7VDJZM9,7,8
242,4,object_04,object_06,913.0,7,2,527.0,0.7777777777777778,1,object_08,1,2631,0,7,1,restaurant_2,2,memory-2step-stake-s,735,2854742,0.0-19.0-0.1-0.242,A353XKDTUX10NC,3YGE63DIOBDQKTHDUYZ9OUNPB7QW00,3C8HJ7UOPBAU3LRJKSBGAFK7VDJZM9,8,7
243,4,object_04,object_06,768.0,8,1,381.0,0.2222222222222222,2,object_01,1,2633,0,5,2,restaurant_5,2,memory-2step-stake-s,736,2862542,0.0-19.0-0.1-0.243,A353XKDTUX10NC,3YGE63DIOBDQKTHDUYZ9OUNPB7QW00,3C8HJ7UOPBAU3LRJKSBGAFK7VDJZM9,8,7
244,1,object_09,object_10,417.0,1,1,392.0,0.4444444444444444,1,object_08,5,2653,0,4,4,desert_3,2,memory-2step-stake-s,737,2870550,0.0-19.0-0.1-0.244,A353XKDTUX10NC,3YGE63DIOBDQKTHDUYZ9OUNPB7QW00,3C8HJ7UOPBAU3LRJKSBGAFK7VDJZM9,1,2
245,2,object_05,object_02,669.0,4,1,273.0,0.4444444444444444,2,object_01,5,2673,0,2,4,forest_4,2,memory-2step-stake-s,738,2878444,0.0-19.0-0.1-0.245,A353XKDTUX10NC,3YGE63DIOBDQKTHDUYZ9OUNPB7QW00,3C8HJ7UOPBAU3LRJKSBGAFK7VDJZM9,4,3
246,3,object_07,object_03,672.0,6,1,382.0,0.4444444444444444,2,object_01,5,2693,0,2,4,library_2,2,memory-2step-stake-s,739,2886443,0.0-19.0-0.1-0.246,A353XKDTUX10NC,3YGE63DIOBDQKTHDUYZ9OUNPB7QW00,3C8HJ7UOPBAU3LRJKSBGAFK7VDJZM9,6,5
247,4,object_06,object_04,701.0,7,1,435.0,0.4444444444444444,1,object_08,1,2697,0,4,6,restaurant_3,2,memory-2step-stake-s,740,2894497,0.0-19.0-0.1-0.247,A353XKDTUX10NC,3YGE63DIOBDQKTHDUYZ9OUNPB7QW00,3C8HJ7UOPBAU3LRJKSBGAFK7VDJZM9,7,8
248,2,object_02,object_05,639.0,3,1,535.0,0.0,1,object_08,5,2697,0,0,5,forest_4,2,memory-2step-stake-s,741,2902245,0.0-19.0-0.1-0.248,A353XKDTUX10NC,3YGE63DIOBDQKTHDUYZ9OUNPB7QW00,3C8HJ7UOPBAU3LRJKSBGAFK7VDJZM9,3,4
249,2,object_05,object_02,594.0,3,2,392.0,0.1111111111111111,1,object_08,5,2702,0,1,5,forest_8,2,memory-2step-stake-s,742,2909953,0.0-19.0-0.1-0.249,A353XKDTUX10NC,3YGE63DIOBDQKTHDUYZ9OUNPB7QW00,3C8HJ7UOPBAU3LRJKSBGAFK7VDJZM9,4,3
250,2,object_02,object_05,557.0,3,1,554.0,0.1111111111111111,1,object_08,5,2707,0,1,3,forest_7,2,memory-2step-stake-s,743,2917823,0.0-19.0-0.1-0.250,A353XKDTUX10NC,3YGE63DIOBDQKTHDUYZ9OUNPB7QW00,3C8HJ7UOPBAU3LRJKSBGAFK7VDJZM9,3,4
251,4,object_04,object_06,598.0,7,2,1133.0,0.2222222222222222,1,object_08,1,2709,0,2,3,restaurant_1,2,memory-2step-stake-s,744,2926370,0.0-19.0-0.1-0.251,A353XKDTUX10NC,3YGE63DIOBDQKTHDUYZ9OUNPB7QW00,3C8HJ7UOPBAU3LRJKSBGAFK7VDJZM9,8,7
252,3,object_07,object_03,625.0,6,1,519.0,0.5555555555555556,2,object_01,1,2714,0,6,5,library_5,2,memory-2step-stake-s,745,2934607,0.0-19.0-0.1-0.252,A353XKDTUX10NC,3YGE63DIOBDQKTHDUYZ9OUNPB7QW00,3C8HJ7UOPBAU3LRJKSBGAFK7VDJZM9,6,5
253,2,object_02,object_05,784.0,3,1,-1.0,0.0,1,object_08,5,2714,0,4,3,forest_5,2,memory-2step-stake-s,746,2943127,0.0-19.0-0.1-0.253,A353XKDTUX10NC,3YGE63DIOBDQKTHDUYZ9OUNPB7QW00,3C8HJ7UOPBAU3LRJKSBGAFK7VDJZM9,3,4
254,2,object_02,object_05,550.0,3,1,787.0,0.2222222222222222,1,object_08,5,2724,0,2,3,forest_4,2,memory-2step-stake-s,747,2951342,0.0-19.0-0.1-0.254,A353XKDTUX10NC,3YGE63DIOBDQKTHDUYZ9OUNPB7QW00,3C8HJ7UOPBAU3LRJKSBGAFK7VDJZM9,3,4
255,3,object_03,object_07,540.0,6,2,930.0,0.5555555555555556,2,object_01,1,2729,0,1,5,library_5,2,memory-2step-stake-s,748,2959994,0.0-19.0-0.1-0.255,A353XKDTUX10NC,3YGE63DIOBDQKTHDUYZ9OUNPB7QW00,3C8HJ7UOPBAU3LRJKSBGAFK7VDJZM9,5,6
