,state1,stim_left,stim_right,rt_1,choice1,response1,rt_2,points,state2,stim_state2,stake,score,practice,rews1,rews2,background,high_arm,trial_type,trial_index,time_elapsed,internal_node_id,subid,hitid,assignmentid,stim_left_num,stim_right_num
0,2,object_05,object_06,708.73500034213,3,1,1071.8450006098,0.1111111111111111,1,object_09,1,1,0,1,6,forest_1,1,memory-2step-stake-s,488,852735,0.0-19.0-0.0-0.0,APGX2WZ59OWDN,3DW3BNF1HKYVNTMBZS7SV7ATLD58VQ,3M68NM076LNJCRK0NVAMZGLMOO26R6,3,4
1,4,object_10,object_01,680.9849999845,8,1,539.38999958336,1.0,2,object_03,5,46,0,4,9,restaurant_4,1,memory-2step-stake-s,489,861436,0.0-19.0-0.0-0.1,APGX2WZ59OWDN,3DW3BNF1HKYVNTMBZS7SV7ATLD58VQ,3M68NM076LNJCRK0NVAMZGLMOO26R6,8,7
2,3,object_02,object_08,947.9099996388,5,1,375.85500068963,0.3333333333333333,1,object_09,5,61,0,3,7,library_1,1,memory-2step-stake-s,490,869326,0.0-19.0-0.0-0.2,APGX2WZ59OWDN,3DW3BNF1HKYVNTMBZS7SV7ATLD58VQ,3M68NM076LNJCRK0NVAMZGLMOO26R6,5,6
3,4,object_10,object_01,1410.6799997389,8,1,342.28499978781,0.5555555555555556,2,object_03,5,86,0,2,5,restaurant_6,1,memory-2step-stake-s,491,877386,0.0-19.0-0.0-0.3,APGX2WZ59OWDN,3DW3BNF1HKYVNTMBZS7SV7ATLD58VQ,3M68NM076LNJCRK0NVAMZGLMOO26R6,8,7
4,3,object_02,object_08,930.80000020564,6,2,349.83999840915,0.4444444444444444,2,object_03,5,106,0,1,4,library_4,1,memory-2step-stake-s,492,885349,0.0-19.0-0.0-0.4,APGX2WZ59OWDN,3DW3BNF1HKYVNTMBZS7SV7ATLD58VQ,3M68NM076LNJCRK0NVAMZGLMOO26R6,5,6
5,4,object_01,object_10,1206.2400002033,8,2,379.08999994397,0.4444444444444444,2,object_03,5,126,0,0,4,restaurant_7,1,memory-2step-stake-s,493,893344,0.0-19.0-0.0-0.5,APGX2WZ59OWDN,3DW3BNF1HKYVNTMBZS7SV7ATLD58VQ,3M68NM076LNJCRK0NVAMZGLMOO26R6,7,8
6,3,object_02,object_08,1124.944999814,6,2,295.22000066936,0.2222222222222222,2,object_03,1,128,0,1,2,library_1,1,memory-2step-stake-s,494,901054,0.0-19.0-0.0-0.6,APGX2WZ59OWDN,3DW3BNF1HKYVNTMBZS7SV7ATLD58VQ,3M68NM076LNJCRK0NVAMZGLMOO26R6,5,6
7,1,object_04,object_07,840.08499979973,1,1,428.51500026882,0.2222222222222222,1,object_09,1,130,0,2,1,desert_6,1,memory-2step-stake-s,495,908894,0.0-19.0-0.0-0.7,APGX2WZ59OWDN,3DW3BNF1HKYVNTMBZS7SV7ATLD58VQ,3M68NM076LNJCRK0NVAMZGLMOO26R6,1,2
8,2,object_06,object_05,1128.7050005049,4,1,404.10500019789,0.1111111111111111,2,object_03,1,131,0,3,1,forest_1,1,memory-2step-stake-s,496,916613,0.0-19.0-0.0-0.8,APGX2WZ59OWDN,3DW3BNF1HKYVNTMBZS7SV7ATLD58VQ,3M68NM076LNJCRK0NVAMZGLMOO26R6,4,3
9,2,object_05,object_06,1450.6249986589,4,2,469.99499946833,0.1111111111111111,2,object_03,1,132,0,4,1,forest_6,1,memory-2step-stake-s,497,924396,0.0-19.0-0.0-0.9,APGX2WZ59OWDN,3DW3BNF1HKYVNTMBZS7SV7ATLD58VQ,3M68NM076LNJCRK0NVAMZGLMOO26R6,3,4
10,1,object_04,object_07,1170.6950012594,2,2,422.28999920189,0.2222222222222222,2,object_03,1,134,0,8,2,desert_6,1,memory-2step-stake-s,498,932232,0.0-19.0-0.0-0.10,APGX2WZ59OWDN,3DW3BNF1HKYVNTMBZS7SV7ATLD58VQ,3M68NM076LNJCRK0NVAMZGLMOO26R6,1,2
11,3,object_02,object_08,640.74499905109,5,1,420.26000097394,0.6666666666666666,1,object_09,5,164,0,6,1,library_7,1,memory-2step-stake-s,499,940506,0.0-19.0-0.0-0.11,APGX2WZ59OWDN,3DW3BNF1HKYVNTMBZS7SV7ATLD58VQ,3M68NM076LNJCRK0NVAMZGLMOO26R6,5,6
12,2,object_06,object_05,-1.0,-1,-1,-1.0,0.0,-,0,5,164,0,5,0,forest_6,1,memory-2step-stake-s,500,947015,0.0-19.0-0.0-0.12,APGX2WZ59OWDN,3DW3BNF1HKYVNTMBZS7SV7ATLD58VQ,3M68NM076LNJCRK0NVAMZGLMOO26R6,4,3
13,3,object_08,object_02,516.73000119627,6,1,375.92499889433,0.1111111111111111,2,object_03,5,169,0,8,1,library_8,1,memory-2step-stake-s,501,954714,0.0-19.0-0.0-0.13,APGX2WZ59OWDN,3DW3BNF1HKYVNTMBZS7SV7ATLD58VQ,3M68NM076LNJCRK0NVAMZGLMOO26R6,6,5
14,2,object_06,object_05,770.08000016212,3,2,422.39500023425,0.8888888888888888,1,object_09,1,177,0,8,3,forest_2,1,memory-2step-stake-s,502,963194,0.0-19.0-0.0-0.14,APGX2WZ59OWDN,3DW3BNF1HKYVNTMBZS7SV7ATLD58VQ,3M68NM076LNJCRK0NVAMZGLMOO26R6,4,3
15,2,object_06,object_05,570.11999934912,3,2,302.20500007272,0.7777777777777778,1,object_09,1,184,0,7,3,forest_7,1,memory-2step-stake-s,503,971426,0.0-19.0-0.0-0.15,APGX2WZ59OWDN,3DW3BNF1HKYVNTMBZS7SV7ATLD58VQ,3M68NM076LNJCRK0NVAMZGLMOO26R6,4,3
16,4,object_01,object_10,973.16499985754,8,2,369.49500069022,0.3333333333333333,2,object_03,5,199,0,7,3,restaurant_4,1,memory-2step-stake-s,504,979314,0.0-19.0-0.0-0.16,APGX2WZ59OWDN,3DW3BNF1HKYVNTMBZS7SV7ATLD58VQ,3M68NM076LNJCRK0NVAMZGLMOO26R6,7,8
17,3,object_02,object_08,941.10500067472,5,1,385.35000011325,0.7777777777777778,1,object_09,5,234,0,7,4,library_4,1,memory-2step-stake-s,505,987619,0.0-19.0-0.0-0.17,APGX2WZ59OWDN,3DW3BNF1HKYVNTMBZS7SV7ATLD58VQ,3M68NM076LNJCRK0NVAMZGLMOO26R6,5,6
18,3,object_02,object_08,654.40000034869,5,1,338.75499852002,0.4444444444444444,1,object_09,5,254,0,4,3,library_7,1,memory-2step-stake-s,506,995570,0.0-19.0-0.0-0.18,APGX2WZ59OWDN,3DW3BNF1HKYVNTMBZS7SV7ATLD58VQ,3M68NM076LNJCRK0NVAMZGLMOO26R6,5,6
19,2,object_05,object_06,1174.4199991226,4,2,456.91499859095,0.4444444444444444,2,object_03,1,258,0,0,4,forest_2,1,memory-2step-stake-s,507,1003646,0.0-19.0-0.0-0.19,APGX2WZ59OWDN,3DW3BNF1HKYVNTMBZS7SV7ATLD58VQ,3M68NM076LNJCRK0NVAMZGLMOO26R6,3,4
20,2,object_05,object_06,756.02000020444,4,2,312.42499873042,0.0,2,object_03,1,258,0,1,0,forest_1,1,memory-2step-stake-s,508,1011168,0.0-19.0-0.0-0.20,APGX2WZ59OWDN,3DW3BNF1HKYVNTMBZS7SV7ATLD58VQ,3M68NM076LNJCRK0NVAMZGLMOO26R6,3,4
21,2,object_05,object_06,738.66999894381,3,1,438.5600015521,0.1111111111111111,1,object_09,1,259,0,1,2,forest_1,1,memory-2step-stake-s,509,1018919,0.0-19.0-0.0-0.21,APGX2WZ59OWDN,3DW3BNF1HKYVNTMBZS7SV7ATLD58VQ,3M68NM076LNJCRK0NVAMZGLMOO26R6,3,4
22,1,object_04,object_07,1186.6049990058,2,2,605.20000010729,0.3333333333333333,2,object_03,1,262,0,4,3,desert_8,1,memory-2step-stake-s,510,1027041,0.0-19.0-0.0-0.22,APGX2WZ59OWDN,3DW3BNF1HKYVNTMBZS7SV7ATLD58VQ,3M68NM076LNJCRK0NVAMZGLMOO26R6,1,2
23,3,object_08,object_02,746.73999845982,5,2,333.87000113726,0.4444444444444444,1,object_09,5,282,0,4,4,library_1,1,memory-2step-stake-s,511,1034992,0.0-19.0-0.0-0.23,APGX2WZ59OWDN,3DW3BNF1HKYVNTMBZS7SV7ATLD58VQ,3M68NM076LNJCRK0NVAMZGLMOO26R6,6,5
24,3,object_02,object_08,781.19499981403,5,1,305.85999973118,0.3333333333333333,1,object_09,5,297,0,3,4,library_4,1,memory-2step-stake-s,512,1042811,0.0-19.0-0.0-0.24,APGX2WZ59OWDN,3DW3BNF1HKYVNTMBZS7SV7ATLD58VQ,3M68NM076LNJCRK0NVAMZGLMOO26R6,5,6
25,4,object_01,object_10,1131.2150005251,7,1,437.70500086248,0.5555555555555556,1,object_09,5,322,0,5,7,restaurant_1,1,memory-2step-stake-s,513,1050966,0.0-19.0-0.0-0.25,APGX2WZ59OWDN,3DW3BNF1HKYVNTMBZS7SV7ATLD58VQ,3M68NM076LNJCRK0NVAMZGLMOO26R6,7,8
26,1,object_07,object_04,1073.8099999726,1,2,477.54999995232,0.3333333333333333,1,object_09,1,325,0,3,7,desert_4,1,memory-2step-stake-s,514,1058985,0.0-19.0-0.0-0.26,APGX2WZ59OWDN,3DW3BNF1HKYVNTMBZS7SV7ATLD58VQ,3M68NM076LNJCRK0NVAMZGLMOO26R6,2,1
27,2,object_06,object_05,1151.344999671,3,2,338.69500085711,0.2222222222222222,1,object_09,1,327,0,2,7,forest_6,1,memory-2step-stake-s,515,1066736,0.0-19.0-0.0-0.27,APGX2WZ59OWDN,3DW3BNF1HKYVNTMBZS7SV7ATLD58VQ,3M68NM076LNJCRK0NVAMZGLMOO26R6,4,3
28,4,object_01,object_10,977.77500003576,7,1,356.59500025213,0.1111111111111111,1,object_09,5,332,0,1,5,restaurant_4,1,memory-2step-stake-s,516,1074404,0.0-19.0-0.0-0.28,APGX2WZ59OWDN,3DW3BNF1HKYVNTMBZS7SV7ATLD58VQ,3M68NM076LNJCRK0NVAMZGLMOO26R6,7,8
29,1,object_04,object_07,1270.2799998224,2,2,281.93000145257,0.8888888888888888,2,object_03,1,340,0,2,8,desert_7,1,memory-2step-stake-s,517,1082739,0.0-19.0-0.0-0.29,APGX2WZ59OWDN,3DW3BNF1HKYVNTMBZS7SV7ATLD58VQ,3M68NM076LNJCRK0NVAMZGLMOO26R6,1,2
30,3,object_02,object_08,798.73500019312,6,2,354.24499958754,0.6666666666666666,2,object_03,5,370,0,4,6,library_7,1,memory-2step-stake-s,518,1090929,0.0-19.0-0.0-0.30,APGX2WZ59OWDN,3DW3BNF1HKYVNTMBZS7SV7ATLD58VQ,3M68NM076LNJCRK0NVAMZGLMOO26R6,5,6
31,3,object_02,object_08,721.66999988258,6,2,373.16000089049,0.7777777777777778,2,object_03,5,405,0,3,7,library_4,1,memory-2step-stake-s,519,1099257,0.0-19.0-0.0-0.31,APGX2WZ59OWDN,3DW3BNF1HKYVNTMBZS7SV7ATLD58VQ,3M68NM076LNJCRK0NVAMZGLMOO26R6,5,6
32,1,object_07,object_04,1196.5350005776,2,1,408.40500034392,0.8888888888888888,2,object_03,1,413,0,3,8,desert_7,1,memory-2step-stake-s,520,1107684,0.0-19.0-0.0-0.32,APGX2WZ59OWDN,3DW3BNF1HKYVNTMBZS7SV7ATLD58VQ,3M68NM076LNJCRK0NVAMZGLMOO26R6,2,1
33,4,object_01,object_10,1234.4200015068,8,2,364.41500112414,0.6666666666666666,2,object_03,5,443,0,2,6,restaurant_1,1,memory-2step-stake-s,521,1115866,0.0-19.0-0.0-0.33,APGX2WZ59OWDN,3DW3BNF1HKYVNTMBZS7SV7ATLD58VQ,3M68NM076LNJCRK0NVAMZGLMOO26R6,7,8
34,4,object_10,object_01,723.68000075221,8,1,398.69999885559,1.0,2,object_03,5,488,0,5,9,restaurant_4,1,memory-2step-stake-s,522,1124425,0.0-19.0-0.0-0.34,APGX2WZ59OWDN,3DW3BNF1HKYVNTMBZS7SV7ATLD58VQ,3M68NM076LNJCRK0NVAMZGLMOO26R6,8,7
35,4,object_10,object_01,638.67999985814,8,1,322.37000018358,1.0,2,object_03,5,533,0,4,9,restaurant_6,1,memory-2step-stake-s,523,1132898,0.0-19.0-0.0-0.35,APGX2WZ59OWDN,3DW3BNF1HKYVNTMBZS7SV7ATLD58VQ,3M68NM076LNJCRK0NVAMZGLMOO26R6,8,7
36,1,object_04,object_07,837.64499984682,1,1,280.06500005722,0.6666666666666666,1,object_09,1,539,0,6,5,desert_7,1,memory-2step-stake-s,524,1141025,0.0-19.0-0.0-0.36,APGX2WZ59OWDN,3DW3BNF1HKYVNTMBZS7SV7ATLD58VQ,3M68NM076LNJCRK0NVAMZGLMOO26R6,1,2
37,1,object_07,object_04,711.5049995482,2,1,338.59499916434,0.7777777777777778,2,object_03,1,546,0,9,7,desert_6,1,memory-2step-stake-s,525,1149327,0.0-19.0-0.0-0.37,APGX2WZ59OWDN,3DW3BNF1HKYVNTMBZS7SV7ATLD58VQ,3M68NM076LNJCRK0NVAMZGLMOO26R6,2,1
38,2,object_05,object_06,1020.0599990785,3,1,383.8149998337,0.6666666666666666,1,object_09,1,552,0,6,7,forest_1,1,memory-2step-stake-s,526,1157530,0.0-19.0-0.0-0.38,APGX2WZ59OWDN,3DW3BNF1HKYVNTMBZS7SV7ATLD58VQ,3M68NM076LNJCRK0NVAMZGLMOO26R6,3,4
39,3,object_02,object_08,851.09999962151,6,2,351.43999941647,0.7777777777777778,2,object_03,5,587,0,5,7,library_4,1,memory-2step-stake-s,527,1165798,0.0-19.0-0.0-0.39,APGX2WZ59OWDN,3DW3BNF1HKYVNTMBZS7SV7ATLD58VQ,3M68NM076LNJCRK0NVAMZGLMOO26R6,5,6
40,1,object_07,object_04,766.03499986231,2,1,298.1850001961,0.7777777777777778,2,object_03,1,594,0,6,7,desert_4,1,memory-2step-stake-s,528,1174015,0.0-19.0-0.0-0.40,APGX2WZ59OWDN,3DW3BNF1HKYVNTMBZS7SV7ATLD58VQ,3M68NM076LNJCRK0NVAMZGLMOO26R6,2,1
41,4,object_01,object_10,941.80999882519,8,2,304.8650007695,1.0,2,object_03,5,639,0,4,9,restaurant_6,1,memory-2step-stake-s,529,1182441,0.0-19.0-0.0-0.41,APGX2WZ59OWDN,3DW3BNF1HKYVNTMBZS7SV7ATLD58VQ,3M68NM076LNJCRK0NVAMZGLMOO26R6,7,8
42,4,object_10,object_01,900.39999969304,8,1,352.61500068009,0.6666666666666666,2,object_03,5,669,0,4,6,restaurant_7,1,memory-2step-stake-s,530,1190611,0.0-19.0-0.0-0.42,APGX2WZ59OWDN,3DW3BNF1HKYVNTMBZS7SV7ATLD58VQ,3M68NM076LNJCRK0NVAMZGLMOO26R6,8,7
43,1,object_07,object_04,805.78999966383,1,2,305.28999865055,0.4444444444444444,1,object_09,1,673,0,4,8,desert_7,1,memory-2step-stake-s,531,1198545,0.0-19.0-0.0-0.43,APGX2WZ59OWDN,3DW3BNF1HKYVNTMBZS7SV7ATLD58VQ,3M68NM076LNJCRK0NVAMZGLMOO26R6,2,1
44,1,object_04,object_07,766.72000065446,2,2,377.76999920607,0.8888888888888888,2,object_03,1,681,0,8,8,desert_7,1,memory-2step-stake-s,532,1206985,0.0-19.0-0.0-0.44,APGX2WZ59OWDN,3DW3BNF1HKYVNTMBZS7SV7ATLD58VQ,3M68NM076LNJCRK0NVAMZGLMOO26R6,1,2
45,4,object_01,object_10,686.35000102222,8,2,319.53999958932,0.7777777777777778,2,object_03,5,716,0,8,7,restaurant_4,1,memory-2step-stake-s,533,1215284,0.0-19.0-0.0-0.45,APGX2WZ59OWDN,3DW3BNF1HKYVNTMBZS7SV7ATLD58VQ,3M68NM076LNJCRK0NVAMZGLMOO26R6,7,8
46,3,object_02,object_08,630.01000136137,6,2,386.45000010729,0.7777777777777778,2,object_03,5,751,0,4,7,library_4,1,memory-2step-stake-s,534,1223594,0.0-19.0-0.0-0.46,APGX2WZ59OWDN,3DW3BNF1HKYVNTMBZS7SV7ATLD58VQ,3M68NM076LNJCRK0NVAMZGLMOO26R6,5,6
47,3,object_02,object_08,1067.1549998224,6,2,278.7000015378,0.6666666666666666,2,object_03,1,757,0,5,6,library_7,1,memory-2step-stake-s,535,1231688,0.0-19.0-0.0-0.47,APGX2WZ59OWDN,3DW3BNF1HKYVNTMBZS7SV7ATLD58VQ,3M68NM076LNJCRK0NVAMZGLMOO26R6,5,6
48,3,object_08,object_02,661.27499938011,6,1,465.01000039279,0.6666666666666666,2,object_03,5,787,0,4,6,library_1,1,memory-2step-stake-s,536,1239989,0.0-19.0-0.0-0.48,APGX2WZ59OWDN,3DW3BNF1HKYVNTMBZS7SV7ATLD58VQ,3M68NM076LNJCRK0NVAMZGLMOO26R6,6,5
49,2,object_05,object_06,912.1749997139,3,1,292.38500073552,0.3333333333333333,1,object_09,1,790,0,3,7,forest_2,1,memory-2step-stake-s,537,1247808,0.0-19.0-0.0-0.49,APGX2WZ59OWDN,3DW3BNF1HKYVNTMBZS7SV7ATLD58VQ,3M68NM076LNJCRK0NVAMZGLMOO26R6,3,4
50,1,object_04,object_07,1021.3850010186,2,2,265.70500060916,0.4444444444444444,2,object_03,1,794,0,4,4,desert_4,1,memory-2step-stake-s,538,1255688,0.0-19.0-0.0-0.50,APGX2WZ59OWDN,3DW3BNF1HKYVNTMBZS7SV7ATLD58VQ,3M68NM076LNJCRK0NVAMZGLMOO26R6,1,2
51,3,object_02,object_08,765.7549995929,6,2,377.24499963224,0.2222222222222222,2,object_03,5,804,0,8,2,library_4,1,memory-2step-stake-s,539,1263486,0.0-19.0-0.0-0.51,APGX2WZ59OWDN,3DW3BNF1HKYVNTMBZS7SV7ATLD58VQ,3M68NM076LNJCRK0NVAMZGLMOO26R6,5,6
52,2,object_06,object_05,664.73500058055,3,2,339.1350004822,0.8888888888888888,1,object_09,1,812,0,8,2,forest_6,1,memory-2step-stake-s,540,1271904,0.0-19.0-0.0-0.52,APGX2WZ59OWDN,3DW3BNF1HKYVNTMBZS7SV7ATLD58VQ,3M68NM076LNJCRK0NVAMZGLMOO26R6,4,3
53,3,object_08,object_02,1000.6149988621,5,2,395.43000049889,0.8888888888888888,1,object_09,1,820,0,8,1,library_1,1,memory-2step-stake-s,541,1280374,0.0-19.0-0.0-0.53,APGX2WZ59OWDN,3DW3BNF1HKYVNTMBZS7SV7ATLD58VQ,3M68NM076LNJCRK0NVAMZGLMOO26R6,6,5
54,4,object_01,object_10,850.02999939024,7,1,470.67499905825,0.8888888888888888,1,object_09,1,828,0,8,1,restaurant_4,1,memory-2step-stake-s,542,1288866,0.0-19.0-0.0-0.54,APGX2WZ59OWDN,3DW3BNF1HKYVNTMBZS7SV7ATLD58VQ,3M68NM076LNJCRK0NVAMZGLMOO26R6,7,8
55,4,object_10,object_01,720.70500068367,7,2,370.97499892116,0.4444444444444444,1,object_09,5,848,0,4,0,restaurant_7,1,memory-2step-stake-s,543,1296852,0.0-19.0-0.0-0.55,APGX2WZ59OWDN,3DW3BNF1HKYVNTMBZS7SV7ATLD58VQ,3M68NM076LNJCRK0NVAMZGLMOO26R6,8,7
56,2,object_06,object_05,846.71000018716,3,2,314.20500017703,0.4444444444444444,1,object_09,1,852,0,4,0,forest_7,1,memory-2step-stake-s,544,1304805,0.0-19.0-0.0-0.56,APGX2WZ59OWDN,3DW3BNF1HKYVNTMBZS7SV7ATLD58VQ,3M68NM076LNJCRK0NVAMZGLMOO26R6,4,3
57,4,object_10,object_01,567.81999953091,7,2,331.35499991477,0.1111111111111111,1,object_09,5,857,0,1,3,restaurant_1,1,memory-2step-stake-s,545,1312449,0.0-19.0-0.0-0.57,APGX2WZ59OWDN,3DW3BNF1HKYVNTMBZS7SV7ATLD58VQ,3M68NM076LNJCRK0NVAMZGLMOO26R6,8,7
58,1,object_04,object_07,1028.6499988288,2,2,320.1599996537,0.3333333333333333,2,object_03,1,860,0,3,3,desert_8,1,memory-2step-stake-s,546,1320286,0.0-19.0-0.0-0.58,APGX2WZ59OWDN,3DW3BNF1HKYVNTMBZS7SV7ATLD58VQ,3M68NM076LNJCRK0NVAMZGLMOO26R6,1,2
59,2,object_06,object_05,673.67000132799,3,2,100.32000020146,0.1111111111111111,1,object_09,1,861,0,1,2,forest_2,1,memory-2step-stake-s,547,1327700,0.0-19.0-0.0-0.59,APGX2WZ59OWDN,3DW3BNF1HKYVNTMBZS7SV7ATLD58VQ,3M68NM076LNJCRK0NVAMZGLMOO26R6,4,3
60,3,object_08,object_02,794.73500140011,6,1,381.6550001502,0.1111111111111111,2,object_03,1,862,0,1,1,library_8,1,memory-2step-stake-s,548,1335396,0.0-19.0-0.0-0.60,APGX2WZ59OWDN,3DW3BNF1HKYVNTMBZS7SV7ATLD58VQ,3M68NM076LNJCRK0NVAMZGLMOO26R6,6,5
61,3,object_08,object_02,844.77499872446,6,1,343.91999989748,0.2222222222222222,2,object_03,1,864,0,2,2,library_7,1,memory-2step-stake-s,549,1343153,0.0-19.0-0.0-0.61,APGX2WZ59OWDN,3DW3BNF1HKYVNTMBZS7SV7ATLD58VQ,3M68NM076LNJCRK0NVAMZGLMOO26R6,6,5
62,1,object_04,object_07,777.02500112355,2,2,325.75000077486,0.5555555555555556,2,object_03,1,869,0,1,5,desert_7,1,memory-2step-stake-s,550,1351194,0.0-19.0-0.0-0.62,APGX2WZ59OWDN,3DW3BNF1HKYVNTMBZS7SV7ATLD58VQ,3M68NM076LNJCRK0NVAMZGLMOO26R6,1,2
63,1,object_07,object_04,873.08999896049,2,1,565.5550006777,0.4444444444444444,2,object_03,1,873,0,1,4,desert_4,1,memory-2step-stake-s,551,1359395,0.0-19.0-0.0-0.63,APGX2WZ59OWDN,3DW3BNF1HKYVNTMBZS7SV7ATLD58VQ,3M68NM076LNJCRK0NVAMZGLMOO26R6,2,1
64,2,object_05,object_06,743.0249992758,3,1,359.55000109971,0.4444444444444444,1,object_09,1,877,0,4,5,forest_1,1,memory-2step-stake-s,552,1367396,0.0-19.0-0.0-0.64,APGX2WZ59OWDN,3DW3BNF1HKYVNTMBZS7SV7ATLD58VQ,3M68NM076LNJCRK0NVAMZGLMOO26R6,3,4
65,2,object_05,object_06,951.12499967217,3,1,402.95500122011,0.3333333333333333,1,object_09,1,880,0,3,7,forest_1,1,memory-2step-stake-s,553,1375315,0.0-19.0-0.0-0.65,APGX2WZ59OWDN,3DW3BNF1HKYVNTMBZS7SV7ATLD58VQ,3M68NM076LNJCRK0NVAMZGLMOO26R6,3,4
66,1,object_04,object_07,553.80500108004,2,2,317.57000088692,1.0,2,object_03,1,889,0,1,9,desert_6,1,memory-2step-stake-s,554,1383765,0.0-19.0-0.0-0.66,APGX2WZ59OWDN,3DW3BNF1HKYVNTMBZS7SV7ATLD58VQ,3M68NM076LNJCRK0NVAMZGLMOO26R6,1,2
67,4,object_01,object_10,751.89499929547,8,2,355.02500087023,0.8888888888888888,2,object_03,5,929,0,5,8,restaurant_4,1,memory-2step-stake-s,555,1392169,0.0-19.0-0.0-0.67,APGX2WZ59OWDN,3DW3BNF1HKYVNTMBZS7SV7ATLD58VQ,3M68NM076LNJCRK0NVAMZGLMOO26R6,7,8
68,4,object_10,object_01,620.86999975145,8,1,456.73000067472,0.8888888888888888,2,object_03,5,969,0,6,8,restaurant_4,1,memory-2step-stake-s,556,1400667,0.0-19.0-0.0-0.68,APGX2WZ59OWDN,3DW3BNF1HKYVNTMBZS7SV7ATLD58VQ,3M68NM076LNJCRK0NVAMZGLMOO26R6,8,7
69,4,object_10,object_01,740.12500047684,8,1,319.69499960542,1.0,2,object_03,5,1014,0,9,9,restaurant_6,1,memory-2step-stake-s,557,1409106,0.0-19.0-0.0-0.69,APGX2WZ59OWDN,3DW3BNF1HKYVNTMBZS7SV7ATLD58VQ,3M68NM076LNJCRK0NVAMZGLMOO26R6,8,7
70,2,object_05,object_06,1055.1300011575,4,2,299.60500076413,0.7777777777777778,2,object_03,1,1021,0,6,7,forest_6,1,memory-2step-stake-s,558,1417323,0.0-19.0-0.0-0.70,APGX2WZ59OWDN,3DW3BNF1HKYVNTMBZS7SV7ATLD58VQ,3M68NM076LNJCRK0NVAMZGLMOO26R6,3,4
71,2,object_06,object_05,606.70999996364,3,2,306.39000050724,0.8888888888888888,1,object_09,1,1029,0,8,7,forest_6,1,memory-2step-stake-s,559,1425684,0.0-19.0-0.0-0.71,APGX2WZ59OWDN,3DW3BNF1HKYVNTMBZS7SV7ATLD58VQ,3M68NM076LNJCRK0NVAMZGLMOO26R6,4,3
72,3,object_08,object_02,733.27500000596,5,2,361.08499951661,0.7777777777777778,1,object_09,5,1064,0,7,6,library_8,1,memory-2step-stake-s,560,1434005,0.0-19.0-0.0-0.72,APGX2WZ59OWDN,3DW3BNF1HKYVNTMBZS7SV7ATLD58VQ,3M68NM076LNJCRK0NVAMZGLMOO26R6,6,5
73,3,object_02,object_08,863.12999948859,5,1,338.74999918044,0.8888888888888888,1,object_09,5,1104,0,8,4,library_1,1,memory-2step-stake-s,561,1442401,0.0-19.0-0.0-0.73,APGX2WZ59OWDN,3DW3BNF1HKYVNTMBZS7SV7ATLD58VQ,3M68NM076LNJCRK0NVAMZGLMOO26R6,5,6
74,4,object_01,object_10,979.77000102401,8,2,270.91999910772,0.4444444444444444,2,object_03,5,1124,0,9,4,restaurant_6,1,memory-2step-stake-s,562,1450286,0.0-19.0-0.0-0.74,APGX2WZ59OWDN,3DW3BNF1HKYVNTMBZS7SV7ATLD58VQ,3M68NM076LNJCRK0NVAMZGLMOO26R6,7,8
75,4,object_01,object_10,623.15499968827,7,1,330.59000037611,0.7777777777777778,1,object_09,5,1159,0,7,8,restaurant_1,1,memory-2step-stake-s,563,1458531,0.0-19.0-0.0-0.75,APGX2WZ59OWDN,3DW3BNF1HKYVNTMBZS7SV7ATLD58VQ,3M68NM076LNJCRK0NVAMZGLMOO26R6,7,8
76,4,object_01,object_10,578.72000150383,7,1,261.65000163019,0.3333333333333333,1,object_09,1,1162,0,3,6,restaurant_1,1,memory-2step-stake-s,564,1466309,0.0-19.0-0.0-0.76,APGX2WZ59OWDN,3DW3BNF1HKYVNTMBZS7SV7ATLD58VQ,3M68NM076LNJCRK0NVAMZGLMOO26R6,7,8
77,4,object_10,object_01,899.71500076354,7,2,303.6249987781,0.4444444444444444,1,object_09,5,1182,0,4,7,restaurant_1,1,memory-2step-stake-s,565,1474226,0.0-19.0-0.0-0.77,APGX2WZ59OWDN,3DW3BNF1HKYVNTMBZS7SV7ATLD58VQ,3M68NM076LNJCRK0NVAMZGLMOO26R6,8,7
78,1,object_04,object_07,823.9249996841,2,2,242.3400003463,0.4444444444444444,2,object_03,1,1186,0,1,4,desert_6,1,memory-2step-stake-s,566,1482084,0.0-19.0-0.0-0.78,APGX2WZ59OWDN,3DW3BNF1HKYVNTMBZS7SV7ATLD58VQ,3M68NM076LNJCRK0NVAMZGLMOO26R6,1,2
79,1,object_07,object_04,780.61500005424,1,2,304.07500080764,0.0,1,object_09,1,1186,0,0,4,desert_4,1,memory-2step-stake-s,567,1489602,0.0-19.0-0.0-0.79,APGX2WZ59OWDN,3DW3BNF1HKYVNTMBZS7SV7ATLD58VQ,3M68NM076LNJCRK0NVAMZGLMOO26R6,2,1
80,3,object_02,object_08,904.17500026524,6,2,587.76499889791,0.8888888888888888,2,object_03,1,1194,0,1,8,library_1,1,memory-2step-stake-s,568,1498210,0.0-19.0-0.0-0.80,APGX2WZ59OWDN,3DW3BNF1HKYVNTMBZS7SV7ATLD58VQ,3M68NM076LNJCRK0NVAMZGLMOO26R6,5,6
81,4,object_01,object_10,1008.8550001383,8,2,379.93500009179,0.7777777777777778,2,object_03,5,1229,0,1,7,restaurant_7,1,memory-2step-stake-s,569,1506527,0.0-19.0-0.0-0.81,APGX2WZ59OWDN,3DW3BNF1HKYVNTMBZS7SV7ATLD58VQ,3M68NM076LNJCRK0NVAMZGLMOO26R6,7,8
82,4,object_10,object_01,669.49499957263,8,1,577.31499895453,0.6666666666666666,2,object_03,1,1235,0,1,6,restaurant_1,1,memory-2step-stake-s,570,1514929,0.0-19.0-0.0-0.82,APGX2WZ59OWDN,3DW3BNF1HKYVNTMBZS7SV7ATLD58VQ,3M68NM076LNJCRK0NVAMZGLMOO26R6,8,7
83,4,object_01,object_10,1244.7699997574,7,1,296.35999910533,0.3333333333333333,1,object_09,5,1250,0,3,5,restaurant_7,1,memory-2step-stake-s,571,1522764,0.0-19.0-0.0-0.83,APGX2WZ59OWDN,3DW3BNF1HKYVNTMBZS7SV7ATLD58VQ,3M68NM076LNJCRK0NVAMZGLMOO26R6,7,8
84,2,object_06,object_05,946.53999991715,3,2,342.66499988735,0.6666666666666666,1,object_09,1,1256,0,6,5,forest_1,1,memory-2step-stake-s,572,1530922,0.0-19.0-0.0-0.84,APGX2WZ59OWDN,3DW3BNF1HKYVNTMBZS7SV7ATLD58VQ,3M68NM076LNJCRK0NVAMZGLMOO26R6,4,3
85,1,object_04,object_07,700.61999931931,1,1,272.1400000155,0.7777777777777778,1,object_09,5,1291,0,7,5,desert_7,1,memory-2step-stake-s,573,1539120,0.0-19.0-0.0-0.85,APGX2WZ59OWDN,3DW3BNF1HKYVNTMBZS7SV7ATLD58VQ,3M68NM076LNJCRK0NVAMZGLMOO26R6,1,2
86,2,object_05,object_06,767.9850012064,4,2,290.57000018656,0.3333333333333333,2,object_03,5,1306,0,8,3,forest_6,1,memory-2step-stake-s,574,1546942,0.0-19.0-0.0-0.86,APGX2WZ59OWDN,3DW3BNF1HKYVNTMBZS7SV7ATLD58VQ,3M68NM076LNJCRK0NVAMZGLMOO26R6,3,4
87,4,object_10,object_01,506.97499886155,8,1,317.68500059843,0.7777777777777778,2,object_03,5,1341,0,8,7,restaurant_7,1,memory-2step-stake-s,575,1555214,0.0-19.0-0.0-0.87,APGX2WZ59OWDN,3DW3BNF1HKYVNTMBZS7SV7ATLD58VQ,3M68NM076LNJCRK0NVAMZGLMOO26R6,8,7
88,2,object_05,object_06,-1.0,-1,-1,-1.0,0.0,-,0,5,1341,0,4,8,forest_6,1,memory-2step-stake-s,576,1561721,0.0-19.0-0.0-0.88,APGX2WZ59OWDN,3DW3BNF1HKYVNTMBZS7SV7ATLD58VQ,3M68NM076LNJCRK0NVAMZGLMOO26R6,3,4
89,1,object_04,object_07,466.07499942183,1,1,381.34000077844,0.4444444444444444,1,object_09,1,1345,0,4,6,desert_8,1,memory-2step-stake-s,577,1569735,0.0-19.0-0.0-0.89,APGX2WZ59OWDN,3DW3BNF1HKYVNTMBZS7SV7ATLD58VQ,3M68NM076LNJCRK0NVAMZGLMOO26R6,1,2
90,4,object_10,object_01,669.23500038683,8,1,416.61499999464,0.8888888888888888,2,object_03,1,1353,0,4,8,restaurant_7,1,memory-2step-stake-s,578,1578187,0.0-19.0-0.0-0.90,APGX2WZ59OWDN,3DW3BNF1HKYVNTMBZS7SV7ATLD58VQ,3M68NM076LNJCRK0NVAMZGLMOO26R6,8,7
91,1,object_04,object_07,681.58500082791,2,2,308.20999853313,0.6666666666666666,2,object_03,1,1359,0,5,6,desert_8,1,memory-2step-stake-s,579,1586315,0.0-19.0-0.0-0.91,APGX2WZ59OWDN,3DW3BNF1HKYVNTMBZS7SV7ATLD58VQ,3M68NM076LNJCRK0NVAMZGLMOO26R6,1,2
92,4,object_10,object_01,1468.6549995095,8,1,656.42500109971,0.7777777777777778,2,object_03,1,1366,0,3,7,restaurant_6,1,memory-2step-stake-s,580,1594889,0.0-19.0-0.0-0.92,APGX2WZ59OWDN,3DW3BNF1HKYVNTMBZS7SV7ATLD58VQ,3M68NM076LNJCRK0NVAMZGLMOO26R6,8,7
93,1,object_04,object_07,1367.0650012791,2,2,290.9049987793,0.5555555555555556,2,object_03,1,1371,0,2,5,desert_4,1,memory-2step-stake-s,581,1602916,0.0-19.0-0.0-0.93,APGX2WZ59OWDN,3DW3BNF1HKYVNTMBZS7SV7ATLD58VQ,3M68NM076LNJCRK0NVAMZGLMOO26R6,1,2
94,4,object_01,object_10,811.8150010705,8,2,454.59000021219,0.6666666666666666,2,object_03,5,1401,0,1,6,restaurant_7,1,memory-2step-stake-s,582,1611206,0.0-19.0-0.0-0.94,APGX2WZ59OWDN,3DW3BNF1HKYVNTMBZS7SV7ATLD58VQ,3M68NM076LNJCRK0NVAMZGLMOO26R6,7,8
95,1,object_04,object_07,673.46499860287,2,2,117.07999929786,0.4444444444444444,2,object_03,1,1405,0,0,4,desert_6,1,memory-2step-stake-s,583,1618939,0.0-19.0-0.0-0.95,APGX2WZ59OWDN,3DW3BNF1HKYVNTMBZS7SV7ATLD58VQ,3M68NM076LNJCRK0NVAMZGLMOO26R6,1,2
96,2,object_06,object_05,901.35500021279,3,2,320.77999971807,0.1111111111111111,1,object_09,5,1410,0,1,7,forest_7,1,memory-2step-stake-s,584,1626572,0.0-19.0-0.0-0.96,APGX2WZ59OWDN,3DW3BNF1HKYVNTMBZS7SV7ATLD58VQ,3M68NM076LNJCRK0NVAMZGLMOO26R6,4,3
97,2,object_06,object_05,604.25500012934,4,1,319.95500065386,0.5555555555555556,2,object_03,1,1415,0,1,5,forest_7,1,memory-2step-stake-s,585,1634608,0.0-19.0-0.0-0.97,APGX2WZ59OWDN,3DW3BNF1HKYVNTMBZS7SV7ATLD58VQ,3M68NM076LNJCRK0NVAMZGLMOO26R6,4,3
98,1,object_07,object_04,898.21499958634,2,1,334.69000086188,0.2222222222222222,2,object_03,5,1425,0,0,2,desert_8,1,memory-2step-stake-s,586,1642357,0.0-19.0-0.0-0.98,APGX2WZ59OWDN,3DW3BNF1HKYVNTMBZS7SV7ATLD58VQ,3M68NM076LNJCRK0NVAMZGLMOO26R6,2,1
99,2,object_05,object_06,879.80999983847,4,2,355.05999997258,0.1111111111111111,2,object_03,5,1430,0,3,1,forest_2,1,memory-2step-stake-s,587,1650023,0.0-19.0-0.0-0.99,APGX2WZ59OWDN,3DW3BNF1HKYVNTMBZS7SV7ATLD58VQ,3M68NM076LNJCRK0NVAMZGLMOO26R6,3,4
100,3,object_08,object_02,1149.1100005805,6,1,600.56499950588,0.5555555555555556,2,object_03,5,1455,0,4,5,library_8,1,memory-2step-stake-s,588,1658356,0.0-19.0-0.0-0.100,APGX2WZ59OWDN,3DW3BNF1HKYVNTMBZS7SV7ATLD58VQ,3M68NM076LNJCRK0NVAMZGLMOO26R6,6,5
101,2,object_05,object_06,1170.114999637,3,1,309.33500081301,0.7777777777777778,1,object_09,1,1462,0,7,5,forest_6,1,memory-2step-stake-s,589,1666625,0.0-19.0-0.0-0.101,APGX2WZ59OWDN,3DW3BNF1HKYVNTMBZS7SV7ATLD58VQ,3M68NM076LNJCRK0NVAMZGLMOO26R6,3,4
102,1,object_07,object_04,709.73500050604,2,1,264.30500112474,0.3333333333333333,2,object_03,1,1465,0,7,3,desert_8,1,memory-2step-stake-s,590,1674407,0.0-19.0-0.0-0.102,APGX2WZ59OWDN,3DW3BNF1HKYVNTMBZS7SV7ATLD58VQ,3M68NM076LNJCRK0NVAMZGLMOO26R6,2,1
103,1,object_07,object_04,704.52499948442,1,2,275.69000050426,0.6666666666666666,1,object_09,1,1471,0,6,2,desert_7,1,memory-2step-stake-s,591,1682507,0.0-19.0-0.0-0.103,APGX2WZ59OWDN,3DW3BNF1HKYVNTMBZS7SV7ATLD58VQ,3M68NM076LNJCRK0NVAMZGLMOO26R6,2,1
104,1,object_07,object_04,645.63499949872,1,2,376.91999971867,0.3333333333333333,1,object_09,1,1474,0,3,5,desert_7,1,memory-2step-stake-s,592,1690424,0.0-19.0-0.0-0.104,APGX2WZ59OWDN,3DW3BNF1HKYVNTMBZS7SV7ATLD58VQ,3M68NM076LNJCRK0NVAMZGLMOO26R6,2,1
105,3,object_02,object_08,969.69499997795,5,1,277.2250007838,0.3333333333333333,1,object_09,5,1489,0,3,4,library_8,1,memory-2step-stake-s,593,1698226,0.0-19.0-0.0-0.105,APGX2WZ59OWDN,3DW3BNF1HKYVNTMBZS7SV7ATLD58VQ,3M68NM076LNJCRK0NVAMZGLMOO26R6,5,6
106,4,object_01,object_10,1041.740000248,8,2,357.27499984205,0.7777777777777778,2,object_03,5,1524,0,4,7,restaurant_1,1,memory-2step-stake-s,594,1706502,0.0-19.0-0.0-0.106,APGX2WZ59OWDN,3DW3BNF1HKYVNTMBZS7SV7ATLD58VQ,3M68NM076LNJCRK0NVAMZGLMOO26R6,7,8
107,1,object_04,object_07,1157.2650000453,1,1,240.85500091314,0.6666666666666666,1,object_09,1,1530,0,6,6,desert_4,1,memory-2step-stake-s,595,1714562,0.0-19.0-0.0-0.107,APGX2WZ59OWDN,3DW3BNF1HKYVNTMBZS7SV7ATLD58VQ,3M68NM076LNJCRK0NVAMZGLMOO26R6,1,2
108,3,object_02,object_08,1234.375,5,1,469.48499977589,0.3333333333333333,1,object_09,5,1545,0,3,2,library_1,1,memory-2step-stake-s,596,1722565,0.0-19.0-0.0-0.108,APGX2WZ59OWDN,3DW3BNF1HKYVNTMBZS7SV7ATLD58VQ,3M68NM076LNJCRK0NVAMZGLMOO26R6,5,6
109,2,object_05,object_06,704.17999848723,4,2,531.9349989295,0.0,2,object_03,1,1545,0,3,0,forest_1,1,memory-2step-stake-s,597,1730309,0.0-19.0-0.0-0.109,APGX2WZ59OWDN,3DW3BNF1HKYVNTMBZS7SV7ATLD58VQ,3M68NM076LNJCRK0NVAMZGLMOO26R6,3,4
110,3,object_02,object_08,584.96499992907,5,1,299.2000002414,0.4444444444444444,1,object_09,5,1565,0,4,1,library_1,1,memory-2step-stake-s,598,1738247,0.0-19.0-0.0-0.110,APGX2WZ59OWDN,3DW3BNF1HKYVNTMBZS7SV7ATLD58VQ,3M68NM076LNJCRK0NVAMZGLMOO26R6,5,6
111,3,object_08,object_02,767.68999919295,5,2,474.63500127196,0.8888888888888888,1,object_09,5,1605,0,8,0,library_4,1,memory-2step-stake-s,599,1746763,0.0-19.0-0.0-0.111,APGX2WZ59OWDN,3DW3BNF1HKYVNTMBZS7SV7ATLD58VQ,3M68NM076LNJCRK0NVAMZGLMOO26R6,6,5
112,3,object_02,object_08,733.00000093877,5,1,576.84999890625,0.8888888888888888,1,object_09,5,1645,0,8,1,library_8,1,memory-2step-stake-s,600,1755397,0.0-19.0-0.0-0.112,APGX2WZ59OWDN,3DW3BNF1HKYVNTMBZS7SV7ATLD58VQ,3M68NM076LNJCRK0NVAMZGLMOO26R6,5,6
113,2,object_06,object_05,778.87499891222,3,2,142.40499958396,0.5555555555555556,1,object_09,1,1650,0,5,1,forest_7,1,memory-2step-stake-s,601,1763257,0.0-19.0-0.0-0.113,APGX2WZ59OWDN,3DW3BNF1HKYVNTMBZS7SV7ATLD58VQ,3M68NM076LNJCRK0NVAMZGLMOO26R6,4,3
114,2,object_05,object_06,785.24000011384,3,1,413.34000043571,0.6666666666666666,1,object_09,1,1656,0,6,5,forest_1,1,memory-2step-stake-s,602,1771487,0.0-19.0-0.0-0.114,APGX2WZ59OWDN,3DW3BNF1HKYVNTMBZS7SV7ATLD58VQ,3M68NM076LNJCRK0NVAMZGLMOO26R6,3,4
115,3,object_02,object_08,628.27499955893,5,1,223.87500107288,0.7777777777777778,1,object_09,5,1691,0,7,4,library_1,1,memory-2step-stake-s,603,1779629,0.0-19.0-0.0-0.115,APGX2WZ59OWDN,3DW3BNF1HKYVNTMBZS7SV7ATLD58VQ,3M68NM076LNJCRK0NVAMZGLMOO26R6,5,6
116,3,object_08,object_02,629.86999936402,5,2,545.15000060201,0.6666666666666666,1,object_09,5,1721,0,6,3,library_7,1,memory-2step-stake-s,604,1787993,0.0-19.0-0.0-0.116,APGX2WZ59OWDN,3DW3BNF1HKYVNTMBZS7SV7ATLD58VQ,3M68NM076LNJCRK0NVAMZGLMOO26R6,6,5
117,4,object_10,object_01,699.85499978065,7,2,279.06000055373,0.6666666666666666,1,object_09,5,1751,0,6,4,restaurant_6,1,memory-2step-stake-s,605,1796091,0.0-19.0-0.0-0.117,APGX2WZ59OWDN,3DW3BNF1HKYVNTMBZS7SV7ATLD58VQ,3M68NM076LNJCRK0NVAMZGLMOO26R6,8,7
118,2,object_05,object_06,594.77999992669,3,1,293.30500029027,0.6666666666666666,1,object_09,5,1781,0,6,1,forest_2,1,memory-2step-stake-s,606,1804234,0.0-19.0-0.0-0.118,APGX2WZ59OWDN,3DW3BNF1HKYVNTMBZS7SV7ATLD58VQ,3M68NM076LNJCRK0NVAMZGLMOO26R6,3,4
119,2,object_06,object_05,876.53500027955,3,2,456.08500018716,0.7777777777777778,1,object_09,1,1788,0,7,1,forest_7,1,memory-2step-stake-s,607,1812638,0.0-19.0-0.0-0.119,APGX2WZ59OWDN,3DW3BNF1HKYVNTMBZS7SV7ATLD58VQ,3M68NM076LNJCRK0NVAMZGLMOO26R6,4,3
120,4,object_01,object_10,783.5399992764,7,1,347.24000096321,0.8888888888888888,1,object_09,5,1828,0,8,5,restaurant_4,1,memory-2step-stake-s,608,1821007,0.0-19.0-0.0-0.120,APGX2WZ59OWDN,3DW3BNF1HKYVNTMBZS7SV7ATLD58VQ,3M68NM076LNJCRK0NVAMZGLMOO26R6,7,8
121,2,object_05,object_06,666.38000123203,3,1,373.36499989033,0.8888888888888888,1,object_09,1,1836,0,8,5,forest_7,1,memory-2step-stake-s,609,1829400,0.0-19.0-0.0-0.121,APGX2WZ59OWDN,3DW3BNF1HKYVNTMBZS7SV7ATLD58VQ,3M68NM076LNJCRK0NVAMZGLMOO26R6,3,4
122,3,object_02,object_08,625.70500001311,5,1,429.65999990702,1.0,1,object_09,5,1881,0,9,7,library_8,1,memory-2step-stake-s,610,1837949,0.0-19.0-0.0-0.122,APGX2WZ59OWDN,3DW3BNF1HKYVNTMBZS7SV7ATLD58VQ,3M68NM076LNJCRK0NVAMZGLMOO26R6,5,6
123,2,object_06,object_05,788.49499858916,3,2,295.41499912739,0.8888888888888888,1,object_09,1,1889,0,8,6,forest_2,1,memory-2step-stake-s,611,1846309,0.0-19.0-0.0-0.123,APGX2WZ59OWDN,3DW3BNF1HKYVNTMBZS7SV7ATLD58VQ,3M68NM076LNJCRK0NVAMZGLMOO26R6,4,3
124,1,object_04,object_07,751.72500126064,1,1,338.94000016153,0.8888888888888888,1,object_09,5,1929,0,8,8,desert_8,1,memory-2step-stake-s,612,1854710,0.0-19.0-0.0-0.124,APGX2WZ59OWDN,3DW3BNF1HKYVNTMBZS7SV7ATLD58VQ,3M68NM076LNJCRK0NVAMZGLMOO26R6,1,2
125,2,object_06,object_05,654.67499941587,3,2,314.43499960005,0.6666666666666666,1,object_09,1,1935,0,6,8,forest_7,1,memory-2step-stake-s,613,1862858,0.0-19.0-0.0-0.125,APGX2WZ59OWDN,3DW3BNF1HKYVNTMBZS7SV7ATLD58VQ,3M68NM076LNJCRK0NVAMZGLMOO26R6,4,3
126,3,object_08,object_02,1188.2649995387,5,2,536.60500049591,0.8888888888888888,1,object_09,5,1975,0,8,7,library_8,1,memory-2step-stake-s,614,1871465,0.0-19.0-0.0-0.126,APGX2WZ59OWDN,3DW3BNF1HKYVNTMBZS7SV7ATLD58VQ,3M68NM076LNJCRK0NVAMZGLMOO26R6,6,5
127,1,object_04,object_07,861.10500060022,1,1,305.75999990106,1.0,1,object_09,1,1984,0,9,9,desert_7,1,memory-2step-stake-s,615,1879966,0.0-19.0-0.0-0.127,APGX2WZ59OWDN,3DW3BNF1HKYVNTMBZS7SV7ATLD58VQ,3M68NM076LNJCRK0NVAMZGLMOO26R6,1,2
128,2,object_05,object_06,937.02499940991,3,1,317.55500100553,0.8888888888888888,1,object_09,5,2024,0,8,5,forest_6,1,memory-2step-stake-s,617,1903156,0.0-19.0-0.1-0.128,APGX2WZ59OWDN,3DW3BNF1HKYVNTMBZS7SV7ATLD58VQ,3M68NM076LNJCRK0NVAMZGLMOO26R6,3,4
129,4,object_01,object_10,622.92999960482,7,1,34.044999629259,0.8888888888888888,1,object_09,5,2064,0,8,7,restaurant_4,1,memory-2step-stake-s,618,1911207,0.0-19.0-0.1-0.129,APGX2WZ59OWDN,3DW3BNF1HKYVNTMBZS7SV7ATLD58VQ,3M68NM076LNJCRK0NVAMZGLMOO26R6,7,8
130,1,object_04,object_07,692.02999956906,2,2,160.0500009954,0.8888888888888888,2,object_03,1,2072,0,7,8,desert_4,1,memory-2step-stake-s,619,1919386,0.0-19.0-0.1-0.130,APGX2WZ59OWDN,3DW3BNF1HKYVNTMBZS7SV7ATLD58VQ,3M68NM076LNJCRK0NVAMZGLMOO26R6,1,2
131,2,object_06,object_05,771.19500003755,3,2,239.36500027776,0.7777777777777778,1,object_09,1,2079,0,7,8,forest_2,1,memory-2step-stake-s,620,1927542,0.0-19.0-0.1-0.131,APGX2WZ59OWDN,3DW3BNF1HKYVNTMBZS7SV7ATLD58VQ,3M68NM076LNJCRK0NVAMZGLMOO26R6,4,3
132,1,object_04,object_07,774.70000088215,1,1,281.72499872744,0.7777777777777778,1,object_09,1,2086,0,7,8,desert_6,1,memory-2step-stake-s,621,1935742,0.0-19.0-0.1-0.132,APGX2WZ59OWDN,3DW3BNF1HKYVNTMBZS7SV7ATLD58VQ,3M68NM076LNJCRK0NVAMZGLMOO26R6,1,2
133,2,object_06,object_05,751.90499983728,4,1,171.58499918878,0.7777777777777778,2,object_03,1,2093,0,8,7,forest_1,1,memory-2step-stake-s,622,1943833,0.0-19.0-0.1-0.133,APGX2WZ59OWDN,3DW3BNF1HKYVNTMBZS7SV7ATLD58VQ,3M68NM076LNJCRK0NVAMZGLMOO26R6,4,3
134,4,object_01,object_10,791.12000018358,8,2,122.44500033557,0.8888888888888888,2,object_03,5,2133,0,8,8,restaurant_7,1,memory-2step-stake-s,623,1951974,0.0-19.0-0.1-0.134,APGX2WZ59OWDN,3DW3BNF1HKYVNTMBZS7SV7ATLD58VQ,3M68NM076LNJCRK0NVAMZGLMOO26R6,7,8
135,3,object_02,object_08,833.77499878407,6,2,172.77999967337,0.7777777777777778,2,object_03,5,2168,0,6,7,library_7,1,memory-2step-stake-s,624,1960087,0.0-19.0-0.1-0.135,APGX2WZ59OWDN,3DW3BNF1HKYVNTMBZS7SV7ATLD58VQ,3M68NM076LNJCRK0NVAMZGLMOO26R6,5,6
136,1,object_04,object_07,938.88999894261,2,2,237.93500103056,0.8888888888888888,2,object_03,1,2176,0,7,8,desert_7,1,memory-2step-stake-s,625,1968385,0.0-19.0-0.1-0.136,APGX2WZ59OWDN,3DW3BNF1HKYVNTMBZS7SV7ATLD58VQ,3M68NM076LNJCRK0NVAMZGLMOO26R6,1,2
137,3,object_08,object_02,656.68500028551,6,1,307.21499957144,1.0,2,object_03,5,2221,0,7,9,library_7,1,memory-2step-stake-s,626,1976836,0.0-19.0-0.1-0.137,APGX2WZ59OWDN,3DW3BNF1HKYVNTMBZS7SV7ATLD58VQ,3M68NM076LNJCRK0NVAMZGLMOO26R6,6,5
138,3,object_08,object_02,584.8150011152,6,1,211.34500019252,0.7777777777777778,2,object_03,5,2256,0,8,7,library_7,1,memory-2step-stake-s,627,1984967,0.0-19.0-0.1-0.138,APGX2WZ59OWDN,3DW3BNF1HKYVNTMBZS7SV7ATLD58VQ,3M68NM076LNJCRK0NVAMZGLMOO26R6,6,5
139,4,object_10,object_01,772.66500145197,8,1,296.1199991405,0.8888888888888888,2,object_03,5,2296,0,8,8,restaurant_1,1,memory-2step-stake-s,628,1993336,0.0-19.0-0.1-0.139,APGX2WZ59OWDN,3DW3BNF1HKYVNTMBZS7SV7ATLD58VQ,3M68NM076LNJCRK0NVAMZGLMOO26R6,8,7
140,4,object_10,object_01,893.54999922216,8,1,272.0450013876,0.8888888888888888,2,object_03,5,2336,0,9,8,restaurant_7,1,memory-2step-stake-s,629,2001688,0.0-19.0-0.1-0.140,APGX2WZ59OWDN,3DW3BNF1HKYVNTMBZS7SV7ATLD58VQ,3M68NM076LNJCRK0NVAMZGLMOO26R6,8,7
141,2,object_05,object_06,846.10500000417,3,1,298.39500039816,0.8888888888888888,1,object_09,1,2344,0,8,9,forest_7,1,memory-2step-stake-s,630,2010007,0.0-19.0-0.1-0.141,APGX2WZ59OWDN,3DW3BNF1HKYVNTMBZS7SV7ATLD58VQ,3M68NM076LNJCRK0NVAMZGLMOO26R6,3,4
142,4,object_10,object_01,632.6700001955,8,1,267.66499876976,0.8888888888888888,2,object_03,1,2352,0,8,8,restaurant_4,1,memory-2step-stake-s,631,2018326,0.0-19.0-0.1-0.142,APGX2WZ59OWDN,3DW3BNF1HKYVNTMBZS7SV7ATLD58VQ,3M68NM076LNJCRK0NVAMZGLMOO26R6,8,7
143,4,object_10,object_01,651.60500071943,8,1,310.5999995023,0.6666666666666666,2,object_03,5,2382,0,7,6,restaurant_6,1,memory-2step-stake-s,632,2026458,0.0-19.0-0.1-0.143,APGX2WZ59OWDN,3DW3BNF1HKYVNTMBZS7SV7ATLD58VQ,3M68NM076LNJCRK0NVAMZGLMOO26R6,8,7
144,3,object_02,object_08,886.67500019073,5,1,273.90499971807,0.6666666666666666,1,object_09,1,2388,0,6,7,library_8,1,memory-2step-stake-s,633,2034576,0.0-19.0-0.1-0.144,APGX2WZ59OWDN,3DW3BNF1HKYVNTMBZS7SV7ATLD58VQ,3M68NM076LNJCRK0NVAMZGLMOO26R6,5,6
145,1,object_04,object_07,1073.5950004309,2,2,308.76499973238,0.6666666666666666,2,object_03,1,2394,0,8,6,desert_4,1,memory-2step-stake-s,634,2042726,0.0-19.0-0.1-0.145,APGX2WZ59OWDN,3DW3BNF1HKYVNTMBZS7SV7ATLD58VQ,3M68NM076LNJCRK0NVAMZGLMOO26R6,1,2
146,4,object_01,object_10,740.45000039041,7,1,272.08999916911,0.6666666666666666,1,object_09,1,2400,0,6,7,restaurant_1,1,memory-2step-stake-s,635,2050846,0.0-19.0-0.1-0.146,APGX2WZ59OWDN,3DW3BNF1HKYVNTMBZS7SV7ATLD58VQ,3M68NM076LNJCRK0NVAMZGLMOO26R6,7,8
147,3,object_08,object_02,598.34000095725,5,2,426.7950002104,0.6666666666666666,1,object_09,5,2430,0,6,7,library_8,1,memory-2step-stake-s,636,2059128,0.0-19.0-0.1-0.147,APGX2WZ59OWDN,3DW3BNF1HKYVNTMBZS7SV7ATLD58VQ,3M68NM076LNJCRK0NVAMZGLMOO26R6,6,5
148,1,object_07,object_04,749.02499839664,1,2,265.22500067949,0.7777777777777778,1,object_09,1,2437,0,7,8,desert_8,1,memory-2step-stake-s,637,2067312,0.0-19.0-0.1-0.148,APGX2WZ59OWDN,3DW3BNF1HKYVNTMBZS7SV7ATLD58VQ,3M68NM076LNJCRK0NVAMZGLMOO26R6,2,1
149,3,object_02,object_08,686.62500008941,6,2,386.34499907494,1.0,2,object_03,5,2482,0,6,9,library_4,1,memory-2step-stake-s,638,2075819,0.0-19.0-0.1-0.149,APGX2WZ59OWDN,3DW3BNF1HKYVNTMBZS7SV7ATLD58VQ,3M68NM076LNJCRK0NVAMZGLMOO26R6,5,6
150,2,object_06,object_05,834.72999930382,4,1,254.0600001812,0.7777777777777778,2,object_03,1,2489,0,6,7,forest_7,1,memory-2step-stake-s,639,2083992,0.0-19.0-0.1-0.150,APGX2WZ59OWDN,3DW3BNF1HKYVNTMBZS7SV7ATLD58VQ,3M68NM076LNJCRK0NVAMZGLMOO26R6,4,3
151,4,object_01,object_10,704.22499999404,8,2,251.86000019312,0.7777777777777778,2,object_03,5,2524,0,5,7,restaurant_7,1,memory-2step-stake-s,640,2092162,0.0-19.0-0.1-0.151,APGX2WZ59OWDN,3DW3BNF1HKYVNTMBZS7SV7ATLD58VQ,3M68NM076LNJCRK0NVAMZGLMOO26R6,7,8
152,1,object_04,object_07,782.5249992311,2,2,330.46500012279,1.0,2,object_03,1,2533,0,6,9,desert_7,1,memory-2step-stake-s,641,2100665,0.0-19.0-0.1-0.152,APGX2WZ59OWDN,3DW3BNF1HKYVNTMBZS7SV7ATLD58VQ,3M68NM076LNJCRK0NVAMZGLMOO26R6,1,2
153,3,object_02,object_08,865.10499939322,6,2,397.12000079453,0.4444444444444444,2,object_03,5,2553,0,9,4,library_7,1,memory-2step-stake-s,642,2108696,0.0-19.0-0.1-0.153,APGX2WZ59OWDN,3DW3BNF1HKYVNTMBZS7SV7ATLD58VQ,3M68NM076LNJCRK0NVAMZGLMOO26R6,5,6
154,1,object_04,object_07,-1.0,-1,-1,-1.0,0.0,-,0,1,2553,0,8,7,desert_4,1,memory-2step-stake-s,643,2115205,0.0-19.0-0.1-0.154,APGX2WZ59OWDN,3DW3BNF1HKYVNTMBZS7SV7ATLD58VQ,3M68NM076LNJCRK0NVAMZGLMOO26R6,1,2
155,2,object_05,object_06,742.4699999392,3,1,257.47000053525,0.4444444444444444,1,object_09,5,2573,0,4,6,forest_6,1,memory-2step-stake-s,644,2123084,0.0-19.0-0.1-0.155,APGX2WZ59OWDN,3DW3BNF1HKYVNTMBZS7SV7ATLD58VQ,3M68NM076LNJCRK0NVAMZGLMOO26R6,3,4
156,1,object_07,object_04,519.71499994397,2,1,307.03499913216,0.3333333333333333,2,object_03,1,2576,0,1,3,desert_8,1,memory-2step-stake-s,645,2130906,0.0-19.0-0.1-0.156,APGX2WZ59OWDN,3DW3BNF1HKYVNTMBZS7SV7ATLD58VQ,3M68NM076LNJCRK0NVAMZGLMOO26R6,2,1
157,4,object_01,object_10,1002.630000934,7,1,277.13500149548,0.1111111111111111,1,object_09,5,2581,0,1,1,restaurant_6,1,memory-2step-stake-s,646,2138505,0.0-19.0-0.1-0.157,APGX2WZ59OWDN,3DW3BNF1HKYVNTMBZS7SV7ATLD58VQ,3M68NM076LNJCRK0NVAMZGLMOO26R6,7,8
158,3,object_08,object_02,972.54999913275,6,1,248.12999926507,0.3333333333333333,2,object_03,5,2596,0,2,3,library_8,1,memory-2step-stake-s,647,2146269,0.0-19.0-0.1-0.158,APGX2WZ59OWDN,3DW3BNF1HKYVNTMBZS7SV7ATLD58VQ,3M68NM076LNJCRK0NVAMZGLMOO26R6,6,5
159,1,object_07,object_04,737.56000027061,2,1,300.92499963939,0.6666666666666666,2,object_03,1,2602,0,2,6,desert_6,1,memory-2step-stake-s,648,2154418,0.0-19.0-0.1-0.159,APGX2WZ59OWDN,3DW3BNF1HKYVNTMBZS7SV7ATLD58VQ,3M68NM076LNJCRK0NVAMZGLMOO26R6,2,1
160,1,object_07,object_04,654.17500026524,2,1,281.8400003016,0.6666666666666666,2,object_03,5,2632,0,2,6,desert_4,1,memory-2step-stake-s,649,2162536,0.0-19.0-0.1-0.160,APGX2WZ59OWDN,3DW3BNF1HKYVNTMBZS7SV7ATLD58VQ,3M68NM076LNJCRK0NVAMZGLMOO26R6,2,1
161,2,object_05,object_06,794.22000050545,4,2,125.86999870837,0.6666666666666666,2,object_03,1,2638,0,2,6,forest_7,1,memory-2step-stake-s,650,2170505,0.0-19.0-0.1-0.161,APGX2WZ59OWDN,3DW3BNF1HKYVNTMBZS7SV7ATLD58VQ,3M68NM076LNJCRK0NVAMZGLMOO26R6,3,4
162,1,object_04,object_07,793.56000013649,1,1,228.67999970913,0.3333333333333333,1,object_09,1,2641,0,3,8,desert_8,1,memory-2step-stake-s,651,2178277,0.0-19.0-0.1-0.162,APGX2WZ59OWDN,3DW3BNF1HKYVNTMBZS7SV7ATLD58VQ,3M68NM076LNJCRK0NVAMZGLMOO26R6,1,2
163,3,object_08,object_02,997.6749997586,6,1,281.66999854147,0.7777777777777778,2,object_03,5,2676,0,3,7,library_7,1,memory-2step-stake-s,652,2186477,0.0-19.0-0.1-0.163,APGX2WZ59OWDN,3DW3BNF1HKYVNTMBZS7SV7ATLD58VQ,3M68NM076LNJCRK0NVAMZGLMOO26R6,6,5
164,3,object_02,object_08,837.41000108421,6,2,321.61499932408,0.8888888888888888,2,object_03,5,2716,0,5,8,library_4,1,memory-2step-stake-s,653,2194820,0.0-19.0-0.1-0.164,APGX2WZ59OWDN,3DW3BNF1HKYVNTMBZS7SV7ATLD58VQ,3M68NM076LNJCRK0NVAMZGLMOO26R6,5,6
165,2,object_05,object_06,714.40999954939,4,2,349.52499903738,0.6666666666666666,2,object_03,1,2722,0,7,6,forest_6,1,memory-2step-stake-s,654,2202991,0.0-19.0-0.1-0.165,APGX2WZ59OWDN,3DW3BNF1HKYVNTMBZS7SV7ATLD58VQ,3M68NM076LNJCRK0NVAMZGLMOO26R6,3,4
166,2,object_06,object_05,1048.0399988592,4,1,244.64000016451,0.7777777777777778,2,object_03,1,2729,0,6,7,forest_2,1,memory-2step-stake-s,655,2211206,0.0-19.0-0.1-0.166,APGX2WZ59OWDN,3DW3BNF1HKYVNTMBZS7SV7ATLD58VQ,3M68NM076LNJCRK0NVAMZGLMOO26R6,4,3
167,3,object_08,object_02,616.97500012815,6,1,244.72999945283,0.7777777777777778,2,object_03,5,2764,0,5,7,library_7,1,memory-2step-stake-s,656,2219368,0.0-19.0-0.1-0.167,APGX2WZ59OWDN,3DW3BNF1HKYVNTMBZS7SV7ATLD58VQ,3M68NM076LNJCRK0NVAMZGLMOO26R6,6,5
168,3,object_02,object_08,567.12999939919,6,2,235.34500040114,1.0,2,object_03,1,2773,0,5,9,library_1,1,memory-2step-stake-s,657,2227724,0.0-19.0-0.1-0.168,APGX2WZ59OWDN,3DW3BNF1HKYVNTMBZS7SV7ATLD58VQ,3M68NM076LNJCRK0NVAMZGLMOO26R6,5,6
169,3,object_08,object_02,604.25000078976,6,1,288.43999840319,0.7777777777777778,2,object_03,5,2808,0,9,7,library_4,1,memory-2step-stake-s,658,2235933,0.0-19.0-0.1-0.169,APGX2WZ59OWDN,3DW3BNF1HKYVNTMBZS7SV7ATLD58VQ,3M68NM076LNJCRK0NVAMZGLMOO26R6,6,5
170,2,object_06,object_05,756.79500028491,3,2,176.35500058532,0.7777777777777778,1,object_09,1,2815,0,7,8,forest_2,1,memory-2step-stake-s,659,2244028,0.0-19.0-0.1-0.170,APGX2WZ59OWDN,3DW3BNF1HKYVNTMBZS7SV7ATLD58VQ,3M68NM076LNJCRK0NVAMZGLMOO26R6,4,3
171,3,object_08,object_02,648.59499968588,6,1,299.11999963224,0.7777777777777778,2,object_03,1,2822,0,7,7,library_4,1,memory-2step-stake-s,660,2252246,0.0-19.0-0.1-0.171,APGX2WZ59OWDN,3DW3BNF1HKYVNTMBZS7SV7ATLD58VQ,3M68NM076LNJCRK0NVAMZGLMOO26R6,6,5
172,1,object_04,object_07,693.58500093222,1,1,417.99499839544,0.8888888888888888,1,object_09,1,2830,0,8,7,desert_8,1,memory-2step-stake-s,661,2260728,0.0-19.0-0.1-0.172,APGX2WZ59OWDN,3DW3BNF1HKYVNTMBZS7SV7ATLD58VQ,3M68NM076LNJCRK0NVAMZGLMOO26R6,1,2
173,2,object_05,object_06,908.04000012577,4,2,88.045001029968,0.2222222222222222,2,object_03,1,2832,0,9,2,forest_1,1,memory-2step-stake-s,662,2268249,0.0-19.0-0.1-0.173,APGX2WZ59OWDN,3DW3BNF1HKYVNTMBZS7SV7ATLD58VQ,3M68NM076LNJCRK0NVAMZGLMOO26R6,3,4
174,1,object_07,object_04,675.66500045359,1,2,270.47000080347,0.6666666666666666,1,object_09,1,2838,0,6,5,desert_8,1,memory-2step-stake-s,663,2276367,0.0-19.0-0.1-0.174,APGX2WZ59OWDN,3DW3BNF1HKYVNTMBZS7SV7ATLD58VQ,3M68NM076LNJCRK0NVAMZGLMOO26R6,2,1
175,3,object_08,object_02,1007.6350010931,5,2,290.92999920249,0.4444444444444444,1,object_09,5,2858,0,4,5,library_1,1,memory-2step-stake-s,664,2284295,0.0-19.0-0.1-0.175,APGX2WZ59OWDN,3DW3BNF1HKYVNTMBZS7SV7ATLD58VQ,3M68NM076LNJCRK0NVAMZGLMOO26R6,6,5
176,2,object_05,object_06,608.38999971747,4,2,307.22500011325,0.7777777777777778,2,object_03,1,2865,0,6,7,forest_6,1,memory-2step-stake-s,665,2292548,0.0-19.0-0.1-0.176,APGX2WZ59OWDN,3DW3BNF1HKYVNTMBZS7SV7ATLD58VQ,3M68NM076LNJCRK0NVAMZGLMOO26R6,3,4
177,2,object_05,object_06,651.86499990523,4,2,334.84499901533,1.0,2,object_03,5,2910,0,3,9,forest_2,1,memory-2step-stake-s,666,2301032,0.0-19.0-0.1-0.177,APGX2WZ59OWDN,3DW3BNF1HKYVNTMBZS7SV7ATLD58VQ,3M68NM076LNJCRK0NVAMZGLMOO26R6,3,4
178,3,object_08,object_02,696.25000096858,6,1,276.13499946892,0.8888888888888888,2,object_03,5,2950,0,2,8,library_4,1,memory-2step-stake-s,667,2309328,0.0-19.0-0.1-0.178,APGX2WZ59OWDN,3DW3BNF1HKYVNTMBZS7SV7ATLD58VQ,3M68NM076LNJCRK0NVAMZGLMOO26R6,6,5
179,2,object_06,object_05,714.19999934733,4,1,-1.0,0.0,2,object_03,1,2950,0,1,8,forest_1,1,memory-2step-stake-s,668,2317841,0.0-19.0-0.1-0.179,APGX2WZ59OWDN,3DW3BNF1HKYVNTMBZS7SV7ATLD58VQ,3M68NM076LNJCRK0NVAMZGLMOO26R6,4,3
180,4,object_10,object_01,1130.3949989378,8,1,285.09000129998,0.8888888888888888,2,object_03,5,2990,0,0,8,restaurant_1,1,memory-2step-stake-s,669,2326186,0.0-19.0-0.1-0.180,APGX2WZ59OWDN,3DW3BNF1HKYVNTMBZS7SV7ATLD58VQ,3M68NM076LNJCRK0NVAMZGLMOO26R6,8,7
181,4,object_10,object_01,610.28499901295,8,1,318.83000023663,0.5555555555555556,2,object_03,5,3015,0,2,5,restaurant_6,1,memory-2step-stake-s,670,2334236,0.0-19.0-0.1-0.181,APGX2WZ59OWDN,3DW3BNF1HKYVNTMBZS7SV7ATLD58VQ,3M68NM076LNJCRK0NVAMZGLMOO26R6,8,7
182,4,object_10,object_01,569.414999336,8,1,421.25499993563,0.6666666666666666,2,object_03,5,3045,0,4,6,restaurant_7,1,memory-2step-stake-s,671,2342511,0.0-19.0-0.1-0.182,APGX2WZ59OWDN,3DW3BNF1HKYVNTMBZS7SV7ATLD58VQ,3M68NM076LNJCRK0NVAMZGLMOO26R6,8,7
183,1,object_04,object_07,607.45500028133,1,1,179.83499914408,0.4444444444444444,1,object_09,1,3049,0,4,7,desert_6,1,memory-2step-stake-s,672,2350336,0.0-19.0-0.1-0.183,APGX2WZ59OWDN,3DW3BNF1HKYVNTMBZS7SV7ATLD58VQ,3M68NM076LNJCRK0NVAMZGLMOO26R6,1,2
184,4,object_10,object_01,613.5649997741,8,1,32.475000247359,0.8888888888888888,2,object_03,1,3057,0,3,8,restaurant_4,1,memory-2step-stake-s,673,2358425,0.0-19.0-0.1-0.184,APGX2WZ59OWDN,3DW3BNF1HKYVNTMBZS7SV7ATLD58VQ,3M68NM076LNJCRK0NVAMZGLMOO26R6,8,7
185,1,object_04,object_07,710.3349994868,1,1,322.650000453,0.4444444444444444,1,object_09,1,3061,0,4,6,desert_6,1,memory-2step-stake-s,674,2366363,0.0-19.0-0.1-0.185,APGX2WZ59OWDN,3DW3BNF1HKYVNTMBZS7SV7ATLD58VQ,3M68NM076LNJCRK0NVAMZGLMOO26R6,1,2
186,1,object_07,object_04,662.70500048995,2,1,33.680001273751,0.5555555555555556,2,object_03,1,3066,0,3,5,desert_6,1,memory-2step-stake-s,675,2374113,0.0-19.0-0.1-0.186,APGX2WZ59OWDN,3DW3BNF1HKYVNTMBZS7SV7ATLD58VQ,3M68NM076LNJCRK0NVAMZGLMOO26R6,2,1
187,2,object_05,object_06,913.82000036538,4,2,221.51999920607,0.3333333333333333,2,object_03,5,3081,0,6,3,forest_1,1,memory-2step-stake-s,676,2381848,0.0-19.0-0.1-0.187,APGX2WZ59OWDN,3DW3BNF1HKYVNTMBZS7SV7ATLD58VQ,3M68NM076LNJCRK0NVAMZGLMOO26R6,3,4
188,2,object_06,object_05,650.3600012511,4,1,309.86000038683,0.3333333333333333,2,object_03,1,3084,0,6,3,forest_2,1,memory-2step-stake-s,677,2389674,0.0-19.0-0.1-0.188,APGX2WZ59OWDN,3DW3BNF1HKYVNTMBZS7SV7ATLD58VQ,3M68NM076LNJCRK0NVAMZGLMOO26R6,4,3
189,2,object_06,object_05,625.2950001508,3,2,117.68499948084,0.7777777777777778,1,object_09,1,3091,0,7,1,forest_2,1,memory-2step-stake-s,678,2397708,0.0-19.0-0.1-0.189,APGX2WZ59OWDN,3DW3BNF1HKYVNTMBZS7SV7ATLD58VQ,3M68NM076LNJCRK0NVAMZGLMOO26R6,4,3
190,4,object_10,object_01,647.63000048697,7,2,258.34500044584,0.7777777777777778,1,object_09,5,3126,0,7,1,restaurant_1,1,memory-2step-stake-s,679,2405922,0.0-19.0-0.1-0.190,APGX2WZ59OWDN,3DW3BNF1HKYVNTMBZS7SV7ATLD58VQ,3M68NM076LNJCRK0NVAMZGLMOO26R6,8,7
191,1,object_07,object_04,723.57499971986,1,2,319.12999972701,0.3333333333333333,1,object_09,5,3141,0,3,2,desert_4,1,memory-2step-stake-s,680,2413757,0.0-19.0-0.1-0.191,APGX2WZ59OWDN,3DW3BNF1HKYVNTMBZS7SV7ATLD58VQ,3M68NM076LNJCRK0NVAMZGLMOO26R6,2,1
192,4,object_10,object_01,608.81000012159,7,2,299.15500059724,0.2222222222222222,1,object_09,5,3151,0,2,4,restaurant_4,1,memory-2step-stake-s,681,2421475,0.0-19.0-0.1-0.192,APGX2WZ59OWDN,3DW3BNF1HKYVNTMBZS7SV7ATLD58VQ,3M68NM076LNJCRK0NVAMZGLMOO26R6,8,7
193,2,object_06,object_05,739.98500034213,4,1,263.60500045121,0.2222222222222222,2,object_03,1,3153,0,3,2,forest_2,1,memory-2step-stake-s,682,2429151,0.0-19.0-0.1-0.193,APGX2WZ59OWDN,3DW3BNF1HKYVNTMBZS7SV7ATLD58VQ,3M68NM076LNJCRK0NVAMZGLMOO26R6,4,3
194,1,object_07,object_04,632.32500106096,1,2,276.44999884069,0.5555555555555556,1,object_09,1,3158,0,5,4,desert_7,1,memory-2step-stake-s,683,2437143,0.0-19.0-0.1-0.194,APGX2WZ59OWDN,3DW3BNF1HKYVNTMBZS7SV7ATLD58VQ,3M68NM076LNJCRK0NVAMZGLMOO26R6,2,1
195,3,object_02,object_08,1001.3500005007,6,2,429.56000007689,0.8888888888888888,2,object_03,5,3198,0,6,8,library_7,1,memory-2step-stake-s,684,2445645,0.0-19.0-0.1-0.195,APGX2WZ59OWDN,3DW3BNF1HKYVNTMBZS7SV7ATLD58VQ,3M68NM076LNJCRK0NVAMZGLMOO26R6,5,6
196,2,object_06,object_05,916.33499972522,3,2,263.68000172079,0.7777777777777778,1,object_09,1,3205,0,7,8,forest_2,1,memory-2step-stake-s,685,2453830,0.0-19.0-0.1-0.196,APGX2WZ59OWDN,3DW3BNF1HKYVNTMBZS7SV7ATLD58VQ,3M68NM076LNJCRK0NVAMZGLMOO26R6,4,3
197,1,object_07,object_04,692.32499971986,2,1,191.87000021338,0.7777777777777778,2,object_03,1,3212,0,6,7,desert_6,1,memory-2step-stake-s,686,2461991,0.0-19.0-0.1-0.197,APGX2WZ59OWDN,3DW3BNF1HKYVNTMBZS7SV7ATLD58VQ,3M68NM076LNJCRK0NVAMZGLMOO26R6,2,1
198,3,object_08,object_02,629.84500080347,6,1,297.76999913156,0.5555555555555556,2,object_03,5,3237,0,8,5,library_7,1,memory-2step-stake-s,687,2470043,0.0-19.0-0.1-0.198,APGX2WZ59OWDN,3DW3BNF1HKYVNTMBZS7SV7ATLD58VQ,3M68NM076LNJCRK0NVAMZGLMOO26R6,6,5
199,2,object_06,object_05,643.30499991775,3,2,304.1550014168,0.7777777777777778,1,object_09,1,3244,0,7,4,forest_6,1,memory-2step-stake-s,688,2478295,0.0-19.0-0.1-0.199,APGX2WZ59OWDN,3DW3BNF1HKYVNTMBZS7SV7ATLD58VQ,3M68NM076LNJCRK0NVAMZGLMOO26R6,4,3
200,4,object_10,object_01,847.27999940515,7,2,355.16500100493,0.5555555555555556,1,object_09,5,3269,0,5,3,restaurant_7,1,memory-2step-stake-s,689,2486367,0.0-19.0-0.1-0.200,APGX2WZ59OWDN,3DW3BNF1HKYVNTMBZS7SV7ATLD58VQ,3M68NM076LNJCRK0NVAMZGLMOO26R6,8,7
201,3,object_02,object_08,624.95499849319,6,2,340.71500040591,0.1111111111111111,2,object_03,1,3270,0,2,1,library_7,1,memory-2step-stake-s,690,2494018,0.0-19.0-0.1-0.201,APGX2WZ59OWDN,3DW3BNF1HKYVNTMBZS7SV7ATLD58VQ,3M68NM076LNJCRK0NVAMZGLMOO26R6,5,6
202,3,object_02,object_08,1068.599998951,5,1,319.0250005573,0.0,1,object_09,5,3270,0,0,1,library_8,1,memory-2step-stake-s,691,2501557,0.0-19.0-0.1-0.202,APGX2WZ59OWDN,3DW3BNF1HKYVNTMBZS7SV7ATLD58VQ,3M68NM076LNJCRK0NVAMZGLMOO26R6,5,6
203,1,object_04,object_07,668.57500001788,2,2,288.51499967277,0.0,2,object_03,1,3270,0,1,0,desert_6,1,memory-2step-stake-s,692,2509067,0.0-19.0-0.1-0.203,APGX2WZ59OWDN,3DW3BNF1HKYVNTMBZS7SV7ATLD58VQ,3M68NM076LNJCRK0NVAMZGLMOO26R6,1,2
204,1,object_07,object_04,886.81999966502,1,2,241.33500084281,0.0,1,object_09,1,3270,0,0,1,desert_4,1,memory-2step-stake-s,693,2516521,0.0-19.0-0.1-0.204,APGX2WZ59OWDN,3DW3BNF1HKYVNTMBZS7SV7ATLD58VQ,3M68NM076LNJCRK0NVAMZGLMOO26R6,2,1
205,2,object_06,object_05,665.33499956131,4,1,277.46000140905,0.1111111111111111,2,object_03,5,3275,0,1,1,forest_7,1,memory-2step-stake-s,694,2524111,0.0-19.0-0.1-0.205,APGX2WZ59OWDN,3DW3BNF1HKYVNTMBZS7SV7ATLD58VQ,3M68NM076LNJCRK0NVAMZGLMOO26R6,4,3
206,1,object_04,object_07,917.87500120699,2,2,281.48999996483,0.2222222222222222,2,object_03,1,3277,0,2,2,desert_6,1,memory-2step-stake-s,695,2531804,0.0-19.0-0.1-0.206,APGX2WZ59OWDN,3DW3BNF1HKYVNTMBZS7SV7ATLD58VQ,3M68NM076LNJCRK0NVAMZGLMOO26R6,1,2
207,2,object_06,object_05,1183.6800016463,3,2,363.39000053704,0.2222222222222222,1,object_09,1,3279,0,2,2,forest_7,1,memory-2step-stake-s,696,2539581,0.0-19.0-0.1-0.207,APGX2WZ59OWDN,3DW3BNF1HKYVNTMBZS7SV7ATLD58VQ,3M68NM076LNJCRK0NVAMZGLMOO26R6,4,3
208,4,object_10,object_01,840.5399993062,7,2,236.3100014627,0.2222222222222222,1,object_09,5,3289,0,2,3,restaurant_6,1,memory-2step-stake-s,697,2547230,0.0-19.0-0.1-0.208,APGX2WZ59OWDN,3DW3BNF1HKYVNTMBZS7SV7ATLD58VQ,3M68NM076LNJCRK0NVAMZGLMOO26R6,8,7
209,1,object_04,object_07,856.27499967813,2,2,308.42499993742,0.3333333333333333,2,object_03,1,3292,0,1,3,desert_6,1,memory-2step-stake-s,698,2555052,0.0-19.0-0.1-0.209,APGX2WZ59OWDN,3DW3BNF1HKYVNTMBZS7SV7ATLD58VQ,3M68NM076LNJCRK0NVAMZGLMOO26R6,1,2
210,3,object_08,object_02,866.08500033617,6,1,253.41000035405,0.3333333333333333,2,object_03,5,3307,0,1,3,library_4,1,memory-2step-stake-s,699,2562830,0.0-19.0-0.1-0.210,APGX2WZ59OWDN,3DW3BNF1HKYVNTMBZS7SV7ATLD58VQ,3M68NM076LNJCRK0NVAMZGLMOO26R6,6,5
211,3,object_02,object_08,826.77499949932,6,2,1134.4799995422,0.5555555555555556,2,object_03,5,3332,0,1,5,library_1,1,memory-2step-stake-s,700,2571707,0.0-19.0-0.1-0.211,APGX2WZ59OWDN,3DW3BNF1HKYVNTMBZS7SV7ATLD58VQ,3M68NM076LNJCRK0NVAMZGLMOO26R6,5,6
212,3,object_08,object_02,741.86500161886,6,1,257.47999921441,0.2222222222222222,2,object_03,5,3342,0,0,2,library_1,1,memory-2step-stake-s,701,2579392,0.0-19.0-0.1-0.212,APGX2WZ59OWDN,3DW3BNF1HKYVNTMBZS7SV7ATLD58VQ,3M68NM076LNJCRK0NVAMZGLMOO26R6,6,5
213,4,object_01,object_10,914.95000012219,7,1,157.46000036597,0.1111111111111111,1,object_09,5,3347,0,1,1,restaurant_4,1,memory-2step-stake-s,702,2586876,0.0-19.0-0.1-0.213,APGX2WZ59OWDN,3DW3BNF1HKYVNTMBZS7SV7ATLD58VQ,3M68NM076LNJCRK0NVAMZGLMOO26R6,7,8
214,4,object_10,object_01,718.34499947727,7,2,313.15500102937,0.5555555555555556,1,object_09,1,3352,0,5,4,restaurant_7,1,memory-2step-stake-s,703,2594908,0.0-19.0-0.1-0.214,APGX2WZ59OWDN,3DW3BNF1HKYVNTMBZS7SV7ATLD58VQ,3M68NM076LNJCRK0NVAMZGLMOO26R6,8,7
215,4,object_10,object_01,728.55999879539,7,2,339.05499987304,0.7777777777777778,1,object_09,5,3387,0,7,1,restaurant_4,1,memory-2step-stake-s,704,2603176,0.0-19.0-0.1-0.215,APGX2WZ59OWDN,3DW3BNF1HKYVNTMBZS7SV7ATLD58VQ,3M68NM076LNJCRK0NVAMZGLMOO26R6,8,7
216,1,object_04,object_07,779.75500002503,1,1,270.84499970078,0.6666666666666666,1,object_09,1,3393,0,6,0,desert_7,1,memory-2step-stake-s,705,2611264,0.0-19.0-0.1-0.216,APGX2WZ59OWDN,3DW3BNF1HKYVNTMBZS7SV7ATLD58VQ,3M68NM076LNJCRK0NVAMZGLMOO26R6,1,2
217,2,object_06,object_05,629.81499917805,4,1,416.95999912918,0.0,2,object_03,1,3393,0,5,0,forest_7,1,memory-2step-stake-s,706,2618893,0.0-19.0-0.1-0.217,APGX2WZ59OWDN,3DW3BNF1HKYVNTMBZS7SV7ATLD58VQ,3M68NM076LNJCRK0NVAMZGLMOO26R6,4,3
218,3,object_08,object_02,625.31499937177,5,2,300.86000077426,0.5555555555555556,1,object_09,5,3418,0,5,2,library_7,1,memory-2step-stake-s,707,2626922,0.0-19.0-0.1-0.218,APGX2WZ59OWDN,3DW3BNF1HKYVNTMBZS7SV7ATLD58VQ,3M68NM076LNJCRK0NVAMZGLMOO26R6,6,5
219,4,object_01,object_10,614.18499983847,7,1,370.75000070035,0.5555555555555556,1,object_09,5,3443,0,5,0,restaurant_1,1,memory-2step-stake-s,708,2635015,0.0-19.0-0.1-0.219,APGX2WZ59OWDN,3DW3BNF1HKYVNTMBZS7SV7ATLD58VQ,3M68NM076LNJCRK0NVAMZGLMOO26R6,7,8
220,4,object_10,object_01,786.40500083566,7,2,710.31499840319,0.6666666666666666,1,object_09,1,3449,0,6,1,restaurant_7,1,memory-2step-stake-s,709,2643569,0.0-19.0-0.1-0.220,APGX2WZ59OWDN,3DW3BNF1HKYVNTMBZS7SV7ATLD58VQ,3M68NM076LNJCRK0NVAMZGLMOO26R6,8,7
221,3,object_02,object_08,600.25500133634,5,1,348.5400006175,0.5555555555555556,1,object_09,5,3474,0,5,1,library_8,1,memory-2step-stake-s,710,2651644,0.0-19.0-0.1-0.221,APGX2WZ59OWDN,3DW3BNF1HKYVNTMBZS7SV7ATLD58VQ,3M68NM076LNJCRK0NVAMZGLMOO26R6,5,6
222,1,object_04,object_07,1127.4999994785,2,2,458.8949996978,0.1111111111111111,2,object_03,1,3475,0,7,1,desert_4,1,memory-2step-stake-s,711,2659417,0.0-19.0-0.1-0.222,APGX2WZ59OWDN,3DW3BNF1HKYVNTMBZS7SV7ATLD58VQ,3M68NM076LNJCRK0NVAMZGLMOO26R6,1,2
223,4,object_10,object_01,683.02999995649,7,2,223.61999936402,1.0,1,object_09,1,3484,0,9,1,restaurant_6,1,memory-2step-stake-s,712,2667760,0.0-19.0-0.1-0.223,APGX2WZ59OWDN,3DW3BNF1HKYVNTMBZS7SV7ATLD58VQ,3M68NM076LNJCRK0NVAMZGLMOO26R6,8,7
224,3,object_02,object_08,924.99000020325,6,2,568.67500022054,0.3333333333333333,2,object_03,1,3487,0,7,3,library_1,1,memory-2step-stake-s,713,2675842,0.0-19.0-0.1-0.224,APGX2WZ59OWDN,3DW3BNF1HKYVNTMBZS7SV7ATLD58VQ,3M68NM076LNJCRK0NVAMZGLMOO26R6,5,6
225,2,object_06,object_05,698.87000136077,3,2,270.1099999249,0.8888888888888888,1,object_09,1,3495,0,8,6,forest_6,1,memory-2step-stake-s,714,2684132,0.0-19.0-0.1-0.225,APGX2WZ59OWDN,3DW3BNF1HKYVNTMBZS7SV7ATLD58VQ,3M68NM076LNJCRK0NVAMZGLMOO26R6,4,3
226,3,object_02,object_08,585.9500002116,5,1,652.49999985099,1.0,1,object_09,5,3540,0,9,6,library_8,1,memory-2step-stake-s,715,2692905,0.0-19.0-0.1-0.226,APGX2WZ59OWDN,3DW3BNF1HKYVNTMBZS7SV7ATLD58VQ,3M68NM076LNJCRK0NVAMZGLMOO26R6,5,6
227,1,object_07,object_04,950.84000006318,2,1,330.12999966741,0.4444444444444444,2,object_03,1,3544,0,9,4,desert_7,1,memory-2step-stake-s,716,2700862,0.0-19.0-0.1-0.227,APGX2WZ59OWDN,3DW3BNF1HKYVNTMBZS7SV7ATLD58VQ,3M68NM076LNJCRK0NVAMZGLMOO26R6,2,1
228,2,object_06,object_05,713.85500021279,3,2,261.48499920964,0.8888888888888888,1,object_09,5,3584,0,8,4,forest_6,1,memory-2step-stake-s,717,2709146,0.0-19.0-0.1-0.228,APGX2WZ59OWDN,3DW3BNF1HKYVNTMBZS7SV7ATLD58VQ,3M68NM076LNJCRK0NVAMZGLMOO26R6,4,3
229,4,object_10,object_01,767.99000054598,7,2,107.01500065625,0.8888888888888888,1,object_09,5,3624,0,8,6,restaurant_1,1,memory-2step-stake-s,718,2717275,0.0-19.0-0.1-0.229,APGX2WZ59OWDN,3DW3BNF1HKYVNTMBZS7SV7ATLD58VQ,3M68NM076LNJCRK0NVAMZGLMOO26R6,8,7
230,4,object_01,object_10,504.02500107884,7,1,315.17500057817,0.7777777777777778,1,object_09,5,3659,0,7,7,restaurant_1,1,memory-2step-stake-s,719,2725509,0.0-19.0-0.1-0.230,APGX2WZ59OWDN,3DW3BNF1HKYVNTMBZS7SV7ATLD58VQ,3M68NM076LNJCRK0NVAMZGLMOO26R6,7,8
231,3,object_02,object_08,678.43000032008,5,1,250.12499839067,0.8888888888888888,1,object_09,5,3699,0,8,8,library_8,1,memory-2step-stake-s,720,2733778,0.0-19.0-0.1-0.231,APGX2WZ59OWDN,3DW3BNF1HKYVNTMBZS7SV7ATLD58VQ,3M68NM076LNJCRK0NVAMZGLMOO26R6,5,6
232,2,object_05,object_06,915.50000011921,4,2,286.27000004053,0.2222222222222222,2,object_03,5,3709,0,8,2,forest_2,1,memory-2step-stake-s,721,2741483,0.0-19.0-0.1-0.232,APGX2WZ59OWDN,3DW3BNF1HKYVNTMBZS7SV7ATLD58VQ,3M68NM076LNJCRK0NVAMZGLMOO26R6,3,4
233,1,object_07,object_04,904.79000099003,2,1,307.2849996388,0.1111111111111111,2,object_03,1,3710,0,6,1,desert_7,1,memory-2step-stake-s,722,2749104,0.0-19.0-0.1-0.233,APGX2WZ59OWDN,3DW3BNF1HKYVNTMBZS7SV7ATLD58VQ,3M68NM076LNJCRK0NVAMZGLMOO26R6,2,1
234,4,object_10,object_01,598.52500073612,7,2,306.21499940753,0.5555555555555556,1,object_09,5,3735,0,5,2,restaurant_6,1,memory-2step-stake-s,723,2757153,0.0-19.0-0.1-0.234,APGX2WZ59OWDN,3DW3BNF1HKYVNTMBZS7SV7ATLD58VQ,3M68NM076LNJCRK0NVAMZGLMOO26R6,8,7
235,4,object_10,object_01,445.1950006187,7,2,281.9699998945,0.6666666666666666,1,object_09,5,3765,0,6,5,restaurant_4,1,memory-2step-stake-s,724,2765257,0.0-19.0-0.1-0.235,APGX2WZ59OWDN,3DW3BNF1HKYVNTMBZS7SV7ATLD58VQ,3M68NM076LNJCRK0NVAMZGLMOO26R6,8,7
236,1,object_04,object_07,543.45500096679,1,1,314.07500058413,0.6666666666666666,1,object_09,5,3795,0,6,5,desert_8,1,memory-2step-stake-s,725,2773407,0.0-19.0-0.1-0.236,APGX2WZ59OWDN,3DW3BNF1HKYVNTMBZS7SV7ATLD58VQ,3M68NM076LNJCRK0NVAMZGLMOO26R6,1,2
237,3,object_02,object_08,665.2199998498,5,1,445.90499997139,0.4444444444444444,1,object_09,5,3815,0,4,4,library_4,1,memory-2step-stake-s,726,2781475,0.0-19.0-0.1-0.237,APGX2WZ59OWDN,3DW3BNF1HKYVNTMBZS7SV7ATLD58VQ,3M68NM076LNJCRK0NVAMZGLMOO26R6,5,6
238,3,object_08,object_02,647.71000109613,5,2,762.98500038683,0.2222222222222222,1,object_09,5,3825,0,2,3,library_8,1,memory-2step-stake-s,727,2789651,0.0-19.0-0.1-0.238,APGX2WZ59OWDN,3DW3BNF1HKYVNTMBZS7SV7ATLD58VQ,3M68NM076LNJCRK0NVAMZGLMOO26R6,6,5
239,2,object_06,object_05,645.81499993801,4,1,273.37499894202,0.2222222222222222,2,object_03,1,3827,0,1,2,forest_1,1,memory-2step-stake-s,728,2797340,0.0-19.0-0.1-0.239,APGX2WZ59OWDN,3DW3BNF1HKYVNTMBZS7SV7ATLD58VQ,3M68NM076LNJCRK0NVAMZGLMOO26R6,4,3
240,2,object_06,object_05,552.26999893785,3,2,348.48000109196,0.2222222222222222,1,object_09,1,3829,0,2,2,forest_7,1,memory-2step-stake-s,729,2805112,0.0-19.0-0.1-0.240,APGX2WZ59OWDN,3DW3BNF1HKYVNTMBZS7SV7ATLD58VQ,3M68NM076LNJCRK0NVAMZGLMOO26R6,4,3
241,4,object_10,object_01,900.29500052333,8,1,232.63000138104,0.4444444444444444,2,object_03,5,3849,0,2,4,restaurant_6,1,memory-2step-stake-s,730,2812960,0.0-19.0-0.1-0.241,APGX2WZ59OWDN,3DW3BNF1HKYVNTMBZS7SV7ATLD58VQ,3M68NM076LNJCRK0NVAMZGLMOO26R6,8,7
242,3,object_08,object_02,909.76000018418,6,1,280.59500083327,0.4444444444444444,2,object_03,5,3869,0,4,4,library_4,1,memory-2step-stake-s,731,2820857,0.0-19.0-0.1-0.242,APGX2WZ59OWDN,3DW3BNF1HKYVNTMBZS7SV7ATLD58VQ,3M68NM076LNJCRK0NVAMZGLMOO26R6,6,5
243,1,object_04,object_07,757.01499916613,2,2,360.77000014484,0.3333333333333333,2,object_03,1,3872,0,4,3,desert_8,1,memory-2step-stake-s,732,2828732,0.0-19.0-0.1-0.243,APGX2WZ59OWDN,3DW3BNF1HKYVNTMBZS7SV7ATLD58VQ,3M68NM076LNJCRK0NVAMZGLMOO26R6,1,2
244,4,object_01,object_10,714.67000059783,7,1,110.49500107765,0.4444444444444444,1,object_09,5,3892,0,4,0,restaurant_1,1,memory-2step-stake-s,733,2836459,0.0-19.0-0.1-0.244,APGX2WZ59OWDN,3DW3BNF1HKYVNTMBZS7SV7ATLD58VQ,3M68NM076LNJCRK0NVAMZGLMOO26R6,7,8
245,4,object_10,object_01,622.25499935448,7,2,714.70499970019,0.3333333333333333,1,object_09,5,3907,0,3,4,restaurant_6,1,memory-2step-stake-s,734,2844686,0.0-19.0-0.1-0.245,APGX2WZ59OWDN,3DW3BNF1HKYVNTMBZS7SV7ATLD58VQ,3M68NM076LNJCRK0NVAMZGLMOO26R6,8,7
246,3,object_02,object_08,602.00999863446,5,1,334.23000015318,0.5555555555555556,1,object_09,5,3932,0,5,4,library_1,1,memory-2step-stake-s,735,2852738,0.0-19.0-0.1-0.246,APGX2WZ59OWDN,3DW3BNF1HKYVNTMBZS7SV7ATLD58VQ,3M68NM076LNJCRK0NVAMZGLMOO26R6,5,6
247,1,object_07,object_04,639.149999246,1,2,378.32499854267,0.5555555555555556,1,object_09,5,3957,0,5,7,desert_8,1,memory-2step-stake-s,736,2860843,0.0-19.0-0.1-0.247,APGX2WZ59OWDN,3DW3BNF1HKYVNTMBZS7SV7ATLD58VQ,3M68NM076LNJCRK0NVAMZGLMOO26R6,2,1
248,1,object_04,object_07,712.47499994934,1,1,659.93999876082,0.8888888888888888,1,object_09,5,3997,0,8,7,desert_4,1,memory-2step-stake-s,737,2869563,0.0-19.0-0.1-0.248,APGX2WZ59OWDN,3DW3BNF1HKYVNTMBZS7SV7ATLD58VQ,3M68NM076LNJCRK0NVAMZGLMOO26R6,1,2
249,1,object_07,object_04,1024.5050005615,1,2,340.19999951124,1.0,1,object_09,1,4006,0,9,7,desert_8,1,memory-2step-stake-s,738,2878069,0.0-19.0-0.1-0.249,APGX2WZ59OWDN,3DW3BNF1HKYVNTMBZS7SV7ATLD58VQ,3M68NM076LNJCRK0NVAMZGLMOO26R6,2,1
250,4,object_01,object_10,1168.6349995434,7,1,579.06499877572,0.7777777777777778,1,object_09,5,4041,0,7,7,restaurant_7,1,memory-2step-stake-s,739,2886601,0.0-19.0-0.1-0.250,APGX2WZ59OWDN,3DW3BNF1HKYVNTMBZS7SV7ATLD58VQ,3M68NM076LNJCRK0NVAMZGLMOO26R6,7,8
251,2,object_06,object_05,1036.4999994636,3,2,472.31500037014,0.8888888888888888,1,object_09,5,4081,0,8,7,forest_1,1,memory-2step-stake-s,740,2895112,0.0-19.0-0.1-0.251,APGX2WZ59OWDN,3DW3BNF1HKYVNTMBZS7SV7ATLD58VQ,3M68NM076LNJCRK0NVAMZGLMOO26R6,4,3
252,2,object_06,object_05,647.60500006378,3,2,250.18499977887,0.8888888888888888,1,object_09,1,4089,0,8,6,forest_7,1,memory-2step-stake-s,741,2903387,0.0-19.0-0.1-0.252,APGX2WZ59OWDN,3DW3BNF1HKYVNTMBZS7SV7ATLD58VQ,3M68NM076LNJCRK0NVAMZGLMOO26R6,4,3
253,1,object_04,object_07,845.10999917984,2,2,385.50999946892,0.6666666666666666,2,object_03,1,4095,0,9,6,desert_4,1,memory-2step-stake-s,742,2911590,0.0-19.0-0.1-0.253,APGX2WZ59OWDN,3DW3BNF1HKYVNTMBZS7SV7ATLD58VQ,3M68NM076LNJCRK0NVAMZGLMOO26R6,1,2
254,1,object_07,object_04,658.58500078321,2,1,517.75000058115,0.5555555555555556,2,object_03,1,4100,0,7,5,desert_6,1,memory-2step-stake-s,743,2919834,0.0-19.0-0.1-0.254,APGX2WZ59OWDN,3DW3BNF1HKYVNTMBZS7SV7ATLD58VQ,3M68NM076LNJCRK0NVAMZGLMOO26R6,2,1
255,4,object_01,object_10,679.44500036538,7,1,314.03000093997,0.7777777777777778,1,object_09,1,4107,0,7,7,restaurant_6,1,memory-2step-stake-s,744,2928085,0.0-19.0-0.1-0.255,APGX2WZ59OWDN,3DW3BNF1HKYVNTMBZS7SV7ATLD58VQ,3M68NM076LNJCRK0NVAMZGLMOO26R6,7,8
