,state1,stim_left,stim_right,rt_1,choice1,response1,rt_2,points,state2,stim_state2,stake,score,practice,rews1,rews2,background,high_arm,trial_type,trial_index,time_elapsed,internal_node_id,subid,hitid,assignmentid,stim_left_num,stim_right_num
0,4,object_10,object_04,791.5,7,1,1324.400000006,1.0,1,object_08,1,9,0,9,1,restaurant_1,2,memory-2step-stake-s,488,1110152,0.0-19.0-0.0-0.0,A1BSVEBYDZ0AAU,3YGE63DIOBDQKTHDUYZ9OUNPB7QW00,3X3OR7WPZ3GVD78BBQAOXI8EW0T8LK,7,8
1,3,object_01,object_07,709.5,5,2,709.30000001192,0.7777777777777778,1,object_08,5,44,0,7,0,library_4,2,memory-2step-stake-s,489,1118781,0.0-19.0-0.0-0.1,A1BSVEBYDZ0AAU,3YGE63DIOBDQKTHDUYZ9OUNPB7QW00,3X3OR7WPZ3GVD78BBQAOXI8EW0T8LK,6,5
2,4,object_10,object_04,785.19999998808,7,1,541.39999997616,1.0,1,object_08,1,53,0,9,0,restaurant_3,2,memory-2step-stake-s,490,1127445,0.0-19.0-0.0-0.2,A1BSVEBYDZ0AAU,3YGE63DIOBDQKTHDUYZ9OUNPB7QW00,3X3OR7WPZ3GVD78BBQAOXI8EW0T8LK,7,8
3,2,object_03,object_02,1007.8999999762,3,1,530.79999998212,0.8888888888888888,1,object_08,5,93,0,8,2,forest_3,2,memory-2step-stake-s,491,1135999,0.0-19.0-0.0-0.3,A1BSVEBYDZ0AAU,3YGE63DIOBDQKTHDUYZ9OUNPB7QW00,3X3OR7WPZ3GVD78BBQAOXI8EW0T8LK,3,4
4,1,object_09,object_06,1052.0,1,2,604.59999999404,0.7777777777777778,1,object_08,5,128,0,7,1,desert_8,2,memory-2step-stake-s,492,1144526,0.0-19.0-0.0-0.4,A1BSVEBYDZ0AAU,3YGE63DIOBDQKTHDUYZ9OUNPB7QW00,3X3OR7WPZ3GVD78BBQAOXI8EW0T8LK,2,1
5,4,object_10,object_04,757.29999998212,7,1,460.19999998808,0.7777777777777778,1,object_08,5,163,0,7,1,restaurant_3,2,memory-2step-stake-s,493,1152903,0.0-19.0-0.0-0.5,A1BSVEBYDZ0AAU,3YGE63DIOBDQKTHDUYZ9OUNPB7QW00,3X3OR7WPZ3GVD78BBQAOXI8EW0T8LK,7,8
6,2,object_02,object_03,880.09999999404,3,2,465.09999999404,0.5555555555555556,1,object_08,5,188,0,5,2,forest_8,2,memory-2step-stake-s,494,1161087,0.0-19.0-0.0-0.6,A1BSVEBYDZ0AAU,3YGE63DIOBDQKTHDUYZ9OUNPB7QW00,3X3OR7WPZ3GVD78BBQAOXI8EW0T8LK,4,3
7,4,object_04,object_10,624.19999998808,7,2,358.79999998212,0.6666666666666666,1,object_08,1,194,0,6,1,restaurant_2,2,memory-2step-stake-s,495,1169262,0.0-19.0-0.0-0.7,A1BSVEBYDZ0AAU,3YGE63DIOBDQKTHDUYZ9OUNPB7QW00,3X3OR7WPZ3GVD78BBQAOXI8EW0T8LK,8,7
8,1,object_09,object_06,734.19999998808,1,2,433.30000001192,0.5555555555555556,1,object_08,5,219,0,5,1,desert_6,2,memory-2step-stake-s,496,1177411,0.0-19.0-0.0-0.8,A1BSVEBYDZ0AAU,3YGE63DIOBDQKTHDUYZ9OUNPB7QW00,3X3OR7WPZ3GVD78BBQAOXI8EW0T8LK,2,1
9,3,object_01,object_07,759.09999999404,5,2,595.19999998808,0.5555555555555556,1,object_08,1,224,0,5,2,library_2,2,memory-2step-stake-s,497,1185738,0.0-19.0-0.0-0.9,A1BSVEBYDZ0AAU,3YGE63DIOBDQKTHDUYZ9OUNPB7QW00,3X3OR7WPZ3GVD78BBQAOXI8EW0T8LK,6,5
10,2,object_03,object_02,808.5,3,1,484.59999999404,0.5555555555555556,1,object_08,5,249,0,5,2,forest_8,2,memory-2step-stake-s,498,1193940,0.0-19.0-0.0-0.10,A1BSVEBYDZ0AAU,3YGE63DIOBDQKTHDUYZ9OUNPB7QW00,3X3OR7WPZ3GVD78BBQAOXI8EW0T8LK,3,4
11,4,object_10,object_04,709.69999998808,7,1,489.59999999404,0.6666666666666666,1,object_08,5,279,0,6,3,restaurant_6,2,memory-2step-stake-s,499,1202244,0.0-19.0-0.0-0.11,A1BSVEBYDZ0AAU,3YGE63DIOBDQKTHDUYZ9OUNPB7QW00,3X3OR7WPZ3GVD78BBQAOXI8EW0T8LK,7,8
12,1,object_06,object_09,1057.900000006,1,1,378.0,0.3333333333333333,1,object_08,5,294,0,3,3,desert_6,2,memory-2step-stake-s,500,1210143,0.0-19.0-0.0-0.12,A1BSVEBYDZ0AAU,3YGE63DIOBDQKTHDUYZ9OUNPB7QW00,3X3OR7WPZ3GVD78BBQAOXI8EW0T8LK,1,2
13,4,object_04,object_10,831.40000000596,8,1,515.09999999404,0.1111111111111111,2,object_05,1,295,0,4,1,restaurant_1,2,memory-2step-stake-s,501,1217972,0.0-19.0-0.0-0.13,A1BSVEBYDZ0AAU,3YGE63DIOBDQKTHDUYZ9OUNPB7QW00,3X3OR7WPZ3GVD78BBQAOXI8EW0T8LK,8,7
14,4,object_04,object_10,684.60000002384,7,2,452.69999998808,0.2222222222222222,1,object_08,1,297,0,2,0,restaurant_3,2,memory-2step-stake-s,502,1225840,0.0-19.0-0.0-0.14,A1BSVEBYDZ0AAU,3YGE63DIOBDQKTHDUYZ9OUNPB7QW00,3X3OR7WPZ3GVD78BBQAOXI8EW0T8LK,8,7
15,2,object_02,object_03,747.09999999404,3,2,303.79999998212,0.1111111111111111,1,object_08,5,302,0,1,0,forest_3,2,memory-2step-stake-s,503,1233453,0.0-19.0-0.0-0.15,A1BSVEBYDZ0AAU,3YGE63DIOBDQKTHDUYZ9OUNPB7QW00,3X3OR7WPZ3GVD78BBQAOXI8EW0T8LK,4,3
16,3,object_07,object_01,884.09999999404,6,2,552.60000002384,0.0,2,object_05,1,302,0,0,0,library_2,2,memory-2step-stake-s,504,1241217,0.0-19.0-0.0-0.16,A1BSVEBYDZ0AAU,3YGE63DIOBDQKTHDUYZ9OUNPB7QW00,3X3OR7WPZ3GVD78BBQAOXI8EW0T8LK,5,6
17,3,object_01,object_07,686.5,5,2,398.90000000596,0.3333333333333333,1,object_08,5,317,0,3,1,library_4,2,memory-2step-stake-s,505,1249132,0.0-19.0-0.0-0.17,A1BSVEBYDZ0AAU,3YGE63DIOBDQKTHDUYZ9OUNPB7QW00,3X3OR7WPZ3GVD78BBQAOXI8EW0T8LK,6,5
18,1,object_09,object_06,741.70000001788,1,2,296.0,0.1111111111111111,1,object_08,1,318,0,1,0,desert_6,2,memory-2step-stake-s,506,1256741,0.0-19.0-0.0-0.18,A1BSVEBYDZ0AAU,3YGE63DIOBDQKTHDUYZ9OUNPB7QW00,3X3OR7WPZ3GVD78BBQAOXI8EW0T8LK,2,1
19,1,object_09,object_06,771.59999999404,2,1,363.60000002384,0.0,2,object_05,5,318,0,1,0,desert_6,2,memory-2step-stake-s,507,1264318,0.0-19.0-0.0-0.19,A1BSVEBYDZ0AAU,3YGE63DIOBDQKTHDUYZ9OUNPB7QW00,3X3OR7WPZ3GVD78BBQAOXI8EW0T8LK,2,1
20,4,object_04,object_10,671.89999997616,7,2,287.59999999404,0.5555555555555556,1,object_08,5,343,0,5,2,restaurant_1,2,memory-2step-stake-s,508,1272323,0.0-19.0-0.0-0.20,A1BSVEBYDZ0AAU,3YGE63DIOBDQKTHDUYZ9OUNPB7QW00,3X3OR7WPZ3GVD78BBQAOXI8EW0T8LK,8,7
21,3,object_01,object_07,573.89999997616,5,2,238.69999998808,0.6666666666666666,1,object_08,5,373,0,6,1,library_5,2,memory-2step-stake-s,509,1280380,0.0-19.0-0.0-0.21,A1BSVEBYDZ0AAU,3YGE63DIOBDQKTHDUYZ9OUNPB7QW00,3X3OR7WPZ3GVD78BBQAOXI8EW0T8LK,6,5
22,1,object_09,object_06,799.80000001192,1,2,327.09999999404,0.6666666666666666,1,object_08,1,379,0,6,3,desert_5,2,memory-2step-stake-s,510,1288541,0.0-19.0-0.0-0.22,A1BSVEBYDZ0AAU,3YGE63DIOBDQKTHDUYZ9OUNPB7QW00,3X3OR7WPZ3GVD78BBQAOXI8EW0T8LK,2,1
23,2,object_02,object_03,748.5,3,2,406.0,0.3333333333333333,1,object_08,5,394,0,3,4,forest_6,2,memory-2step-stake-s,511,1296463,0.0-19.0-0.0-0.23,A1BSVEBYDZ0AAU,3YGE63DIOBDQKTHDUYZ9OUNPB7QW00,3X3OR7WPZ3GVD78BBQAOXI8EW0T8LK,4,3
24,1,object_06,object_09,666.79999998212,1,1,277.20000001788,0.0,1,object_08,5,394,0,0,3,desert_5,2,memory-2step-stake-s,512,1303951,0.0-19.0-0.0-0.24,A1BSVEBYDZ0AAU,3YGE63DIOBDQKTHDUYZ9OUNPB7QW00,3X3OR7WPZ3GVD78BBQAOXI8EW0T8LK,1,2
25,2,object_02,object_03,996.70000001788,4,1,377.09999999404,0.5555555555555556,2,object_05,5,419,0,2,5,forest_6,2,memory-2step-stake-s,513,1312043,0.0-19.0-0.0-0.25,A1BSVEBYDZ0AAU,3YGE63DIOBDQKTHDUYZ9OUNPB7QW00,3X3OR7WPZ3GVD78BBQAOXI8EW0T8LK,4,3
26,3,object_07,object_01,732.40000000596,6,2,-1.0,0.0,2,object_05,1,419,0,2,8,library_2,2,memory-2step-stake-s,514,1320557,0.0-19.0-0.0-0.26,A1BSVEBYDZ0AAU,3YGE63DIOBDQKTHDUYZ9OUNPB7QW00,3X3OR7WPZ3GVD78BBQAOXI8EW0T8LK,5,6
27,4,object_04,object_10,615.0,8,1,329.79999998212,1.0,2,object_05,1,428,0,2,9,restaurant_6,2,memory-2step-stake-s,515,1329003,0.0-19.0-0.0-0.27,A1BSVEBYDZ0AAU,3YGE63DIOBDQKTHDUYZ9OUNPB7QW00,3X3OR7WPZ3GVD78BBQAOXI8EW0T8LK,8,7
28,4,object_04,object_10,738.5,8,1,451.29999998212,1.0,2,object_05,5,473,0,3,9,restaurant_2,2,memory-2step-stake-s,516,1337573,0.0-19.0-0.0-0.28,A1BSVEBYDZ0AAU,3YGE63DIOBDQKTHDUYZ9OUNPB7QW00,3X3OR7WPZ3GVD78BBQAOXI8EW0T8LK,8,7
29,2,object_03,object_02,974.79999998212,4,2,291.70000001788,0.7777777777777778,2,object_05,1,480,0,2,7,forest_5,2,memory-2step-stake-s,517,1345784,0.0-19.0-0.0-0.29,A1BSVEBYDZ0AAU,3YGE63DIOBDQKTHDUYZ9OUNPB7QW00,3X3OR7WPZ3GVD78BBQAOXI8EW0T8LK,3,4
30,2,object_02,object_03,872.29999998212,4,1,299.5,0.6666666666666666,2,object_05,5,510,0,2,6,forest_5,2,memory-2step-stake-s,518,1353901,0.0-19.0-0.0-0.30,A1BSVEBYDZ0AAU,3YGE63DIOBDQKTHDUYZ9OUNPB7QW00,3X3OR7WPZ3GVD78BBQAOXI8EW0T8LK,4,3
31,2,object_03,object_02,860.19999998808,4,2,259.80000001192,0.6666666666666666,2,object_05,5,540,0,5,6,forest_8,2,memory-2step-stake-s,519,1361979,0.0-19.0-0.0-0.31,A1BSVEBYDZ0AAU,3YGE63DIOBDQKTHDUYZ9OUNPB7QW00,3X3OR7WPZ3GVD78BBQAOXI8EW0T8LK,3,4
32,2,object_02,object_03,654.0,4,1,266.39999997616,0.3333333333333333,2,object_05,5,555,0,4,3,forest_6,2,memory-2step-stake-s,520,1369760,0.0-19.0-0.0-0.32,A1BSVEBYDZ0AAU,3YGE63DIOBDQKTHDUYZ9OUNPB7QW00,3X3OR7WPZ3GVD78BBQAOXI8EW0T8LK,4,3
33,4,object_10,object_04,830.79999998212,8,2,288.5,0.6666666666666666,2,object_05,1,561,0,4,6,restaurant_3,2,memory-2step-stake-s,521,1377868,0.0-19.0-0.0-0.33,A1BSVEBYDZ0AAU,3YGE63DIOBDQKTHDUYZ9OUNPB7QW00,3X3OR7WPZ3GVD78BBQAOXI8EW0T8LK,7,8
34,3,object_01,object_07,701.5,6,1,258.19999998808,0.6666666666666666,2,object_05,5,591,0,6,6,library_5,2,memory-2step-stake-s,522,1385942,0.0-19.0-0.0-0.34,A1BSVEBYDZ0AAU,3YGE63DIOBDQKTHDUYZ9OUNPB7QW00,3X3OR7WPZ3GVD78BBQAOXI8EW0T8LK,6,5
35,2,object_03,object_02,758.40000000596,4,2,287.30000001192,0.6666666666666666,2,object_05,5,621,0,6,6,forest_8,2,memory-2step-stake-s,523,1394043,0.0-19.0-0.0-0.35,A1BSVEBYDZ0AAU,3YGE63DIOBDQKTHDUYZ9OUNPB7QW00,3X3OR7WPZ3GVD78BBQAOXI8EW0T8LK,3,4
36,4,object_04,object_10,1242.400000006,8,1,463.79999998212,0.5555555555555556,2,object_05,1,626,0,9,5,restaurant_1,2,memory-2step-stake-s,524,1402225,0.0-19.0-0.0-0.36,A1BSVEBYDZ0AAU,3YGE63DIOBDQKTHDUYZ9OUNPB7QW00,3X3OR7WPZ3GVD78BBQAOXI8EW0T8LK,8,7
37,2,object_03,object_02,755.29999998212,4,2,296.79999998212,0.7777777777777778,2,object_05,5,661,0,7,7,forest_5,2,memory-2step-stake-s,525,1410439,0.0-19.0-0.0-0.37,A1BSVEBYDZ0AAU,3YGE63DIOBDQKTHDUYZ9OUNPB7QW00,3X3OR7WPZ3GVD78BBQAOXI8EW0T8LK,3,4
38,2,object_03,object_02,744.29999998212,4,2,526.19999998808,0.4444444444444444,2,object_05,5,681,0,8,4,forest_5,2,memory-2step-stake-s,526,1418579,0.0-19.0-0.0-0.38,A1BSVEBYDZ0AAU,3YGE63DIOBDQKTHDUYZ9OUNPB7QW00,3X3OR7WPZ3GVD78BBQAOXI8EW0T8LK,3,4
39,3,object_07,object_01,1017.5,6,2,322.80000001192,0.1111111111111111,2,object_05,1,682,0,8,1,library_2,2,memory-2step-stake-s,527,1426212,0.0-19.0-0.0-0.39,A1BSVEBYDZ0AAU,3YGE63DIOBDQKTHDUYZ9OUNPB7QW00,3X3OR7WPZ3GVD78BBQAOXI8EW0T8LK,5,6
40,1,object_06,object_09,813.90000000596,1,1,271.90000000596,0.6666666666666666,1,object_08,1,688,0,6,0,desert_5,2,memory-2step-stake-s,528,1434304,0.0-19.0-0.0-0.40,A1BSVEBYDZ0AAU,3YGE63DIOBDQKTHDUYZ9OUNPB7QW00,3X3OR7WPZ3GVD78BBQAOXI8EW0T8LK,1,2
41,4,object_04,object_10,773.69999998808,7,2,278.90000000596,0.2222222222222222,1,object_08,5,698,0,2,0,restaurant_1,2,memory-2step-stake-s,529,1441998,0.0-19.0-0.0-0.41,A1BSVEBYDZ0AAU,3YGE63DIOBDQKTHDUYZ9OUNPB7QW00,3X3OR7WPZ3GVD78BBQAOXI8EW0T8LK,8,7
42,2,object_02,object_03,833.40000000596,3,2,374.09999999404,0.1111111111111111,1,object_08,5,703,0,1,0,forest_3,2,memory-2step-stake-s,530,1449683,0.0-19.0-0.0-0.42,A1BSVEBYDZ0AAU,3YGE63DIOBDQKTHDUYZ9OUNPB7QW00,3X3OR7WPZ3GVD78BBQAOXI8EW0T8LK,4,3
43,4,object_04,object_10,1133.400000006,8,1,-1.0,0.0,2,object_05,1,703,0,2,3,restaurant_1,2,memory-2step-stake-s,531,1458196,0.0-19.0-0.0-0.43,A1BSVEBYDZ0AAU,3YGE63DIOBDQKTHDUYZ9OUNPB7QW00,3X3OR7WPZ3GVD78BBQAOXI8EW0T8LK,8,7
44,3,object_01,object_07,854.69999998808,6,1,385.30000001192,0.2222222222222222,2,object_05,1,705,0,2,2,library_2,2,memory-2step-stake-s,532,1465993,0.0-19.0-0.0-0.44,A1BSVEBYDZ0AAU,3YGE63DIOBDQKTHDUYZ9OUNPB7QW00,3X3OR7WPZ3GVD78BBQAOXI8EW0T8LK,6,5
45,3,object_07,object_01,843.09999999404,6,2,275.0,0.4444444444444444,2,object_05,1,709,0,1,4,library_5,2,memory-2step-stake-s,533,1473884,0.0-19.0-0.0-0.45,A1BSVEBYDZ0AAU,3YGE63DIOBDQKTHDUYZ9OUNPB7QW00,3X3OR7WPZ3GVD78BBQAOXI8EW0T8LK,5,6
46,3,object_01,object_07,487.80000001192,6,1,247.30000001192,0.1111111111111111,2,object_05,1,710,0,2,1,library_4,2,memory-2step-stake-s,534,1481441,0.0-19.0-0.0-0.46,A1BSVEBYDZ0AAU,3YGE63DIOBDQKTHDUYZ9OUNPB7QW00,3X3OR7WPZ3GVD78BBQAOXI8EW0T8LK,6,5
47,3,object_07,object_01,842.89999997616,6,2,231.5,0.2222222222222222,2,object_05,5,720,0,2,2,library_3,2,memory-2step-stake-s,535,1489085,0.0-19.0-0.0-0.47,A1BSVEBYDZ0AAU,3YGE63DIOBDQKTHDUYZ9OUNPB7QW00,3X3OR7WPZ3GVD78BBQAOXI8EW0T8LK,5,6
48,1,object_06,object_09,1001.099999994,2,2,464.5,0.3333333333333333,2,object_05,1,723,0,2,3,desert_6,2,memory-2step-stake-s,536,1497064,0.0-19.0-0.0-0.48,A1BSVEBYDZ0AAU,3YGE63DIOBDQKTHDUYZ9OUNPB7QW00,3X3OR7WPZ3GVD78BBQAOXI8EW0T8LK,1,2
49,4,object_04,object_10,787.69999998808,7,2,338.19999998808,0.5555555555555556,1,object_08,5,748,0,5,3,restaurant_6,2,memory-2step-stake-s,537,1505116,0.0-19.0-0.0-0.49,A1BSVEBYDZ0AAU,3YGE63DIOBDQKTHDUYZ9OUNPB7QW00,3X3OR7WPZ3GVD78BBQAOXI8EW0T8LK,8,7
50,1,object_06,object_09,976.59999999404,1,1,112.09999999404,0.6666666666666666,1,object_08,1,754,0,6,1,desert_3,2,memory-2step-stake-s,538,1513044,0.0-19.0-0.0-0.50,A1BSVEBYDZ0AAU,3YGE63DIOBDQKTHDUYZ9OUNPB7QW00,3X3OR7WPZ3GVD78BBQAOXI8EW0T8LK,1,2
51,3,object_07,object_01,888.70000001788,5,1,265.20000001788,0.4444444444444444,1,object_08,1,758,0,4,3,library_3,2,memory-2step-stake-s,539,1520927,0.0-19.0-0.0-0.51,A1BSVEBYDZ0AAU,3YGE63DIOBDQKTHDUYZ9OUNPB7QW00,3X3OR7WPZ3GVD78BBQAOXI8EW0T8LK,5,6
52,4,object_04,object_10,544.30000001192,7,2,275.19999998808,0.4444444444444444,1,object_08,1,762,0,4,2,restaurant_3,2,memory-2step-stake-s,540,1528815,0.0-19.0-0.0-0.52,A1BSVEBYDZ0AAU,3YGE63DIOBDQKTHDUYZ9OUNPB7QW00,3X3OR7WPZ3GVD78BBQAOXI8EW0T8LK,8,7
53,3,object_07,object_01,609.69999998808,5,1,317.30000001192,0.6666666666666666,1,object_08,5,792,0,6,0,library_5,2,memory-2step-stake-s,541,1536948,0.0-19.0-0.0-0.53,A1BSVEBYDZ0AAU,3YGE63DIOBDQKTHDUYZ9OUNPB7QW00,3X3OR7WPZ3GVD78BBQAOXI8EW0T8LK,5,6
54,4,object_10,object_04,701.0,7,1,266.19999998808,1.0,1,object_08,1,801,0,9,6,restaurant_3,2,memory-2step-stake-s,542,1545335,0.0-19.0-0.0-0.54,A1BSVEBYDZ0AAU,3YGE63DIOBDQKTHDUYZ9OUNPB7QW00,3X3OR7WPZ3GVD78BBQAOXI8EW0T8LK,7,8
55,4,object_04,object_10,463.69999998808,7,2,167.19999998808,0.8888888888888888,1,object_08,1,809,0,8,8,restaurant_3,2,memory-2step-stake-s,543,1553523,0.0-19.0-0.0-0.55,A1BSVEBYDZ0AAU,3YGE63DIOBDQKTHDUYZ9OUNPB7QW00,3X3OR7WPZ3GVD78BBQAOXI8EW0T8LK,8,7
56,3,object_07,object_01,964.59999999404,5,1,254.40000000596,0.8888888888888888,1,object_08,1,817,0,8,8,library_5,2,memory-2step-stake-s,544,1561794,0.0-19.0-0.0-0.56,A1BSVEBYDZ0AAU,3YGE63DIOBDQKTHDUYZ9OUNPB7QW00,3X3OR7WPZ3GVD78BBQAOXI8EW0T8LK,5,6
57,4,object_04,object_10,625.5,7,2,236.30000001192,0.8888888888888888,1,object_08,1,825,0,8,9,restaurant_6,2,memory-2step-stake-s,545,1570051,0.0-19.0-0.0-0.57,A1BSVEBYDZ0AAU,3YGE63DIOBDQKTHDUYZ9OUNPB7QW00,3X3OR7WPZ3GVD78BBQAOXI8EW0T8LK,8,7
58,3,object_07,object_01,585.09999999404,5,1,380.5,1.0,1,object_08,1,834,0,9,9,library_4,2,memory-2step-stake-s,546,1578550,0.0-19.0-0.0-0.58,A1BSVEBYDZ0AAU,3YGE63DIOBDQKTHDUYZ9OUNPB7QW00,3X3OR7WPZ3GVD78BBQAOXI8EW0T8LK,5,6
59,3,object_01,object_07,536.90000000596,5,2,242.5,1.0,1,object_08,1,843,0,9,7,library_3,2,memory-2step-stake-s,547,1586911,0.0-19.0-0.0-0.59,A1BSVEBYDZ0AAU,3YGE63DIOBDQKTHDUYZ9OUNPB7QW00,3X3OR7WPZ3GVD78BBQAOXI8EW0T8LK,6,5
60,2,object_02,object_03,704.89999997616,3,2,288.70000001788,0.7777777777777778,1,object_08,5,878,0,7,9,forest_8,2,memory-2step-stake-s,548,1595117,0.0-19.0-0.0-0.60,A1BSVEBYDZ0AAU,3YGE63DIOBDQKTHDUYZ9OUNPB7QW00,3X3OR7WPZ3GVD78BBQAOXI8EW0T8LK,4,3
61,2,object_02,object_03,381.90000000596,3,2,489.59999999404,1.0,1,object_08,5,923,0,9,8,forest_8,2,memory-2step-stake-s,549,1603726,0.0-19.0-0.0-0.61,A1BSVEBYDZ0AAU,3YGE63DIOBDQKTHDUYZ9OUNPB7QW00,3X3OR7WPZ3GVD78BBQAOXI8EW0T8LK,4,3
62,1,object_09,object_06,833.30000001192,1,2,345.0,0.6666666666666666,1,object_08,5,953,0,6,8,desert_8,2,memory-2step-stake-s,550,1611891,0.0-19.0-0.0-0.62,A1BSVEBYDZ0AAU,3YGE63DIOBDQKTHDUYZ9OUNPB7QW00,3X3OR7WPZ3GVD78BBQAOXI8EW0T8LK,2,1
63,3,object_01,object_07,555.10000002384,5,2,293.20000001788,0.6666666666666666,1,object_08,1,959,0,6,7,library_3,2,memory-2step-stake-s,551,1620005,0.0-19.0-0.0-0.63,A1BSVEBYDZ0AAU,3YGE63DIOBDQKTHDUYZ9OUNPB7QW00,3X3OR7WPZ3GVD78BBQAOXI8EW0T8LK,6,5
64,1,object_06,object_09,898.09999999404,1,1,326.59999999404,0.6666666666666666,1,object_08,5,989,0,6,7,desert_6,2,memory-2step-stake-s,552,1628156,0.0-19.0-0.0-0.64,A1BSVEBYDZ0AAU,3YGE63DIOBDQKTHDUYZ9OUNPB7QW00,3X3OR7WPZ3GVD78BBQAOXI8EW0T8LK,1,2
65,2,object_02,object_03,683.40000000596,3,2,242.09999999404,0.4444444444444444,1,object_08,1,993,0,4,8,forest_5,2,memory-2step-stake-s,553,1636013,0.0-19.0-0.0-0.65,A1BSVEBYDZ0AAU,3YGE63DIOBDQKTHDUYZ9OUNPB7QW00,3X3OR7WPZ3GVD78BBQAOXI8EW0T8LK,4,3
66,1,object_06,object_09,742.09999999404,1,1,269.80000001192,0.3333333333333333,1,object_08,5,1008,0,3,8,desert_8,2,memory-2step-stake-s,554,1643796,0.0-19.0-0.0-0.66,A1BSVEBYDZ0AAU,3YGE63DIOBDQKTHDUYZ9OUNPB7QW00,3X3OR7WPZ3GVD78BBQAOXI8EW0T8LK,1,2
67,1,object_09,object_06,651.09999999404,2,1,317.60000002384,1.0,2,object_05,5,1053,0,5,9,desert_6,2,memory-2step-stake-s,555,1652236,0.0-19.0-0.0-0.67,A1BSVEBYDZ0AAU,3YGE63DIOBDQKTHDUYZ9OUNPB7QW00,3X3OR7WPZ3GVD78BBQAOXI8EW0T8LK,2,1
68,3,object_07,object_01,923.09999999404,6,2,313.19999998808,0.8888888888888888,2,object_05,5,1093,0,7,8,library_3,2,memory-2step-stake-s,556,1660577,0.0-19.0-0.0-0.68,A1BSVEBYDZ0AAU,3YGE63DIOBDQKTHDUYZ9OUNPB7QW00,3X3OR7WPZ3GVD78BBQAOXI8EW0T8LK,5,6
69,3,object_07,object_01,565.40000000596,6,2,280.09999999404,1.0,2,object_05,1,1102,0,5,9,library_5,2,memory-2step-stake-s,557,1668976,0.0-19.0-0.0-0.69,A1BSVEBYDZ0AAU,3YGE63DIOBDQKTHDUYZ9OUNPB7QW00,3X3OR7WPZ3GVD78BBQAOXI8EW0T8LK,5,6
70,3,object_07,object_01,467.40000000596,6,2,255.69999998808,1.0,2,object_05,1,1111,0,2,9,library_3,2,memory-2step-stake-s,558,1677353,0.0-19.0-0.0-0.70,A1BSVEBYDZ0AAU,3YGE63DIOBDQKTHDUYZ9OUNPB7QW00,3X3OR7WPZ3GVD78BBQAOXI8EW0T8LK,5,6
71,4,object_10,object_04,1086.099999994,8,2,296.5,0.8888888888888888,2,object_05,1,1119,0,5,8,restaurant_2,2,memory-2step-stake-s,559,1685676,0.0-19.0-0.0-0.71,A1BSVEBYDZ0AAU,3YGE63DIOBDQKTHDUYZ9OUNPB7QW00,3X3OR7WPZ3GVD78BBQAOXI8EW0T8LK,7,8
72,4,object_10,object_04,691.30000001192,8,2,403.09999999404,0.8888888888888888,2,object_05,1,1127,0,6,8,restaurant_2,2,memory-2step-stake-s,560,1694098,0.0-19.0-0.0-0.72,A1BSVEBYDZ0AAU,3YGE63DIOBDQKTHDUYZ9OUNPB7QW00,3X3OR7WPZ3GVD78BBQAOXI8EW0T8LK,7,8
73,1,object_09,object_06,665.19999998808,2,1,236.19999998808,0.6666666666666666,2,object_05,5,1157,0,6,6,desert_5,2,memory-2step-stake-s,561,1702149,0.0-19.0-0.0-0.73,A1BSVEBYDZ0AAU,3YGE63DIOBDQKTHDUYZ9OUNPB7QW00,3X3OR7WPZ3GVD78BBQAOXI8EW0T8LK,2,1
74,4,object_04,object_10,681.0,8,1,333.59999999404,0.5555555555555556,2,object_05,1,1162,0,6,5,restaurant_2,2,memory-2step-stake-s,562,1710198,0.0-19.0-0.0-0.74,A1BSVEBYDZ0AAU,3YGE63DIOBDQKTHDUYZ9OUNPB7QW00,3X3OR7WPZ3GVD78BBQAOXI8EW0T8LK,8,7
75,3,object_07,object_01,686.40000000596,6,2,324.29999998212,0.5555555555555556,2,object_05,1,1167,0,5,5,library_4,2,memory-2step-stake-s,563,1718240,0.0-19.0-0.0-0.75,A1BSVEBYDZ0AAU,3YGE63DIOBDQKTHDUYZ9OUNPB7QW00,3X3OR7WPZ3GVD78BBQAOXI8EW0T8LK,5,6
76,1,object_09,object_06,1271.599999994,2,1,358.79999998212,1.0,2,object_05,5,1212,0,3,9,desert_8,2,memory-2step-stake-s,564,1726715,0.0-19.0-0.0-0.76,A1BSVEBYDZ0AAU,3YGE63DIOBDQKTHDUYZ9OUNPB7QW00,3X3OR7WPZ3GVD78BBQAOXI8EW0T8LK,2,1
77,1,object_09,object_06,885.5,2,1,240.29999998212,0.6666666666666666,2,object_05,1,1218,0,3,6,desert_8,2,memory-2step-stake-s,565,1734771,0.0-19.0-0.0-0.77,A1BSVEBYDZ0AAU,3YGE63DIOBDQKTHDUYZ9OUNPB7QW00,3X3OR7WPZ3GVD78BBQAOXI8EW0T8LK,2,1
78,1,object_09,object_06,604.5,2,1,258.0,0.5555555555555556,2,object_05,5,1243,0,1,5,desert_6,2,memory-2step-stake-s,566,1742747,0.0-19.0-0.0-0.78,A1BSVEBYDZ0AAU,3YGE63DIOBDQKTHDUYZ9OUNPB7QW00,3X3OR7WPZ3GVD78BBQAOXI8EW0T8LK,2,1
79,1,object_09,object_06,520.09999999404,2,1,275.19999998808,0.3333333333333333,2,object_05,5,1258,0,1,3,desert_8,2,memory-2step-stake-s,567,1750535,0.0-19.0-0.0-0.79,A1BSVEBYDZ0AAU,3YGE63DIOBDQKTHDUYZ9OUNPB7QW00,3X3OR7WPZ3GVD78BBQAOXI8EW0T8LK,2,1
80,2,object_03,object_02,-1.0,-1,-1,-1.0,0.0,-,0,1,1258,0,6,2,forest_6,2,memory-2step-stake-s,568,1757041,0.0-19.0-0.0-0.80,A1BSVEBYDZ0AAU,3YGE63DIOBDQKTHDUYZ9OUNPB7QW00,3X3OR7WPZ3GVD78BBQAOXI8EW0T8LK,3,4
81,1,object_09,object_06,826.40000000596,1,2,302.19999998808,0.4444444444444444,1,object_08,5,1278,0,4,2,desert_6,2,memory-2step-stake-s,569,1764958,0.0-19.0-0.0-0.81,A1BSVEBYDZ0AAU,3YGE63DIOBDQKTHDUYZ9OUNPB7QW00,3X3OR7WPZ3GVD78BBQAOXI8EW0T8LK,2,1
82,2,object_02,object_03,831.09999999404,3,2,370.09999999404,0.5555555555555556,1,object_08,5,1303,0,5,0,forest_8,2,memory-2step-stake-s,570,1773058,0.0-19.0-0.0-0.82,A1BSVEBYDZ0AAU,3YGE63DIOBDQKTHDUYZ9OUNPB7QW00,3X3OR7WPZ3GVD78BBQAOXI8EW0T8LK,4,3
83,4,object_10,object_04,930.80000001192,7,1,262.0,0.5555555555555556,1,object_08,1,1308,0,5,0,restaurant_6,2,memory-2step-stake-s,571,1781047,0.0-19.0-0.0-0.83,A1BSVEBYDZ0AAU,3YGE63DIOBDQKTHDUYZ9OUNPB7QW00,3X3OR7WPZ3GVD78BBQAOXI8EW0T8LK,7,8
84,2,object_02,object_03,713.79999998212,3,2,36.200000017881,0.3333333333333333,1,object_08,5,1323,0,3,6,forest_3,2,memory-2step-stake-s,572,1788597,0.0-19.0-0.0-0.84,A1BSVEBYDZ0AAU,3YGE63DIOBDQKTHDUYZ9OUNPB7QW00,3X3OR7WPZ3GVD78BBQAOXI8EW0T8LK,4,3
85,4,object_10,object_04,1074.1999999881,7,1,329.79999998212,0.5555555555555556,1,object_08,1,1328,0,5,3,restaurant_2,2,memory-2step-stake-s,573,1796643,0.0-19.0-0.0-0.85,A1BSVEBYDZ0AAU,3YGE63DIOBDQKTHDUYZ9OUNPB7QW00,3X3OR7WPZ3GVD78BBQAOXI8EW0T8LK,7,8
86,1,object_06,object_09,782.39999997616,1,1,239.10000002384,0.5555555555555556,1,object_08,5,1353,0,5,5,desert_8,2,memory-2step-stake-s,574,1804597,0.0-19.0-0.0-0.86,A1BSVEBYDZ0AAU,3YGE63DIOBDQKTHDUYZ9OUNPB7QW00,3X3OR7WPZ3GVD78BBQAOXI8EW0T8LK,1,2
87,4,object_10,object_04,689.29999998212,7,1,321.70000001788,0.5555555555555556,1,object_08,1,1358,0,5,6,restaurant_2,2,memory-2step-stake-s,575,1812633,0.0-19.0-0.0-0.87,A1BSVEBYDZ0AAU,3YGE63DIOBDQKTHDUYZ9OUNPB7QW00,3X3OR7WPZ3GVD78BBQAOXI8EW0T8LK,7,8
88,2,object_02,object_03,553.90000000596,3,2,239.59999999404,0.4444444444444444,1,object_08,5,1378,0,4,6,forest_5,2,memory-2step-stake-s,576,1820485,0.0-19.0-0.0-0.88,A1BSVEBYDZ0AAU,3YGE63DIOBDQKTHDUYZ9OUNPB7QW00,3X3OR7WPZ3GVD78BBQAOXI8EW0T8LK,4,3
89,4,object_04,object_10,712.20000001788,7,2,276.90000000596,0.3333333333333333,1,object_08,5,1393,0,3,7,restaurant_6,2,memory-2step-stake-s,577,1828279,0.0-19.0-0.0-0.89,A1BSVEBYDZ0AAU,3YGE63DIOBDQKTHDUYZ9OUNPB7QW00,3X3OR7WPZ3GVD78BBQAOXI8EW0T8LK,8,7
90,4,object_10,object_04,967.40000000596,8,2,317.69999998808,0.8888888888888888,2,object_05,1,1401,0,2,8,restaurant_1,2,memory-2step-stake-s,578,1836617,0.0-19.0-0.0-0.90,A1BSVEBYDZ0AAU,3YGE63DIOBDQKTHDUYZ9OUNPB7QW00,3X3OR7WPZ3GVD78BBQAOXI8EW0T8LK,7,8
91,1,object_06,object_09,589.69999998808,2,2,266.20000001788,0.5555555555555556,2,object_05,1,1406,0,6,5,desert_3,2,memory-2step-stake-s,579,1844605,0.0-19.0-0.0-0.91,A1BSVEBYDZ0AAU,3YGE63DIOBDQKTHDUYZ9OUNPB7QW00,3X3OR7WPZ3GVD78BBQAOXI8EW0T8LK,1,2
92,3,object_07,object_01,712.5,6,2,290.70000001788,0.4444444444444444,2,object_05,1,1410,0,5,4,library_3,2,memory-2step-stake-s,580,1852510,0.0-19.0-0.0-0.92,A1BSVEBYDZ0AAU,3YGE63DIOBDQKTHDUYZ9OUNPB7QW00,3X3OR7WPZ3GVD78BBQAOXI8EW0T8LK,5,6
93,3,object_01,object_07,978.0,5,2,253.5,0.5555555555555556,1,object_08,5,1435,0,5,2,library_4,2,memory-2step-stake-s,581,1860482,0.0-19.0-0.0-0.93,A1BSVEBYDZ0AAU,3YGE63DIOBDQKTHDUYZ9OUNPB7QW00,3X3OR7WPZ3GVD78BBQAOXI8EW0T8LK,6,5
94,3,object_07,object_01,636.40000000596,6,2,259.09999999404,0.2222222222222222,2,object_05,1,1437,0,6,2,library_4,2,memory-2step-stake-s,582,1868153,0.0-19.0-0.0-0.94,A1BSVEBYDZ0AAU,3YGE63DIOBDQKTHDUYZ9OUNPB7QW00,3X3OR7WPZ3GVD78BBQAOXI8EW0T8LK,5,6
95,2,object_02,object_03,717.5,3,2,241.80000001192,0.5555555555555556,1,object_08,5,1462,0,5,1,forest_3,2,memory-2step-stake-s,583,1876112,0.0-19.0-0.0-0.95,A1BSVEBYDZ0AAU,3YGE63DIOBDQKTHDUYZ9OUNPB7QW00,3X3OR7WPZ3GVD78BBQAOXI8EW0T8LK,4,3
96,1,object_06,object_09,771.0,1,1,242.29999998212,0.4444444444444444,1,object_08,1,1466,0,4,0,desert_8,2,memory-2step-stake-s,584,1883972,0.0-19.0-0.0-0.96,A1BSVEBYDZ0AAU,3YGE63DIOBDQKTHDUYZ9OUNPB7QW00,3X3OR7WPZ3GVD78BBQAOXI8EW0T8LK,1,2
97,1,object_06,object_09,828.29999998212,1,1,188.5,0.6666666666666666,1,object_08,1,1472,0,6,1,desert_6,2,memory-2step-stake-s,585,1891977,0.0-19.0-0.0-0.97,A1BSVEBYDZ0AAU,3YGE63DIOBDQKTHDUYZ9OUNPB7QW00,3X3OR7WPZ3GVD78BBQAOXI8EW0T8LK,1,2
98,2,object_02,object_03,691.69999998808,3,2,206.80000001192,0.4444444444444444,1,object_08,1,1476,0,4,1,forest_3,2,memory-2step-stake-s,586,1899800,0.0-19.0-0.0-0.98,A1BSVEBYDZ0AAU,3YGE63DIOBDQKTHDUYZ9OUNPB7QW00,3X3OR7WPZ3GVD78BBQAOXI8EW0T8LK,4,3
99,2,object_02,object_03,602.79999998212,3,2,262.59999999404,0.5555555555555556,1,object_08,5,1501,0,5,3,forest_6,2,memory-2step-stake-s,587,1907776,0.0-19.0-0.0-0.99,A1BSVEBYDZ0AAU,3YGE63DIOBDQKTHDUYZ9OUNPB7QW00,3X3OR7WPZ3GVD78BBQAOXI8EW0T8LK,4,3
100,1,object_06,object_09,864.70000001788,1,1,258.70000001788,0.7777777777777778,1,object_08,5,1536,0,7,9,desert_8,2,memory-2step-stake-s,588,1915952,0.0-19.0-0.0-0.100,A1BSVEBYDZ0AAU,3YGE63DIOBDQKTHDUYZ9OUNPB7QW00,3X3OR7WPZ3GVD78BBQAOXI8EW0T8LK,1,2
101,3,object_07,object_01,782.70000001788,5,1,484.5,0.8888888888888888,1,object_08,1,1544,0,8,7,library_3,2,memory-2step-stake-s,589,1924453,0.0-19.0-0.0-0.101,A1BSVEBYDZ0AAU,3YGE63DIOBDQKTHDUYZ9OUNPB7QW00,3X3OR7WPZ3GVD78BBQAOXI8EW0T8LK,5,6
102,2,object_03,object_02,699.30000001192,3,1,268.5,0.8888888888888888,1,object_08,5,1584,0,8,8,forest_6,2,memory-2step-stake-s,590,1932746,0.0-19.0-0.0-0.102,A1BSVEBYDZ0AAU,3YGE63DIOBDQKTHDUYZ9OUNPB7QW00,3X3OR7WPZ3GVD78BBQAOXI8EW0T8LK,3,4
103,2,object_02,object_03,607.60000002384,3,2,368.0,1.0,1,object_08,5,1629,0,9,9,forest_6,2,memory-2step-stake-s,591,1941233,0.0-19.0-0.0-0.103,A1BSVEBYDZ0AAU,3YGE63DIOBDQKTHDUYZ9OUNPB7QW00,3X3OR7WPZ3GVD78BBQAOXI8EW0T8LK,4,3
104,4,object_04,object_10,729.90000000596,7,2,241.79999998212,0.8888888888888888,1,object_08,5,1669,0,8,9,restaurant_1,2,memory-2step-stake-s,592,1949491,0.0-19.0-0.0-0.104,A1BSVEBYDZ0AAU,3YGE63DIOBDQKTHDUYZ9OUNPB7QW00,3X3OR7WPZ3GVD78BBQAOXI8EW0T8LK,8,7
105,1,object_06,object_09,974.20000001788,1,1,230.0,1.0,1,object_08,5,1714,0,9,6,desert_5,2,memory-2step-stake-s,593,1957842,0.0-19.0-0.0-0.105,A1BSVEBYDZ0AAU,3YGE63DIOBDQKTHDUYZ9OUNPB7QW00,3X3OR7WPZ3GVD78BBQAOXI8EW0T8LK,1,2
106,3,object_07,object_01,709.0,5,1,612.59999999404,0.8888888888888888,1,object_08,1,1722,0,8,5,library_5,2,memory-2step-stake-s,594,1966477,0.0-19.0-0.0-0.106,A1BSVEBYDZ0AAU,3YGE63DIOBDQKTHDUYZ9OUNPB7QW00,3X3OR7WPZ3GVD78BBQAOXI8EW0T8LK,5,6
107,3,object_07,object_01,731.90000000596,5,1,349.20000001788,0.5555555555555556,1,object_08,1,1727,0,5,9,library_5,2,memory-2step-stake-s,595,1974547,0.0-19.0-0.0-0.107,A1BSVEBYDZ0AAU,3YGE63DIOBDQKTHDUYZ9OUNPB7QW00,3X3OR7WPZ3GVD78BBQAOXI8EW0T8LK,5,6
108,1,object_09,object_06,588.59999999404,2,1,233.80000001192,1.0,2,object_05,5,1772,0,5,9,desert_3,2,memory-2step-stake-s,596,1982937,0.0-19.0-0.0-0.108,A1BSVEBYDZ0AAU,3YGE63DIOBDQKTHDUYZ9OUNPB7QW00,3X3OR7WPZ3GVD78BBQAOXI8EW0T8LK,2,1
109,1,object_09,object_06,568.0,2,1,253.79999998212,1.0,2,object_05,5,1817,0,5,9,desert_5,2,memory-2step-stake-s,597,1991309,0.0-19.0-0.0-0.109,A1BSVEBYDZ0AAU,3YGE63DIOBDQKTHDUYZ9OUNPB7QW00,3X3OR7WPZ3GVD78BBQAOXI8EW0T8LK,2,1
110,3,object_07,object_01,825.40000000596,6,2,321.30000001192,0.7777777777777778,2,object_05,1,1824,0,7,7,library_3,2,memory-2step-stake-s,598,1999561,0.0-19.0-0.0-0.110,A1BSVEBYDZ0AAU,3YGE63DIOBDQKTHDUYZ9OUNPB7QW00,3X3OR7WPZ3GVD78BBQAOXI8EW0T8LK,5,6
111,3,object_01,object_07,575.0,6,1,262.0,0.4444444444444444,2,object_05,1,1828,0,8,4,library_4,2,memory-2step-stake-s,599,2007439,0.0-19.0-0.0-0.111,A1BSVEBYDZ0AAU,3YGE63DIOBDQKTHDUYZ9OUNPB7QW00,3X3OR7WPZ3GVD78BBQAOXI8EW0T8LK,6,5
112,3,object_07,object_01,554.39999997616,5,1,319.30000001192,0.7777777777777778,1,object_08,1,1835,0,7,2,library_3,2,memory-2step-stake-s,600,2015672,0.0-19.0-0.0-0.112,A1BSVEBYDZ0AAU,3YGE63DIOBDQKTHDUYZ9OUNPB7QW00,3X3OR7WPZ3GVD78BBQAOXI8EW0T8LK,5,6
113,3,object_01,object_07,657.59999999404,5,2,239.30000001192,0.7777777777777778,1,object_08,5,1870,0,7,1,library_2,2,memory-2step-stake-s,601,2023828,0.0-19.0-0.0-0.113,A1BSVEBYDZ0AAU,3YGE63DIOBDQKTHDUYZ9OUNPB7QW00,3X3OR7WPZ3GVD78BBQAOXI8EW0T8LK,6,5
114,1,object_09,object_06,661.19999998808,1,2,309.90000000596,1.0,1,object_08,5,1915,0,9,1,desert_3,2,memory-2step-stake-s,602,2032256,0.0-19.0-0.0-0.114,A1BSVEBYDZ0AAU,3YGE63DIOBDQKTHDUYZ9OUNPB7QW00,3X3OR7WPZ3GVD78BBQAOXI8EW0T8LK,2,1
115,1,object_06,object_09,754.19999998808,1,1,194.80000001192,0.6666666666666666,1,object_08,5,1945,0,6,1,desert_3,2,memory-2step-stake-s,603,2040269,0.0-19.0-0.0-0.115,A1BSVEBYDZ0AAU,3YGE63DIOBDQKTHDUYZ9OUNPB7QW00,3X3OR7WPZ3GVD78BBQAOXI8EW0T8LK,1,2
116,1,object_06,object_09,701.20000001788,1,1,287.0,0.6666666666666666,1,object_08,1,1951,0,6,0,desert_3,2,memory-2step-stake-s,604,2048370,0.0-19.0-0.0-0.116,A1BSVEBYDZ0AAU,3YGE63DIOBDQKTHDUYZ9OUNPB7QW00,3X3OR7WPZ3GVD78BBQAOXI8EW0T8LK,1,2
117,2,object_03,object_02,746.5,3,1,263.5,0.5555555555555556,1,object_08,5,1976,0,5,2,forest_6,2,memory-2step-stake-s,605,2056358,0.0-19.0-0.0-0.117,A1BSVEBYDZ0AAU,3YGE63DIOBDQKTHDUYZ9OUNPB7QW00,3X3OR7WPZ3GVD78BBQAOXI8EW0T8LK,3,4
118,3,object_01,object_07,691.09999999404,6,1,249.59999999404,0.3333333333333333,2,object_05,1,1979,0,5,3,library_5,2,memory-2step-stake-s,606,2064121,0.0-19.0-0.0-0.118,A1BSVEBYDZ0AAU,3YGE63DIOBDQKTHDUYZ9OUNPB7QW00,3X3OR7WPZ3GVD78BBQAOXI8EW0T8LK,6,5
119,1,object_06,object_09,655.40000000596,1,1,254.59999999404,0.6666666666666666,1,object_08,1,1985,0,6,5,desert_6,2,memory-2step-stake-s,607,2072191,0.0-19.0-0.0-0.119,A1BSVEBYDZ0AAU,3YGE63DIOBDQKTHDUYZ9OUNPB7QW00,3X3OR7WPZ3GVD78BBQAOXI8EW0T8LK,1,2
120,1,object_09,object_06,560.09999999404,1,2,380.79999998212,0.6666666666666666,1,object_08,5,2015,0,6,1,desert_6,2,memory-2step-stake-s,608,2080388,0.0-19.0-0.0-0.120,A1BSVEBYDZ0AAU,3YGE63DIOBDQKTHDUYZ9OUNPB7QW00,3X3OR7WPZ3GVD78BBQAOXI8EW0T8LK,2,1
121,4,object_04,object_10,626.59999999404,7,2,265.19999998808,0.7777777777777778,1,object_08,1,2022,0,7,0,restaurant_1,2,memory-2step-stake-s,609,2088570,0.0-19.0-0.0-0.121,A1BSVEBYDZ0AAU,3YGE63DIOBDQKTHDUYZ9OUNPB7QW00,3X3OR7WPZ3GVD78BBQAOXI8EW0T8LK,8,7
122,3,object_07,object_01,703.19999998808,5,1,300.19999998808,0.6666666666666666,1,object_08,5,2052,0,6,1,library_3,2,memory-2step-stake-s,610,2096687,0.0-19.0-0.0-0.122,A1BSVEBYDZ0AAU,3YGE63DIOBDQKTHDUYZ9OUNPB7QW00,3X3OR7WPZ3GVD78BBQAOXI8EW0T8LK,5,6
123,1,object_06,object_09,1069.900000006,1,1,300.60000002384,0.7777777777777778,1,object_08,5,2087,0,7,2,desert_6,2,memory-2step-stake-s,611,2104909,0.0-19.0-0.0-0.123,A1BSVEBYDZ0AAU,3YGE63DIOBDQKTHDUYZ9OUNPB7QW00,3X3OR7WPZ3GVD78BBQAOXI8EW0T8LK,1,2
124,2,object_03,object_02,641.09999999404,3,1,315.09999999404,0.6666666666666666,1,object_08,5,2117,0,6,1,forest_3,2,memory-2step-stake-s,612,2113041,0.0-19.0-0.0-0.124,A1BSVEBYDZ0AAU,3YGE63DIOBDQKTHDUYZ9OUNPB7QW00,3X3OR7WPZ3GVD78BBQAOXI8EW0T8LK,3,4
125,1,object_09,object_06,940.29999998212,1,2,228.0,1.0,1,object_08,5,2162,0,9,2,desert_3,2,memory-2step-stake-s,613,2121390,0.0-19.0-0.0-0.125,A1BSVEBYDZ0AAU,3YGE63DIOBDQKTHDUYZ9OUNPB7QW00,3X3OR7WPZ3GVD78BBQAOXI8EW0T8LK,2,1
126,4,object_04,object_10,609.40000000596,7,2,257.69999998808,0.8888888888888888,1,object_08,1,2170,0,8,3,restaurant_6,2,memory-2step-stake-s,614,2129664,0.0-19.0-0.0-0.126,A1BSVEBYDZ0AAU,3YGE63DIOBDQKTHDUYZ9OUNPB7QW00,3X3OR7WPZ3GVD78BBQAOXI8EW0T8LK,8,7
127,4,object_10,object_04,698.59999999404,7,1,325.89999997616,0.8888888888888888,1,object_08,1,2178,0,8,5,restaurant_2,2,memory-2step-stake-s,615,2138011,0.0-19.0-0.0-0.127,A1BSVEBYDZ0AAU,3YGE63DIOBDQKTHDUYZ9OUNPB7QW00,3X3OR7WPZ3GVD78BBQAOXI8EW0T8LK,7,8
128,4,object_10,object_04,513.29999998212,7,1,287.5,1.0,1,object_08,1,2187,0,9,5,restaurant_3,2,memory-2step-stake-s,617,2313321,0.0-19.0-0.1-0.128,A1BSVEBYDZ0AAU,3YGE63DIOBDQKTHDUYZ9OUNPB7QW00,3X3OR7WPZ3GVD78BBQAOXI8EW0T8LK,7,8
129,1,object_06,object_09,994.5,1,1,283.80000001192,0.8888888888888888,1,object_08,5,2227,0,8,7,desert_8,2,memory-2step-stake-s,618,2321622,0.0-19.0-0.1-0.129,A1BSVEBYDZ0AAU,3YGE63DIOBDQKTHDUYZ9OUNPB7QW00,3X3OR7WPZ3GVD78BBQAOXI8EW0T8LK,1,2
130,3,object_07,object_01,866.59999999404,5,1,425.59999999404,0.8888888888888888,1,object_08,1,2235,0,8,4,library_3,2,memory-2step-stake-s,619,2330071,0.0-19.0-0.1-0.130,A1BSVEBYDZ0AAU,3YGE63DIOBDQKTHDUYZ9OUNPB7QW00,3X3OR7WPZ3GVD78BBQAOXI8EW0T8LK,5,6
131,4,object_10,object_04,667.70000001788,7,1,256.09999999404,0.7777777777777778,1,object_08,1,2242,0,7,4,restaurant_3,2,memory-2step-stake-s,620,2338246,0.0-19.0-0.1-0.131,A1BSVEBYDZ0AAU,3YGE63DIOBDQKTHDUYZ9OUNPB7QW00,3X3OR7WPZ3GVD78BBQAOXI8EW0T8LK,7,8
132,2,object_03,object_02,691.59999999404,3,1,434.80000001192,0.5555555555555556,1,object_08,5,2267,0,5,2,forest_3,2,memory-2step-stake-s,621,2346397,0.0-19.0-0.1-0.132,A1BSVEBYDZ0AAU,3YGE63DIOBDQKTHDUYZ9OUNPB7QW00,3X3OR7WPZ3GVD78BBQAOXI8EW0T8LK,3,4
133,1,object_06,object_09,476.40000000596,1,1,470.80000001192,0.5555555555555556,1,object_08,1,2272,0,5,3,desert_5,2,memory-2step-stake-s,622,2354595,0.0-19.0-0.1-0.133,A1BSVEBYDZ0AAU,3YGE63DIOBDQKTHDUYZ9OUNPB7QW00,3X3OR7WPZ3GVD78BBQAOXI8EW0T8LK,1,2
134,3,object_07,object_01,621.90000000596,5,1,315.70000001788,0.8888888888888888,1,object_08,1,2280,0,8,3,library_4,2,memory-2step-stake-s,623,2362932,0.0-19.0-0.1-0.134,A1BSVEBYDZ0AAU,3YGE63DIOBDQKTHDUYZ9OUNPB7QW00,3X3OR7WPZ3GVD78BBQAOXI8EW0T8LK,5,6
135,2,object_02,object_03,640.0,3,2,329.0,0.8888888888888888,1,object_08,5,2320,0,8,1,forest_8,2,memory-2step-stake-s,624,2371279,0.0-19.0-0.1-0.135,A1BSVEBYDZ0AAU,3YGE63DIOBDQKTHDUYZ9OUNPB7QW00,3X3OR7WPZ3GVD78BBQAOXI8EW0T8LK,4,3
136,3,object_01,object_07,774.30000001192,5,2,607.19999998808,1.0,1,object_08,1,2329,0,9,4,library_5,2,memory-2step-stake-s,625,2380019,0.0-19.0-0.1-0.136,A1BSVEBYDZ0AAU,3YGE63DIOBDQKTHDUYZ9OUNPB7QW00,3X3OR7WPZ3GVD78BBQAOXI8EW0T8LK,6,5
137,2,object_03,object_02,692.40000000596,3,1,365.0,0.7777777777777778,1,object_08,1,2336,0,7,6,forest_5,2,memory-2step-stake-s,626,2388302,0.0-19.0-0.1-0.137,A1BSVEBYDZ0AAU,3YGE63DIOBDQKTHDUYZ9OUNPB7QW00,3X3OR7WPZ3GVD78BBQAOXI8EW0T8LK,3,4
138,1,object_06,object_09,776.80000001192,1,1,254.80000001192,1.0,1,object_08,5,2381,0,9,8,desert_3,2,memory-2step-stake-s,627,2396690,0.0-19.0-0.1-0.138,A1BSVEBYDZ0AAU,3YGE63DIOBDQKTHDUYZ9OUNPB7QW00,3X3OR7WPZ3GVD78BBQAOXI8EW0T8LK,1,2
139,4,object_04,object_10,683.70000001788,7,2,275.20000001788,0.8888888888888888,1,object_08,5,2421,0,8,8,restaurant_6,2,memory-2step-stake-s,628,2404986,0.0-19.0-0.1-0.139,A1BSVEBYDZ0AAU,3YGE63DIOBDQKTHDUYZ9OUNPB7QW00,3X3OR7WPZ3GVD78BBQAOXI8EW0T8LK,8,7
140,2,object_03,object_02,680.5,3,1,308.79999998212,0.6666666666666666,1,object_08,5,2451,0,6,7,forest_3,2,memory-2step-stake-s,629,2413113,0.0-19.0-0.1-0.140,A1BSVEBYDZ0AAU,3YGE63DIOBDQKTHDUYZ9OUNPB7QW00,3X3OR7WPZ3GVD78BBQAOXI8EW0T8LK,3,4
141,4,object_04,object_10,554.59999999404,7,2,320.69999998808,1.0,1,object_08,5,2496,0,9,7,restaurant_1,2,memory-2step-stake-s,630,2421552,0.0-19.0-0.1-0.141,A1BSVEBYDZ0AAU,3YGE63DIOBDQKTHDUYZ9OUNPB7QW00,3X3OR7WPZ3GVD78BBQAOXI8EW0T8LK,8,7
142,3,object_01,object_07,595.69999998808,5,2,297.09999999404,0.8888888888888888,1,object_08,5,2536,0,8,8,library_5,2,memory-2step-stake-s,631,2429884,0.0-19.0-0.1-0.142,A1BSVEBYDZ0AAU,3YGE63DIOBDQKTHDUYZ9OUNPB7QW00,3X3OR7WPZ3GVD78BBQAOXI8EW0T8LK,6,5
143,1,object_06,object_09,571.09999999404,1,1,372.30000001192,0.7777777777777778,1,object_08,5,2571,0,7,5,desert_3,2,memory-2step-stake-s,632,2438174,0.0-19.0-0.1-0.143,A1BSVEBYDZ0AAU,3YGE63DIOBDQKTHDUYZ9OUNPB7QW00,3X3OR7WPZ3GVD78BBQAOXI8EW0T8LK,1,2
144,4,object_04,object_10,495.0,7,2,286.90000000596,0.5555555555555556,1,object_08,1,2576,0,5,5,restaurant_1,2,memory-2step-stake-s,633,2446180,0.0-19.0-0.1-0.144,A1BSVEBYDZ0AAU,3YGE63DIOBDQKTHDUYZ9OUNPB7QW00,3X3OR7WPZ3GVD78BBQAOXI8EW0T8LK,8,7
145,2,object_03,object_02,647.40000000596,3,1,153.69999998808,0.5555555555555556,1,object_08,1,2581,0,5,5,forest_6,2,memory-2step-stake-s,634,2454051,0.0-19.0-0.1-0.145,A1BSVEBYDZ0AAU,3YGE63DIOBDQKTHDUYZ9OUNPB7QW00,3X3OR7WPZ3GVD78BBQAOXI8EW0T8LK,3,4
146,2,object_02,object_03,650.0,3,2,244.10000002384,0.7777777777777778,1,object_08,5,2616,0,7,8,forest_3,2,memory-2step-stake-s,635,2462228,0.0-19.0-0.1-0.146,A1BSVEBYDZ0AAU,3YGE63DIOBDQKTHDUYZ9OUNPB7QW00,3X3OR7WPZ3GVD78BBQAOXI8EW0T8LK,4,3
147,3,object_01,object_07,474.69999998808,5,2,272.09999999404,0.7777777777777778,1,object_08,1,2623,0,7,6,library_5,2,memory-2step-stake-s,636,2470424,0.0-19.0-0.1-0.147,A1BSVEBYDZ0AAU,3YGE63DIOBDQKTHDUYZ9OUNPB7QW00,3X3OR7WPZ3GVD78BBQAOXI8EW0T8LK,6,5
148,4,object_04,object_10,585.69999998808,7,2,240.19999998808,0.5555555555555556,1,object_08,1,2628,0,5,6,restaurant_6,2,memory-2step-stake-s,637,2478380,0.0-19.0-0.1-0.148,A1BSVEBYDZ0AAU,3YGE63DIOBDQKTHDUYZ9OUNPB7QW00,3X3OR7WPZ3GVD78BBQAOXI8EW0T8LK,8,7
149,2,object_02,object_03,600.30000001192,3,2,244.59999999404,0.2222222222222222,1,object_08,1,2630,0,2,8,forest_6,2,memory-2step-stake-s,638,2486037,0.0-19.0-0.1-0.149,A1BSVEBYDZ0AAU,3YGE63DIOBDQKTHDUYZ9OUNPB7QW00,3X3OR7WPZ3GVD78BBQAOXI8EW0T8LK,4,3
150,3,object_01,object_07,558.59999999404,6,1,260.40000000596,0.4444444444444444,2,object_05,5,2650,0,3,4,library_4,2,memory-2step-stake-s,639,2493912,0.0-19.0-0.1-0.150,A1BSVEBYDZ0AAU,3YGE63DIOBDQKTHDUYZ9OUNPB7QW00,3X3OR7WPZ3GVD78BBQAOXI8EW0T8LK,6,5
151,4,object_10,object_04,764.59999999404,8,2,192.79999998212,0.3333333333333333,2,object_05,5,2665,0,3,3,restaurant_6,2,memory-2step-stake-s,640,2501629,0.0-19.0-0.1-0.151,A1BSVEBYDZ0AAU,3YGE63DIOBDQKTHDUYZ9OUNPB7QW00,3X3OR7WPZ3GVD78BBQAOXI8EW0T8LK,7,8
152,3,object_07,object_01,662.59999999404,6,2,264.70000001788,0.4444444444444444,2,object_05,5,2685,0,4,4,library_3,2,memory-2step-stake-s,641,2509510,0.0-19.0-0.1-0.152,A1BSVEBYDZ0AAU,3YGE63DIOBDQKTHDUYZ9OUNPB7QW00,3X3OR7WPZ3GVD78BBQAOXI8EW0T8LK,5,6
153,4,object_10,object_04,602.90000000596,8,2,252.70000001788,0.6666666666666666,2,object_05,5,2715,0,3,6,restaurant_2,2,memory-2step-stake-s,642,2517582,0.0-19.0-0.1-0.153,A1BSVEBYDZ0AAU,3YGE63DIOBDQKTHDUYZ9OUNPB7QW00,3X3OR7WPZ3GVD78BBQAOXI8EW0T8LK,7,8
154,1,object_06,object_09,551.59999999404,2,2,267.90000000596,0.6666666666666666,2,object_05,5,2745,0,2,6,desert_5,2,memory-2step-stake-s,643,2525668,0.0-19.0-0.1-0.154,A1BSVEBYDZ0AAU,3YGE63DIOBDQKTHDUYZ9OUNPB7QW00,3X3OR7WPZ3GVD78BBQAOXI8EW0T8LK,1,2
155,2,object_02,object_03,1008.900000006,4,1,280.5,0.5555555555555556,2,object_05,5,2770,0,2,5,forest_8,2,memory-2step-stake-s,644,2533666,0.0-19.0-0.1-0.155,A1BSVEBYDZ0AAU,3YGE63DIOBDQKTHDUYZ9OUNPB7QW00,3X3OR7WPZ3GVD78BBQAOXI8EW0T8LK,4,3
156,4,object_10,object_04,715.09999999404,7,1,224.40000000596,0.2222222222222222,1,object_08,1,2772,0,2,7,restaurant_3,2,memory-2step-stake-s,645,2541304,0.0-19.0-0.1-0.156,A1BSVEBYDZ0AAU,3YGE63DIOBDQKTHDUYZ9OUNPB7QW00,3X3OR7WPZ3GVD78BBQAOXI8EW0T8LK,7,8
157,4,object_10,object_04,656.69999998808,8,2,233.40000000596,0.8888888888888888,2,object_05,1,2780,0,0,8,restaurant_3,2,memory-2step-stake-s,646,2549554,0.0-19.0-0.1-0.157,A1BSVEBYDZ0AAU,3YGE63DIOBDQKTHDUYZ9OUNPB7QW00,3X3OR7WPZ3GVD78BBQAOXI8EW0T8LK,7,8
158,2,object_02,object_03,910.79999998212,4,1,314.30000001192,0.8888888888888888,2,object_05,5,2820,0,3,8,forest_5,2,memory-2step-stake-s,647,2557883,0.0-19.0-0.1-0.158,A1BSVEBYDZ0AAU,3YGE63DIOBDQKTHDUYZ9OUNPB7QW00,3X3OR7WPZ3GVD78BBQAOXI8EW0T8LK,4,3
159,1,object_09,object_06,1176.7999999821,2,1,427.90000000596,0.7777777777777778,2,object_05,5,2855,0,0,7,desert_5,2,memory-2step-stake-s,648,2566228,0.0-19.0-0.1-0.159,A1BSVEBYDZ0AAU,3YGE63DIOBDQKTHDUYZ9OUNPB7QW00,3X3OR7WPZ3GVD78BBQAOXI8EW0T8LK,2,1
160,4,object_04,object_10,804.70000001788,8,1,432.90000000596,0.4444444444444444,2,object_05,1,2859,0,2,4,restaurant_3,2,memory-2step-stake-s,649,2574283,0.0-19.0-0.1-0.160,A1BSVEBYDZ0AAU,3YGE63DIOBDQKTHDUYZ9OUNPB7QW00,3X3OR7WPZ3GVD78BBQAOXI8EW0T8LK,8,7
161,3,object_07,object_01,1078.8000000119,6,2,333.59999999404,0.6666666666666666,2,object_05,1,2865,0,0,6,library_5,2,memory-2step-stake-s,650,2582433,0.0-19.0-0.1-0.161,A1BSVEBYDZ0AAU,3YGE63DIOBDQKTHDUYZ9OUNPB7QW00,3X3OR7WPZ3GVD78BBQAOXI8EW0T8LK,5,6
162,4,object_10,object_04,655.69999998808,8,2,332.09999999404,0.6666666666666666,2,object_05,1,2871,0,3,6,restaurant_3,2,memory-2step-stake-s,651,2590592,0.0-19.0-0.1-0.162,A1BSVEBYDZ0AAU,3YGE63DIOBDQKTHDUYZ9OUNPB7QW00,3X3OR7WPZ3GVD78BBQAOXI8EW0T8LK,7,8
163,3,object_01,object_07,1016.7000000179,6,1,280.10000002384,0.6666666666666666,2,object_05,1,2877,0,2,6,library_2,2,memory-2step-stake-s,652,2598692,0.0-19.0-0.1-0.163,A1BSVEBYDZ0AAU,3YGE63DIOBDQKTHDUYZ9OUNPB7QW00,3X3OR7WPZ3GVD78BBQAOXI8EW0T8LK,6,5
164,2,object_02,object_03,780.40000000596,4,1,263.30000001192,0.5555555555555556,2,object_05,1,2882,0,0,5,forest_8,2,memory-2step-stake-s,653,2606671,0.0-19.0-0.1-0.164,A1BSVEBYDZ0AAU,3YGE63DIOBDQKTHDUYZ9OUNPB7QW00,3X3OR7WPZ3GVD78BBQAOXI8EW0T8LK,4,3
165,2,object_02,object_03,767.80000001192,4,1,377.80000001192,0.5555555555555556,2,object_05,1,2887,0,2,5,forest_6,2,memory-2step-stake-s,654,2614764,0.0-19.0-0.1-0.165,A1BSVEBYDZ0AAU,3YGE63DIOBDQKTHDUYZ9OUNPB7QW00,3X3OR7WPZ3GVD78BBQAOXI8EW0T8LK,4,3
166,2,object_02,object_03,712.5,4,1,240.40000000596,0.5555555555555556,2,object_05,5,2912,0,1,5,forest_5,2,memory-2step-stake-s,655,2622717,0.0-19.0-0.1-0.166,A1BSVEBYDZ0AAU,3YGE63DIOBDQKTHDUYZ9OUNPB7QW00,3X3OR7WPZ3GVD78BBQAOXI8EW0T8LK,4,3
167,3,object_01,object_07,618.79999998212,6,1,361.09999999404,0.3333333333333333,2,object_05,5,2927,0,1,3,library_2,2,memory-2step-stake-s,656,2630594,0.0-19.0-0.1-0.167,A1BSVEBYDZ0AAU,3YGE63DIOBDQKTHDUYZ9OUNPB7QW00,3X3OR7WPZ3GVD78BBQAOXI8EW0T8LK,6,5
168,1,object_06,object_09,648.69999998808,1,1,280.5,0.2222222222222222,1,object_08,5,2937,0,2,6,desert_8,2,memory-2step-stake-s,657,2638287,0.0-19.0-0.1-0.168,A1BSVEBYDZ0AAU,3YGE63DIOBDQKTHDUYZ9OUNPB7QW00,3X3OR7WPZ3GVD78BBQAOXI8EW0T8LK,1,2
169,1,object_09,object_06,562.59999999404,2,1,247.20000001788,0.8888888888888888,2,object_05,5,2977,0,1,8,desert_6,2,memory-2step-stake-s,658,2646553,0.0-19.0-0.1-0.169,A1BSVEBYDZ0AAU,3YGE63DIOBDQKTHDUYZ9OUNPB7QW00,3X3OR7WPZ3GVD78BBQAOXI8EW0T8LK,2,1
170,2,object_02,object_03,1079.400000006,4,1,245.30000001192,0.7777777777777778,2,object_05,5,3012,0,1,7,forest_3,2,memory-2step-stake-s,659,2654717,0.0-19.0-0.1-0.170,A1BSVEBYDZ0AAU,3YGE63DIOBDQKTHDUYZ9OUNPB7QW00,3X3OR7WPZ3GVD78BBQAOXI8EW0T8LK,4,3
171,4,object_10,object_04,911.40000000596,8,2,363.0,0.6666666666666666,2,object_05,5,3042,0,1,6,restaurant_2,2,memory-2step-stake-s,660,2662895,0.0-19.0-0.1-0.171,A1BSVEBYDZ0AAU,3YGE63DIOBDQKTHDUYZ9OUNPB7QW00,3X3OR7WPZ3GVD78BBQAOXI8EW0T8LK,7,8
172,1,object_06,object_09,1069.900000006,2,2,339.90000000596,0.4444444444444444,2,object_05,5,3062,0,2,4,desert_3,2,memory-2step-stake-s,661,2670849,0.0-19.0-0.1-0.172,A1BSVEBYDZ0AAU,3YGE63DIOBDQKTHDUYZ9OUNPB7QW00,3X3OR7WPZ3GVD78BBQAOXI8EW0T8LK,1,2
173,1,object_06,object_09,544.60000002384,2,2,659.09999999404,0.3333333333333333,2,object_05,5,3077,0,7,3,desert_5,2,memory-2step-stake-s,662,2679023,0.0-19.0-0.1-0.173,A1BSVEBYDZ0AAU,3YGE63DIOBDQKTHDUYZ9OUNPB7QW00,3X3OR7WPZ3GVD78BBQAOXI8EW0T8LK,1,2
174,1,object_06,object_09,514.70000001788,1,1,245.60000002384,0.7777777777777778,1,object_08,5,3112,0,7,5,desert_5,2,memory-2step-stake-s,663,2687187,0.0-19.0-0.1-0.174,A1BSVEBYDZ0AAU,3YGE63DIOBDQKTHDUYZ9OUNPB7QW00,3X3OR7WPZ3GVD78BBQAOXI8EW0T8LK,1,2
175,2,object_02,object_03,848.5,3,2,267.70000001788,0.5555555555555556,1,object_08,1,3117,0,5,5,forest_5,2,memory-2step-stake-s,664,2695170,0.0-19.0-0.1-0.175,A1BSVEBYDZ0AAU,3YGE63DIOBDQKTHDUYZ9OUNPB7QW00,3X3OR7WPZ3GVD78BBQAOXI8EW0T8LK,4,3
176,2,object_02,object_03,557.80000001192,3,2,255.0,0.7777777777777778,1,object_08,5,3152,0,7,5,forest_3,2,memory-2step-stake-s,665,2703342,0.0-19.0-0.1-0.176,A1BSVEBYDZ0AAU,3YGE63DIOBDQKTHDUYZ9OUNPB7QW00,3X3OR7WPZ3GVD78BBQAOXI8EW0T8LK,4,3
177,3,object_07,object_01,660.30000001192,5,1,404.29999998212,0.6666666666666666,1,object_08,5,3182,0,6,7,library_4,2,memory-2step-stake-s,666,2711564,0.0-19.0-0.1-0.177,A1BSVEBYDZ0AAU,3YGE63DIOBDQKTHDUYZ9OUNPB7QW00,3X3OR7WPZ3GVD78BBQAOXI8EW0T8LK,5,6
178,2,object_03,object_02,669.59999999404,3,1,285.40000000596,0.4444444444444444,1,object_08,5,3202,0,4,9,forest_5,2,memory-2step-stake-s,667,2719466,0.0-19.0-0.1-0.178,A1BSVEBYDZ0AAU,3YGE63DIOBDQKTHDUYZ9OUNPB7QW00,3X3OR7WPZ3GVD78BBQAOXI8EW0T8LK,3,4
179,1,object_06,object_09,500.09999999404,1,1,63.299999982119,0.5555555555555556,1,object_08,1,3207,0,5,7,desert_6,2,memory-2step-stake-s,668,2727244,0.0-19.0-0.1-0.179,A1BSVEBYDZ0AAU,3YGE63DIOBDQKTHDUYZ9OUNPB7QW00,3X3OR7WPZ3GVD78BBQAOXI8EW0T8LK,1,2
180,3,object_07,object_01,774.0,6,2,293.90000000596,0.7777777777777778,2,object_05,1,3214,0,5,7,library_2,2,memory-2step-stake-s,669,2735453,0.0-19.0-0.1-0.180,A1BSVEBYDZ0AAU,3YGE63DIOBDQKTHDUYZ9OUNPB7QW00,3X3OR7WPZ3GVD78BBQAOXI8EW0T8LK,5,6
181,2,object_02,object_03,819.79999998212,4,1,249.09999999404,0.8888888888888888,2,object_05,5,3254,0,4,8,forest_8,2,memory-2step-stake-s,670,2743734,0.0-19.0-0.1-0.181,A1BSVEBYDZ0AAU,3YGE63DIOBDQKTHDUYZ9OUNPB7QW00,3X3OR7WPZ3GVD78BBQAOXI8EW0T8LK,4,3
182,2,object_02,object_03,767.90000000596,4,1,258.0,0.8888888888888888,2,object_05,5,3294,0,5,8,forest_3,2,memory-2step-stake-s,671,2752008,0.0-19.0-0.1-0.182,A1BSVEBYDZ0AAU,3YGE63DIOBDQKTHDUYZ9OUNPB7QW00,3X3OR7WPZ3GVD78BBQAOXI8EW0T8LK,4,3
183,4,object_04,object_10,804.79999998212,8,1,264.39999997616,0.8888888888888888,2,object_05,1,3302,0,5,8,restaurant_3,2,memory-2step-stake-s,672,2760293,0.0-19.0-0.1-0.183,A1BSVEBYDZ0AAU,3YGE63DIOBDQKTHDUYZ9OUNPB7QW00,3X3OR7WPZ3GVD78BBQAOXI8EW0T8LK,8,7
184,2,object_02,object_03,814.0,4,1,333.20000001788,0.8888888888888888,2,object_05,5,3342,0,4,8,forest_8,2,memory-2step-stake-s,673,2768657,0.0-19.0-0.1-0.184,A1BSVEBYDZ0AAU,3YGE63DIOBDQKTHDUYZ9OUNPB7QW00,3X3OR7WPZ3GVD78BBQAOXI8EW0T8LK,4,3
185,3,object_01,object_07,695.59999999404,6,1,300.5,1.0,2,object_05,1,3351,0,3,9,library_2,2,memory-2step-stake-s,674,2777091,0.0-19.0-0.1-0.185,A1BSVEBYDZ0AAU,3YGE63DIOBDQKTHDUYZ9OUNPB7QW00,3X3OR7WPZ3GVD78BBQAOXI8EW0T8LK,6,5
186,2,object_03,object_02,683.90000000596,4,2,423.59999999404,1.0,2,object_05,1,3360,0,4,9,forest_3,2,memory-2step-stake-s,675,2785636,0.0-19.0-0.1-0.186,A1BSVEBYDZ0AAU,3YGE63DIOBDQKTHDUYZ9OUNPB7QW00,3X3OR7WPZ3GVD78BBQAOXI8EW0T8LK,3,4
187,4,object_10,object_04,699.19999998808,8,2,233.30000001192,0.8888888888888888,2,object_05,1,3368,0,6,8,restaurant_2,2,memory-2step-stake-s,676,2793886,0.0-19.0-0.1-0.187,A1BSVEBYDZ0AAU,3YGE63DIOBDQKTHDUYZ9OUNPB7QW00,3X3OR7WPZ3GVD78BBQAOXI8EW0T8LK,7,8
188,2,object_02,object_03,973.60000002384,4,1,276.90000000596,0.8888888888888888,2,object_05,5,3408,0,4,8,forest_5,2,memory-2step-stake-s,677,2802197,0.0-19.0-0.1-0.188,A1BSVEBYDZ0AAU,3YGE63DIOBDQKTHDUYZ9OUNPB7QW00,3X3OR7WPZ3GVD78BBQAOXI8EW0T8LK,4,3
189,1,object_09,object_06,1183.599999994,2,1,336.60000002384,0.7777777777777778,2,object_05,1,3415,0,3,7,desert_3,2,memory-2step-stake-s,678,2810456,0.0-19.0-0.1-0.189,A1BSVEBYDZ0AAU,3YGE63DIOBDQKTHDUYZ9OUNPB7QW00,3X3OR7WPZ3GVD78BBQAOXI8EW0T8LK,2,1
190,4,object_04,object_10,747.80000001192,8,1,330.09999999404,0.4444444444444444,2,object_05,1,3419,0,1,4,restaurant_1,2,memory-2step-stake-s,679,2818401,0.0-19.0-0.1-0.190,A1BSVEBYDZ0AAU,3YGE63DIOBDQKTHDUYZ9OUNPB7QW00,3X3OR7WPZ3GVD78BBQAOXI8EW0T8LK,8,7
191,3,object_01,object_07,595.80000001192,6,1,312.29999998212,0.1111111111111111,2,object_05,1,3420,0,1,1,library_4,2,memory-2step-stake-s,680,2826026,0.0-19.0-0.1-0.191,A1BSVEBYDZ0AAU,3YGE63DIOBDQKTHDUYZ9OUNPB7QW00,3X3OR7WPZ3GVD78BBQAOXI8EW0T8LK,6,5
192,2,object_02,object_03,875.90000000596,3,2,278.0,0.0,1,object_08,5,3420,0,0,1,forest_6,2,memory-2step-stake-s,681,2833515,0.0-19.0-0.1-0.192,A1BSVEBYDZ0AAU,3YGE63DIOBDQKTHDUYZ9OUNPB7QW00,3X3OR7WPZ3GVD78BBQAOXI8EW0T8LK,4,3
193,1,object_09,object_06,626.20000001788,2,1,384.0,0.1111111111111111,2,object_05,5,3425,0,2,1,desert_5,2,memory-2step-stake-s,682,2841211,0.0-19.0-0.1-0.193,A1BSVEBYDZ0AAU,3YGE63DIOBDQKTHDUYZ9OUNPB7QW00,3X3OR7WPZ3GVD78BBQAOXI8EW0T8LK,2,1
194,4,object_10,object_04,683.90000000596,8,2,271.40000000596,0.4444444444444444,2,object_05,1,3429,0,1,4,restaurant_3,2,memory-2step-stake-s,683,2849096,0.0-19.0-0.1-0.194,A1BSVEBYDZ0AAU,3YGE63DIOBDQKTHDUYZ9OUNPB7QW00,3X3OR7WPZ3GVD78BBQAOXI8EW0T8LK,7,8
195,2,object_03,object_02,916.59999999404,4,2,409.19999998808,0.3333333333333333,2,object_05,5,3444,0,2,3,forest_8,2,memory-2step-stake-s,684,2857019,0.0-19.0-0.1-0.195,A1BSVEBYDZ0AAU,3YGE63DIOBDQKTHDUYZ9OUNPB7QW00,3X3OR7WPZ3GVD78BBQAOXI8EW0T8LK,3,4
196,3,object_07,object_01,964.20000001788,5,1,319.59999999404,0.3333333333333333,1,object_08,1,3447,0,3,2,library_3,2,memory-2step-stake-s,685,2864855,0.0-19.0-0.1-0.196,A1BSVEBYDZ0AAU,3YGE63DIOBDQKTHDUYZ9OUNPB7QW00,3X3OR7WPZ3GVD78BBQAOXI8EW0T8LK,5,6
197,1,object_09,object_06,627.40000000596,1,2,263.59999999404,0.1111111111111111,1,object_08,1,3448,0,1,1,desert_5,2,memory-2step-stake-s,686,2872430,0.0-19.0-0.1-0.197,A1BSVEBYDZ0AAU,3YGE63DIOBDQKTHDUYZ9OUNPB7QW00,3X3OR7WPZ3GVD78BBQAOXI8EW0T8LK,2,1
198,2,object_02,object_03,874.70000001788,4,1,282.80000001192,0.0,2,object_05,1,3448,0,1,0,forest_5,2,memory-2step-stake-s,687,2879925,0.0-19.0-0.1-0.198,A1BSVEBYDZ0AAU,3YGE63DIOBDQKTHDUYZ9OUNPB7QW00,3X3OR7WPZ3GVD78BBQAOXI8EW0T8LK,4,3
199,4,object_04,object_10,1026.2999999821,7,2,366.90000000596,0.0,1,object_08,5,3448,0,0,0,restaurant_2,2,memory-2step-stake-s,688,2887502,0.0-19.0-0.1-0.199,A1BSVEBYDZ0AAU,3YGE63DIOBDQKTHDUYZ9OUNPB7QW00,3X3OR7WPZ3GVD78BBQAOXI8EW0T8LK,8,7
200,3,object_01,object_07,648.40000000596,5,2,256.30000001192,0.0,1,object_08,1,3448,0,0,0,library_4,2,memory-2step-stake-s,689,2894971,0.0-19.0-0.1-0.200,A1BSVEBYDZ0AAU,3YGE63DIOBDQKTHDUYZ9OUNPB7QW00,3X3OR7WPZ3GVD78BBQAOXI8EW0T8LK,6,5
201,4,object_04,object_10,813.40000000596,8,1,287.79999998212,0.4444444444444444,2,object_05,5,3468,0,0,4,restaurant_6,2,memory-2step-stake-s,690,2902876,0.0-19.0-0.1-0.201,A1BSVEBYDZ0AAU,3YGE63DIOBDQKTHDUYZ9OUNPB7QW00,3X3OR7WPZ3GVD78BBQAOXI8EW0T8LK,8,7
202,1,object_06,object_09,610.19999998808,2,2,200.80000001192,0.6666666666666666,2,object_05,5,3498,0,2,6,desert_8,2,memory-2step-stake-s,691,2910892,0.0-19.0-0.1-0.202,A1BSVEBYDZ0AAU,3YGE63DIOBDQKTHDUYZ9OUNPB7QW00,3X3OR7WPZ3GVD78BBQAOXI8EW0T8LK,1,2
203,2,object_03,object_02,759.59999999404,4,2,197.29999998212,0.7777777777777778,2,object_05,1,3505,0,2,7,forest_8,2,memory-2step-stake-s,692,2919006,0.0-19.0-0.1-0.203,A1BSVEBYDZ0AAU,3YGE63DIOBDQKTHDUYZ9OUNPB7QW00,3X3OR7WPZ3GVD78BBQAOXI8EW0T8LK,3,4
204,2,object_03,object_02,524.5,4,2,289.19999998808,1.0,2,object_05,5,3550,0,2,9,forest_8,2,memory-2step-stake-s,693,2927415,0.0-19.0-0.1-0.204,A1BSVEBYDZ0AAU,3YGE63DIOBDQKTHDUYZ9OUNPB7QW00,3X3OR7WPZ3GVD78BBQAOXI8EW0T8LK,3,4
205,3,object_01,object_07,757.59999999404,6,1,257.69999998808,1.0,2,object_05,1,3559,0,1,9,library_2,2,memory-2step-stake-s,694,2935789,0.0-19.0-0.1-0.205,A1BSVEBYDZ0AAU,3YGE63DIOBDQKTHDUYZ9OUNPB7QW00,3X3OR7WPZ3GVD78BBQAOXI8EW0T8LK,6,5
206,3,object_07,object_01,841.5,6,2,207.09999999404,0.6666666666666666,2,object_05,1,3565,0,3,6,library_2,2,memory-2step-stake-s,695,2943815,0.0-19.0-0.1-0.206,A1BSVEBYDZ0AAU,3YGE63DIOBDQKTHDUYZ9OUNPB7QW00,3X3OR7WPZ3GVD78BBQAOXI8EW0T8LK,5,6
207,2,object_03,object_02,818.59999999404,4,2,327.5,0.6666666666666666,2,object_05,5,3595,0,5,6,forest_5,2,memory-2step-stake-s,696,2951961,0.0-19.0-0.1-0.207,A1BSVEBYDZ0AAU,3YGE63DIOBDQKTHDUYZ9OUNPB7QW00,3X3OR7WPZ3GVD78BBQAOXI8EW0T8LK,3,4
208,4,object_04,object_10,658.90000000596,8,1,235.90000000596,0.8888888888888888,2,object_05,1,3603,0,6,8,restaurant_6,2,memory-2step-stake-s,697,2960215,0.0-19.0-0.1-0.208,A1BSVEBYDZ0AAU,3YGE63DIOBDQKTHDUYZ9OUNPB7QW00,3X3OR7WPZ3GVD78BBQAOXI8EW0T8LK,8,7
209,4,object_10,object_04,688.59999999404,8,2,316.60000002384,0.6666666666666666,2,object_05,1,3609,0,8,6,restaurant_6,2,memory-2step-stake-s,698,2968349,0.0-19.0-0.1-0.209,A1BSVEBYDZ0AAU,3YGE63DIOBDQKTHDUYZ9OUNPB7QW00,3X3OR7WPZ3GVD78BBQAOXI8EW0T8LK,7,8
210,1,object_06,object_09,1111.099999994,2,2,330.09999999404,1.0,2,object_05,5,3654,0,7,9,desert_8,2,memory-2step-stake-s,699,2976803,0.0-19.0-0.1-0.210,A1BSVEBYDZ0AAU,3YGE63DIOBDQKTHDUYZ9OUNPB7QW00,3X3OR7WPZ3GVD78BBQAOXI8EW0T8LK,1,2
211,3,object_07,object_01,928.80000001192,6,2,385.40000000596,1.0,2,object_05,5,3699,0,3,9,library_2,2,memory-2step-stake-s,700,2985308,0.0-19.0-0.1-0.211,A1BSVEBYDZ0AAU,3YGE63DIOBDQKTHDUYZ9OUNPB7QW00,3X3OR7WPZ3GVD78BBQAOXI8EW0T8LK,5,6
212,4,object_10,object_04,612.09999999404,8,2,455.19999998808,0.7777777777777778,2,object_05,1,3706,0,5,7,restaurant_2,2,memory-2step-stake-s,701,2993686,0.0-19.0-0.1-0.212,A1BSVEBYDZ0AAU,3YGE63DIOBDQKTHDUYZ9OUNPB7QW00,3X3OR7WPZ3GVD78BBQAOXI8EW0T8LK,7,8
213,4,object_04,object_10,980.30000001192,8,1,352.90000000596,0.8888888888888888,2,object_05,1,3714,0,5,8,restaurant_1,2,memory-2step-stake-s,702,3002060,0.0-19.0-0.1-0.213,A1BSVEBYDZ0AAU,3YGE63DIOBDQKTHDUYZ9OUNPB7QW00,3X3OR7WPZ3GVD78BBQAOXI8EW0T8LK,8,7
214,4,object_04,object_10,745.59999999404,8,1,245.79999998212,1.0,2,object_05,1,3723,0,2,9,restaurant_6,2,memory-2step-stake-s,703,3010425,0.0-19.0-0.1-0.214,A1BSVEBYDZ0AAU,3YGE63DIOBDQKTHDUYZ9OUNPB7QW00,3X3OR7WPZ3GVD78BBQAOXI8EW0T8LK,8,7
215,1,object_09,object_06,922.5,2,1,270.40000000596,0.5555555555555556,2,object_05,5,3748,0,3,5,desert_8,2,memory-2step-stake-s,704,3018412,0.0-19.0-0.1-0.215,A1BSVEBYDZ0AAU,3YGE63DIOBDQKTHDUYZ9OUNPB7QW00,3X3OR7WPZ3GVD78BBQAOXI8EW0T8LK,2,1
216,3,object_07,object_01,688.90000000596,6,2,332.39999997616,0.3333333333333333,2,object_05,1,3751,0,1,3,library_2,2,memory-2step-stake-s,705,3026261,0.0-19.0-0.1-0.216,A1BSVEBYDZ0AAU,3YGE63DIOBDQKTHDUYZ9OUNPB7QW00,3X3OR7WPZ3GVD78BBQAOXI8EW0T8LK,5,6
217,1,object_06,object_09,555.80000001192,1,1,254.5,0.1111111111111111,1,object_08,5,3756,0,1,0,desert_5,2,memory-2step-stake-s,706,3033828,0.0-19.0-0.1-0.217,A1BSVEBYDZ0AAU,3YGE63DIOBDQKTHDUYZ9OUNPB7QW00,3X3OR7WPZ3GVD78BBQAOXI8EW0T8LK,1,2
218,2,object_03,object_02,981.89999997616,4,2,293.0,0.1111111111111111,2,object_05,5,3761,0,3,1,forest_6,2,memory-2step-stake-s,707,3041432,0.0-19.0-0.1-0.218,A1BSVEBYDZ0AAU,3YGE63DIOBDQKTHDUYZ9OUNPB7QW00,3X3OR7WPZ3GVD78BBQAOXI8EW0T8LK,3,4
219,3,object_07,object_01,961.30000001192,6,2,315.09999999404,0.0,2,object_05,5,3761,0,2,0,library_5,2,memory-2step-stake-s,708,3048959,0.0-19.0-0.1-0.219,A1BSVEBYDZ0AAU,3YGE63DIOBDQKTHDUYZ9OUNPB7QW00,3X3OR7WPZ3GVD78BBQAOXI8EW0T8LK,5,6
220,3,object_01,object_07,1041.599999994,5,2,341.69999998808,0.2222222222222222,1,object_08,5,3771,0,2,4,library_5,2,memory-2step-stake-s,709,3056721,0.0-19.0-0.1-0.220,A1BSVEBYDZ0AAU,3YGE63DIOBDQKTHDUYZ9OUNPB7QW00,3X3OR7WPZ3GVD78BBQAOXI8EW0T8LK,6,5
221,4,object_04,object_10,634.30000001192,7,2,314.19999998808,0.1111111111111111,1,object_08,1,3772,0,1,3,restaurant_6,2,memory-2step-stake-s,710,3064345,0.0-19.0-0.1-0.221,A1BSVEBYDZ0AAU,3YGE63DIOBDQKTHDUYZ9OUNPB7QW00,3X3OR7WPZ3GVD78BBQAOXI8EW0T8LK,8,7
222,1,object_09,object_06,655.79999998212,2,1,259.69999998808,0.3333333333333333,2,object_05,1,3775,0,4,3,desert_8,2,memory-2step-stake-s,711,3072120,0.0-19.0-0.1-0.222,A1BSVEBYDZ0AAU,3YGE63DIOBDQKTHDUYZ9OUNPB7QW00,3X3OR7WPZ3GVD78BBQAOXI8EW0T8LK,2,1
223,2,object_03,object_02,709.5,4,2,230.80000001192,0.3333333333333333,2,object_05,1,3778,0,4,3,forest_8,2,memory-2step-stake-s,712,3079868,0.0-19.0-0.1-0.223,A1BSVEBYDZ0AAU,3YGE63DIOBDQKTHDUYZ9OUNPB7QW00,3X3OR7WPZ3GVD78BBQAOXI8EW0T8LK,3,4
224,3,object_01,object_07,637.40000000596,6,1,383.69999998808,0.1111111111111111,2,object_05,1,3779,0,4,1,library_2,2,memory-2step-stake-s,713,3087563,0.0-19.0-0.1-0.224,A1BSVEBYDZ0AAU,3YGE63DIOBDQKTHDUYZ9OUNPB7QW00,3X3OR7WPZ3GVD78BBQAOXI8EW0T8LK,6,5
225,1,object_09,object_06,709.5,1,2,290.79999998212,0.5555555555555556,1,object_08,1,3784,0,5,2,desert_6,2,memory-2step-stake-s,714,3095569,0.0-19.0-0.1-0.225,A1BSVEBYDZ0AAU,3YGE63DIOBDQKTHDUYZ9OUNPB7QW00,3X3OR7WPZ3GVD78BBQAOXI8EW0T8LK,2,1
226,2,object_02,object_03,682.5,3,2,311.90000000596,0.5555555555555556,1,object_08,5,3809,0,5,6,forest_6,2,memory-2step-stake-s,715,3103597,0.0-19.0-0.1-0.226,A1BSVEBYDZ0AAU,3YGE63DIOBDQKTHDUYZ9OUNPB7QW00,3X3OR7WPZ3GVD78BBQAOXI8EW0T8LK,4,3
227,2,object_02,object_03,668.29999998212,3,2,227.90000000596,0.1111111111111111,1,object_08,1,3810,0,1,5,forest_5,2,memory-2step-stake-s,716,3111136,0.0-19.0-0.1-0.227,A1BSVEBYDZ0AAU,3YGE63DIOBDQKTHDUYZ9OUNPB7QW00,3X3OR7WPZ3GVD78BBQAOXI8EW0T8LK,4,3
228,4,object_04,object_10,449.5,7,2,256.19999998808,0.1111111111111111,1,object_08,5,3815,0,1,3,restaurant_2,2,memory-2step-stake-s,717,3118706,0.0-19.0-0.1-0.228,A1BSVEBYDZ0AAU,3YGE63DIOBDQKTHDUYZ9OUNPB7QW00,3X3OR7WPZ3GVD78BBQAOXI8EW0T8LK,8,7
229,1,object_09,object_06,587.80000001192,2,1,225.10000002384,0.4444444444444444,2,object_05,5,3835,0,1,4,desert_3,2,memory-2step-stake-s,718,3126547,0.0-19.0-0.1-0.229,A1BSVEBYDZ0AAU,3YGE63DIOBDQKTHDUYZ9OUNPB7QW00,3X3OR7WPZ3GVD78BBQAOXI8EW0T8LK,2,1
230,2,object_03,object_02,784.60000002384,3,1,266.0,0.1111111111111111,1,object_08,5,3840,0,1,5,forest_6,2,memory-2step-stake-s,719,3134129,0.0-19.0-0.1-0.230,A1BSVEBYDZ0AAU,3YGE63DIOBDQKTHDUYZ9OUNPB7QW00,3X3OR7WPZ3GVD78BBQAOXI8EW0T8LK,3,4
231,2,object_02,object_03,837.0,4,1,245.79999998212,0.2222222222222222,2,object_05,5,3850,0,0,2,forest_6,2,memory-2step-stake-s,720,3141787,0.0-19.0-0.1-0.231,A1BSVEBYDZ0AAU,3YGE63DIOBDQKTHDUYZ9OUNPB7QW00,3X3OR7WPZ3GVD78BBQAOXI8EW0T8LK,4,3
232,3,object_07,object_01,621.40000000596,6,2,546.0,0.5555555555555556,2,object_05,1,3855,0,2,5,library_4,2,memory-2step-stake-s,721,3150050,0.0-19.0-0.1-0.232,A1BSVEBYDZ0AAU,3YGE63DIOBDQKTHDUYZ9OUNPB7QW00,3X3OR7WPZ3GVD78BBQAOXI8EW0T8LK,5,6
233,1,object_06,object_09,704.0,2,2,269.90000000596,0.1111111111111111,2,object_05,5,3860,0,3,1,desert_3,2,memory-2step-stake-s,722,3157631,0.0-19.0-0.1-0.233,A1BSVEBYDZ0AAU,3YGE63DIOBDQKTHDUYZ9OUNPB7QW00,3X3OR7WPZ3GVD78BBQAOXI8EW0T8LK,1,2
234,1,object_06,object_09,644.59999999404,2,2,299.0,0.1111111111111111,2,object_05,1,3861,0,3,1,desert_8,2,memory-2step-stake-s,723,3165254,0.0-19.0-0.1-0.234,A1BSVEBYDZ0AAU,3YGE63DIOBDQKTHDUYZ9OUNPB7QW00,3X3OR7WPZ3GVD78BBQAOXI8EW0T8LK,1,2
235,3,object_01,object_07,598.69999998808,5,2,275.19999998808,0.5555555555555556,1,object_08,5,3886,0,5,1,library_4,2,memory-2step-stake-s,724,3173253,0.0-19.0-0.1-0.235,A1BSVEBYDZ0AAU,3YGE63DIOBDQKTHDUYZ9OUNPB7QW00,3X3OR7WPZ3GVD78BBQAOXI8EW0T8LK,6,5
236,1,object_09,object_06,1018.0,1,2,310.40000000596,0.5555555555555556,1,object_08,5,3911,0,5,1,desert_5,2,memory-2step-stake-s,725,3181293,0.0-19.0-0.1-0.236,A1BSVEBYDZ0AAU,3YGE63DIOBDQKTHDUYZ9OUNPB7QW00,3X3OR7WPZ3GVD78BBQAOXI8EW0T8LK,2,1
237,4,object_04,object_10,861.70000001788,7,2,290.30000001192,1.0,1,object_08,1,3920,0,9,3,restaurant_2,2,memory-2step-stake-s,726,3189703,0.0-19.0-0.1-0.237,A1BSVEBYDZ0AAU,3YGE63DIOBDQKTHDUYZ9OUNPB7QW00,3X3OR7WPZ3GVD78BBQAOXI8EW0T8LK,8,7
238,3,object_07,object_01,704.30000001192,5,1,329.29999998212,1.0,1,object_08,1,3929,0,9,5,library_3,2,memory-2step-stake-s,727,3198162,0.0-19.0-0.1-0.238,A1BSVEBYDZ0AAU,3YGE63DIOBDQKTHDUYZ9OUNPB7QW00,3X3OR7WPZ3GVD78BBQAOXI8EW0T8LK,5,6
239,1,object_09,object_06,592.79999998212,1,2,292.5,0.8888888888888888,1,object_08,5,3969,0,8,4,desert_3,2,memory-2step-stake-s,728,3206473,0.0-19.0-0.1-0.239,A1BSVEBYDZ0AAU,3YGE63DIOBDQKTHDUYZ9OUNPB7QW00,3X3OR7WPZ3GVD78BBQAOXI8EW0T8LK,2,1
240,3,object_07,object_01,734.5,5,1,314.30000001192,0.7777777777777778,1,object_08,1,3976,0,7,2,library_2,2,memory-2step-stake-s,729,3214706,0.0-19.0-0.1-0.240,A1BSVEBYDZ0AAU,3YGE63DIOBDQKTHDUYZ9OUNPB7QW00,3X3OR7WPZ3GVD78BBQAOXI8EW0T8LK,5,6
241,1,object_06,object_09,808.59999999404,1,1,196.40000000596,0.6666666666666666,1,object_08,5,4006,0,6,2,desert_3,2,memory-2step-stake-s,730,3222719,0.0-19.0-0.1-0.241,A1BSVEBYDZ0AAU,3YGE63DIOBDQKTHDUYZ9OUNPB7QW00,3X3OR7WPZ3GVD78BBQAOXI8EW0T8LK,1,2
242,1,object_09,object_06,733.60000002384,1,2,233.5,0.8888888888888888,1,object_08,5,4046,0,8,2,desert_3,2,memory-2step-stake-s,731,3230972,0.0-19.0-0.1-0.242,A1BSVEBYDZ0AAU,3YGE63DIOBDQKTHDUYZ9OUNPB7QW00,3X3OR7WPZ3GVD78BBQAOXI8EW0T8LK,2,1
243,4,object_04,object_10,789.69999998808,7,2,341.69999998808,0.6666666666666666,1,object_08,1,4052,0,6,6,restaurant_3,2,memory-2step-stake-s,732,3239131,0.0-19.0-0.1-0.243,A1BSVEBYDZ0AAU,3YGE63DIOBDQKTHDUYZ9OUNPB7QW00,3X3OR7WPZ3GVD78BBQAOXI8EW0T8LK,8,7
244,2,object_02,object_03,1001.400000006,3,2,298.0,0.7777777777777778,1,object_08,1,4059,0,7,8,forest_3,2,memory-2step-stake-s,733,3247345,0.0-19.0-0.1-0.244,A1BSVEBYDZ0AAU,3YGE63DIOBDQKTHDUYZ9OUNPB7QW00,3X3OR7WPZ3GVD78BBQAOXI8EW0T8LK,4,3
245,3,object_01,object_07,678.80000001192,5,2,338.0,0.3333333333333333,1,object_08,1,4062,0,3,7,library_3,2,memory-2step-stake-s,734,3255198,0.0-19.0-0.1-0.245,A1BSVEBYDZ0AAU,3YGE63DIOBDQKTHDUYZ9OUNPB7QW00,3X3OR7WPZ3GVD78BBQAOXI8EW0T8LK,6,5
246,2,object_03,object_02,989.40000000596,4,2,295.69999998808,0.8888888888888888,2,object_05,5,4102,0,5,8,forest_3,2,memory-2step-stake-s,735,3263509,0.0-19.0-0.1-0.246,A1BSVEBYDZ0AAU,3YGE63DIOBDQKTHDUYZ9OUNPB7QW00,3X3OR7WPZ3GVD78BBQAOXI8EW0T8LK,3,4
247,4,object_10,object_04,708.09999999404,8,2,258.79999998212,0.8888888888888888,2,object_05,5,4142,0,3,8,restaurant_1,2,memory-2step-stake-s,736,3271788,0.0-19.0-0.1-0.247,A1BSVEBYDZ0AAU,3YGE63DIOBDQKTHDUYZ9OUNPB7QW00,3X3OR7WPZ3GVD78BBQAOXI8EW0T8LK,7,8
248,4,object_10,object_04,703.90000000596,8,2,299.70000001788,0.6666666666666666,2,object_05,5,4172,0,2,6,restaurant_6,2,memory-2step-stake-s,737,3279907,0.0-19.0-0.1-0.248,A1BSVEBYDZ0AAU,3YGE63DIOBDQKTHDUYZ9OUNPB7QW00,3X3OR7WPZ3GVD78BBQAOXI8EW0T8LK,7,8
249,2,object_02,object_03,-1.0,-1,-1,-1.0,0.0,-,0,5,4172,0,2,6,forest_5,2,memory-2step-stake-s,738,3286411,0.0-19.0-0.1-0.249,A1BSVEBYDZ0AAU,3YGE63DIOBDQKTHDUYZ9OUNPB7QW00,3X3OR7WPZ3GVD78BBQAOXI8EW0T8LK,4,3
250,4,object_04,object_10,887.90000000596,8,1,284.80000001192,0.8888888888888888,2,object_05,5,4212,0,3,8,restaurant_1,2,memory-2step-stake-s,739,3294715,0.0-19.0-0.1-0.250,A1BSVEBYDZ0AAU,3YGE63DIOBDQKTHDUYZ9OUNPB7QW00,3X3OR7WPZ3GVD78BBQAOXI8EW0T8LK,8,7
251,3,object_01,object_07,1131.400000006,5,2,339.59999999404,0.4444444444444444,1,object_08,5,4232,0,4,6,library_4,2,memory-2step-stake-s,740,3302676,0.0-19.0-0.1-0.251,A1BSVEBYDZ0AAU,3YGE63DIOBDQKTHDUYZ9OUNPB7QW00,3X3OR7WPZ3GVD78BBQAOXI8EW0T8LK,6,5
252,4,object_04,object_10,688.5,8,1,214.39999997616,0.7777777777777778,2,object_05,1,4239,0,4,7,restaurant_1,2,memory-2step-stake-s,741,3310810,0.0-19.0-0.1-0.252,A1BSVEBYDZ0AAU,3YGE63DIOBDQKTHDUYZ9OUNPB7QW00,3X3OR7WPZ3GVD78BBQAOXI8EW0T8LK,8,7
253,1,object_09,object_06,701.40000000596,2,1,247.80000001192,0.5555555555555556,2,object_05,5,4264,0,7,5,desert_5,2,memory-2step-stake-s,742,3318772,0.0-19.0-0.1-0.253,A1BSVEBYDZ0AAU,3YGE63DIOBDQKTHDUYZ9OUNPB7QW00,3X3OR7WPZ3GVD78BBQAOXI8EW0T8LK,2,1
254,3,object_01,object_07,616.09999999404,6,1,319.30000001192,0.3333333333333333,2,object_05,1,4267,0,5,3,library_5,2,memory-2step-stake-s,743,3326606,0.0-19.0-0.1-0.254,A1BSVEBYDZ0AAU,3YGE63DIOBDQKTHDUYZ9OUNPB7QW00,3X3OR7WPZ3GVD78BBQAOXI8EW0T8LK,6,5
255,4,object_04,object_10,470.0,7,2,83.0,0.5555555555555556,1,object_08,1,4272,0,5,2,restaurant_2,2,memory-2step-stake-s,744,3334437,0.0-19.0-0.1-0.255,A1BSVEBYDZ0AAU,3YGE63DIOBDQKTHDUYZ9OUNPB7QW00,3X3OR7WPZ3GVD78BBQAOXI8EW0T8LK,8,7
