,state1,stim_left,stim_right,rt_1,choice1,response1,rt_2,points,state2,stim_state2,stake,score,practice,rews1,rews2,background,high_arm,trial_type,trial_index,time_elapsed,internal_node_id,subid,hitid,assignmentid,stim_left_num,stim_right_num
0,4,object_03,object_01,741.79999999981,8,1,1039.9000000004,0.1111111111111111,2,object_04,1,1,0,2,1,restaurant_8,2,memory-2step-stake-s,506,908206,0.0-19.0-0.0-0.0,A17TKHT8FEVH0R,3A3KKYU7Q6XNN7OKJ3M7MRU2CR5MWB,3KXIR214I8WOTKZ1PH261AT0G7Y24O,8,7
1,3,object_05,object_06,-1.0,-1,-1,-1.0,0.0,-,0,1,1,0,2,3,library_5,2,memory-2step-stake-s,507,914716,0.0-19.0-0.0-0.1,A17TKHT8FEVH0R,3A3KKYU7Q6XNN7OKJ3M7MRU2CR5MWB,3KXIR214I8WOTKZ1PH261AT0G7Y24O,6,5
2,1,object_02,object_09,354.89999999944,1,1,187.90000000037,0.1111111111111111,1,object_10,5,6,0,1,1,desert_3,2,memory-2step-stake-s,508,922220,0.0-19.0-0.0-0.2,A17TKHT8FEVH0R,3A3KKYU7Q6XNN7OKJ3M7MRU2CR5MWB,3KXIR214I8WOTKZ1PH261AT0G7Y24O,1,2
3,1,object_02,object_09,362.09999999963,2,2,309.40000000037,0.1111111111111111,2,object_04,5,11,0,1,1,desert_6,2,memory-2step-stake-s,509,929844,0.0-19.0-0.0-0.3,A17TKHT8FEVH0R,3A3KKYU7Q6XNN7OKJ3M7MRU2CR5MWB,3KXIR214I8WOTKZ1PH261AT0G7Y24O,1,2
4,2,object_07,object_08,281.70000000019,3,1,564.40000000037,0.2222222222222222,1,object_10,5,21,0,2,2,forest_1,2,memory-2step-stake-s,510,937824,0.0-19.0-0.0-0.4,A17TKHT8FEVH0R,3A3KKYU7Q6XNN7OKJ3M7MRU2CR5MWB,3KXIR214I8WOTKZ1PH261AT0G7Y24O,3,4
5,3,object_06,object_05,319.5,6,2,1025.5999999996,0.5555555555555556,2,object_04,1,26,0,4,5,library_6,2,memory-2step-stake-s,511,946568,0.0-19.0-0.0-0.5,A17TKHT8FEVH0R,3A3KKYU7Q6XNN7OKJ3M7MRU2CR5MWB,3KXIR214I8WOTKZ1PH261AT0G7Y24O,5,6
6,2,object_07,object_08,631.89999999944,3,1,625.19999999925,0.2222222222222222,1,object_10,1,28,0,2,6,forest_8,2,memory-2step-stake-s,512,954609,0.0-19.0-0.0-0.6,A17TKHT8FEVH0R,3A3KKYU7Q6XNN7OKJ3M7MRU2CR5MWB,3KXIR214I8WOTKZ1PH261AT0G7Y24O,3,4
7,2,object_08,object_07,558.19999999925,3,2,521.29999999981,0.1111111111111111,1,object_10,5,33,0,1,7,forest_4,2,memory-2step-stake-s,513,962443,0.0-19.0-0.0-0.7,A17TKHT8FEVH0R,3A3KKYU7Q6XNN7OKJ3M7MRU2CR5MWB,3KXIR214I8WOTKZ1PH261AT0G7Y24O,4,3
8,2,object_07,object_08,419.59999999963,4,2,240.5,0.7777777777777778,2,object_04,5,68,0,1,7,forest_1,2,memory-2step-stake-s,514,970605,0.0-19.0-0.0-0.8,A17TKHT8FEVH0R,3A3KKYU7Q6XNN7OKJ3M7MRU2CR5MWB,3KXIR214I8WOTKZ1PH261AT0G7Y24O,3,4
9,4,object_03,object_01,282.19999999925,8,1,364.89999999944,0.8888888888888888,2,object_04,5,108,0,2,8,restaurant_5,2,memory-2step-stake-s,515,978991,0.0-19.0-0.0-0.9,A17TKHT8FEVH0R,3A3KKYU7Q6XNN7OKJ3M7MRU2CR5MWB,3KXIR214I8WOTKZ1PH261AT0G7Y24O,8,7
10,2,object_08,object_07,729.39999999944,3,2,493.19999999925,0.3333333333333333,1,object_10,5,123,0,3,8,forest_1,2,memory-2step-stake-s,516,986998,0.0-19.0-0.0-0.10,A17TKHT8FEVH0R,3A3KKYU7Q6XNN7OKJ3M7MRU2CR5MWB,3KXIR214I8WOTKZ1PH261AT0G7Y24O,4,3
11,1,object_09,object_02,392.19999999925,2,1,420.59999999963,0.6666666666666666,2,object_04,1,129,0,4,6,desert_4,2,memory-2step-stake-s,517,995241,0.0-19.0-0.0-0.11,A17TKHT8FEVH0R,3A3KKYU7Q6XNN7OKJ3M7MRU2CR5MWB,3KXIR214I8WOTKZ1PH261AT0G7Y24O,2,1
12,1,object_02,object_09,993.5,2,2,356.5,1.0,2,object_04,5,174,0,8,9,desert_6,2,memory-2step-stake-s,518,1003744,0.0-19.0-0.0-0.12,A17TKHT8FEVH0R,3A3KKYU7Q6XNN7OKJ3M7MRU2CR5MWB,3KXIR214I8WOTKZ1PH261AT0G7Y24O,1,2
13,3,object_06,object_05,399.29999999981,5,1,379.70000000019,0.8888888888888888,1,object_10,1,182,0,8,8,library_5,2,memory-2step-stake-s,519,1012367,0.0-19.0-0.0-0.13,A17TKHT8FEVH0R,3A3KKYU7Q6XNN7OKJ3M7MRU2CR5MWB,3KXIR214I8WOTKZ1PH261AT0G7Y24O,5,6
14,1,object_02,object_09,345.0,1,1,339.90000000037,0.8888888888888888,1,object_10,5,222,0,8,9,desert_4,2,memory-2step-stake-s,520,1020748,0.0-19.0-0.0-0.14,A17TKHT8FEVH0R,3A3KKYU7Q6XNN7OKJ3M7MRU2CR5MWB,3KXIR214I8WOTKZ1PH261AT0G7Y24O,1,2
15,4,object_03,object_01,1410.4000000004,7,2,-1.0,0.0,1,object_10,1,222,0,6,6,restaurant_4,2,memory-2step-stake-s,521,1029263,0.0-19.0-0.0-0.15,A17TKHT8FEVH0R,3A3KKYU7Q6XNN7OKJ3M7MRU2CR5MWB,3KXIR214I8WOTKZ1PH261AT0G7Y24O,8,7
16,4,object_03,object_01,808.20000000019,8,1,-1.0,0.0,2,object_04,5,222,0,4,7,restaurant_8,2,memory-2step-stake-s,522,1037775,0.0-19.0-0.0-0.16,A17TKHT8FEVH0R,3A3KKYU7Q6XNN7OKJ3M7MRU2CR5MWB,3KXIR214I8WOTKZ1PH261AT0G7Y24O,8,7
17,1,object_09,object_02,1480.5999999996,2,1,-1.0,0.0,2,object_04,1,222,0,2,5,desert_5,2,memory-2step-stake-s,523,1046287,0.0-19.0-0.0-0.17,A17TKHT8FEVH0R,3A3KKYU7Q6XNN7OKJ3M7MRU2CR5MWB,3KXIR214I8WOTKZ1PH261AT0G7Y24O,2,1
18,1,object_09,object_02,1361.2999999998,2,1,-1.0,0.0,2,object_04,5,222,0,5,2,desert_5,2,memory-2step-stake-s,524,1054800,0.0-19.0-0.0-0.18,A17TKHT8FEVH0R,3A3KKYU7Q6XNN7OKJ3M7MRU2CR5MWB,3KXIR214I8WOTKZ1PH261AT0G7Y24O,2,1
19,1,object_02,object_09,1038.7999999998,2,2,658.10000000056,0.2222222222222222,2,object_04,1,224,0,8,2,desert_5,2,memory-2step-stake-s,525,1062873,0.0-19.0-0.0-0.19,A17TKHT8FEVH0R,3A3KKYU7Q6XNN7OKJ3M7MRU2CR5MWB,3KXIR214I8WOTKZ1PH261AT0G7Y24O,1,2
20,1,object_02,object_09,662.29999999981,2,2,962.09999999963,0.4444444444444444,2,object_04,5,244,0,7,4,desert_6,2,memory-2step-stake-s,526,1071457,0.0-19.0-0.0-0.20,A17TKHT8FEVH0R,3A3KKYU7Q6XNN7OKJ3M7MRU2CR5MWB,3KXIR214I8WOTKZ1PH261AT0G7Y24O,1,2
21,2,object_07,object_08,1215.0999999996,4,2,-1.0,0.0,2,object_04,5,244,0,8,7,forest_7,2,memory-2step-stake-s,527,1079975,0.0-19.0-0.0-0.21,A17TKHT8FEVH0R,3A3KKYU7Q6XNN7OKJ3M7MRU2CR5MWB,3KXIR214I8WOTKZ1PH261AT0G7Y24O,3,4
22,1,object_02,object_09,679.29999999981,1,1,764.79999999981,0.8888888888888888,1,object_10,5,284,0,8,6,desert_3,2,memory-2step-stake-s,528,1088762,0.0-19.0-0.0-0.22,A17TKHT8FEVH0R,3A3KKYU7Q6XNN7OKJ3M7MRU2CR5MWB,3KXIR214I8WOTKZ1PH261AT0G7Y24O,1,2
23,1,object_09,object_02,365.39999999944,1,2,464.59999999963,0.5555555555555556,1,object_10,1,289,0,5,6,desert_3,2,memory-2step-stake-s,529,1096945,0.0-19.0-0.0-0.23,A17TKHT8FEVH0R,3A3KKYU7Q6XNN7OKJ3M7MRU2CR5MWB,3KXIR214I8WOTKZ1PH261AT0G7Y24O,2,1
24,3,object_06,object_05,1301.8999999994,6,2,600.70000000019,0.8888888888888888,2,object_04,1,297,0,4,8,library_6,2,memory-2step-stake-s,530,1105570,0.0-19.0-0.0-0.24,A17TKHT8FEVH0R,3A3KKYU7Q6XNN7OKJ3M7MRU2CR5MWB,3KXIR214I8WOTKZ1PH261AT0G7Y24O,5,6
25,1,object_02,object_09,740.40000000037,2,2,302.70000000019,0.4444444444444444,2,object_04,5,317,0,6,4,desert_3,2,memory-2step-stake-s,531,1113490,0.0-19.0-0.0-0.25,A17TKHT8FEVH0R,3A3KKYU7Q6XNN7OKJ3M7MRU2CR5MWB,3KXIR214I8WOTKZ1PH261AT0G7Y24O,1,2
26,2,object_07,object_08,1318.0,4,2,577.39999999944,0.1111111111111111,2,object_04,5,322,0,6,1,forest_4,2,memory-2step-stake-s,532,1121380,0.0-19.0-0.0-0.26,A17TKHT8FEVH0R,3A3KKYU7Q6XNN7OKJ3M7MRU2CR5MWB,3KXIR214I8WOTKZ1PH261AT0G7Y24O,3,4
27,1,object_02,object_09,827.20000000019,2,2,782.60000000056,0.0,2,object_04,5,322,0,7,0,desert_5,2,memory-2step-stake-s,533,1129375,0.0-19.0-0.0-0.27,A17TKHT8FEVH0R,3A3KKYU7Q6XNN7OKJ3M7MRU2CR5MWB,3KXIR214I8WOTKZ1PH261AT0G7Y24O,1,2
28,4,object_01,object_03,872.09999999963,8,2,572.89999999944,0.1111111111111111,2,object_04,1,323,0,7,1,restaurant_4,2,memory-2step-stake-s,534,1137261,0.0-19.0-0.0-0.28,A17TKHT8FEVH0R,3A3KKYU7Q6XNN7OKJ3M7MRU2CR5MWB,3KXIR214I8WOTKZ1PH261AT0G7Y24O,7,8
29,4,object_01,object_03,681.79999999981,7,1,636.0,0.7777777777777778,1,object_10,5,358,0,7,1,restaurant_5,2,memory-2step-stake-s,535,1145818,0.0-19.0-0.0-0.29,A17TKHT8FEVH0R,3A3KKYU7Q6XNN7OKJ3M7MRU2CR5MWB,3KXIR214I8WOTKZ1PH261AT0G7Y24O,7,8
30,2,object_07,object_08,768.79999999981,3,1,435.10000000056,1.0,1,object_10,5,403,0,9,0,forest_7,2,memory-2step-stake-s,536,1154396,0.0-19.0-0.0-0.30,A17TKHT8FEVH0R,3A3KKYU7Q6XNN7OKJ3M7MRU2CR5MWB,3KXIR214I8WOTKZ1PH261AT0G7Y24O,3,4
31,4,object_01,object_03,489.20000000019,8,2,444.29999999981,0.2222222222222222,2,object_04,5,413,0,9,2,restaurant_5,2,memory-2step-stake-s,537,1162257,0.0-19.0-0.0-0.31,A17TKHT8FEVH0R,3A3KKYU7Q6XNN7OKJ3M7MRU2CR5MWB,3KXIR214I8WOTKZ1PH261AT0G7Y24O,7,8
32,1,object_02,object_09,421.10000000056,2,2,344.0,0.2222222222222222,2,object_04,5,423,0,8,2,desert_5,2,memory-2step-stake-s,538,1170025,0.0-19.0-0.0-0.32,A17TKHT8FEVH0R,3A3KKYU7Q6XNN7OKJ3M7MRU2CR5MWB,3KXIR214I8WOTKZ1PH261AT0G7Y24O,1,2
33,4,object_03,object_01,1119.5,7,2,513.59999999963,0.8888888888888888,1,object_10,1,431,0,8,1,restaurant_4,2,memory-2step-stake-s,539,1178564,0.0-19.0-0.0-0.33,A17TKHT8FEVH0R,3A3KKYU7Q6XNN7OKJ3M7MRU2CR5MWB,3KXIR214I8WOTKZ1PH261AT0G7Y24O,8,7
34,1,object_09,object_02,811.10000000056,2,1,799.60000000056,0.1111111111111111,2,object_04,5,436,0,9,1,desert_4,2,memory-2step-stake-s,540,1186679,0.0-19.0-0.0-0.34,A17TKHT8FEVH0R,3A3KKYU7Q6XNN7OKJ3M7MRU2CR5MWB,3KXIR214I8WOTKZ1PH261AT0G7Y24O,2,1
35,2,object_07,object_08,1304.9000000004,4,2,731.5,0.3333333333333333,2,object_04,5,451,0,8,3,forest_7,2,memory-2step-stake-s,541,1194928,0.0-19.0-0.0-0.35,A17TKHT8FEVH0R,3A3KKYU7Q6XNN7OKJ3M7MRU2CR5MWB,3KXIR214I8WOTKZ1PH261AT0G7Y24O,3,4
36,4,object_03,object_01,1061.2000000002,7,2,536.5,0.8888888888888888,1,object_10,1,459,0,8,4,restaurant_2,2,memory-2step-stake-s,542,1203503,0.0-19.0-0.0-0.36,A17TKHT8FEVH0R,3A3KKYU7Q6XNN7OKJ3M7MRU2CR5MWB,3KXIR214I8WOTKZ1PH261AT0G7Y24O,8,7
37,4,object_01,object_03,1105.2000000002,7,1,637.0,0.6666666666666666,1,object_10,1,465,0,6,6,restaurant_2,2,memory-2step-stake-s,543,1211961,0.0-19.0-0.0-0.37,A17TKHT8FEVH0R,3A3KKYU7Q6XNN7OKJ3M7MRU2CR5MWB,3KXIR214I8WOTKZ1PH261AT0G7Y24O,7,8
38,4,object_03,object_01,671.59999999963,7,2,418.39999999944,0.4444444444444444,1,object_10,1,469,0,4,9,restaurant_2,2,memory-2step-stake-s,544,1219996,0.0-19.0-0.0-0.38,A17TKHT8FEVH0R,3A3KKYU7Q6XNN7OKJ3M7MRU2CR5MWB,3KXIR214I8WOTKZ1PH261AT0G7Y24O,8,7
39,2,object_07,object_08,797.29999999981,3,1,319.5,0.5555555555555556,1,object_10,5,494,0,5,6,forest_4,2,memory-2step-stake-s,545,1228038,0.0-19.0-0.0-0.39,A17TKHT8FEVH0R,3A3KKYU7Q6XNN7OKJ3M7MRU2CR5MWB,3KXIR214I8WOTKZ1PH261AT0G7Y24O,3,4
40,2,object_07,object_08,713.5,3,1,316.59999999963,0.7777777777777778,1,object_10,5,529,0,7,6,forest_1,2,memory-2step-stake-s,546,1236280,0.0-19.0-0.0-0.40,A17TKHT8FEVH0R,3A3KKYU7Q6XNN7OKJ3M7MRU2CR5MWB,3KXIR214I8WOTKZ1PH261AT0G7Y24O,3,4
41,1,object_09,object_02,662.29999999981,2,1,370.39999999944,0.6666666666666666,2,object_04,5,559,0,4,6,desert_4,2,memory-2step-stake-s,547,1244496,0.0-19.0-0.0-0.41,A17TKHT8FEVH0R,3A3KKYU7Q6XNN7OKJ3M7MRU2CR5MWB,3KXIR214I8WOTKZ1PH261AT0G7Y24O,2,1
42,3,object_06,object_05,797.20000000019,6,2,351.20000000019,0.6666666666666666,2,object_04,1,565,0,1,6,library_5,2,memory-2step-stake-s,548,1252670,0.0-19.0-0.0-0.42,A17TKHT8FEVH0R,3A3KKYU7Q6XNN7OKJ3M7MRU2CR5MWB,3KXIR214I8WOTKZ1PH261AT0G7Y24O,5,6
43,4,object_03,object_01,1264.2999999998,8,1,580.20000000019,0.6666666666666666,2,object_04,1,571,0,3,6,restaurant_2,2,memory-2step-stake-s,549,1261069,0.0-19.0-0.0-0.43,A17TKHT8FEVH0R,3A3KKYU7Q6XNN7OKJ3M7MRU2CR5MWB,3KXIR214I8WOTKZ1PH261AT0G7Y24O,8,7
44,2,object_08,object_07,865.10000000056,3,2,452.59999999963,0.0,1,object_10,5,571,0,0,7,forest_4,2,memory-2step-stake-s,550,1268735,0.0-19.0-0.0-0.44,A17TKHT8FEVH0R,3A3KKYU7Q6XNN7OKJ3M7MRU2CR5MWB,3KXIR214I8WOTKZ1PH261AT0G7Y24O,4,3
45,4,object_03,object_01,767.09999999963,7,2,499.10000000056,0.1111111111111111,1,object_10,1,572,0,1,7,restaurant_2,2,memory-2step-stake-s,551,1276547,0.0-19.0-0.0-0.45,A17TKHT8FEVH0R,3A3KKYU7Q6XNN7OKJ3M7MRU2CR5MWB,3KXIR214I8WOTKZ1PH261AT0G7Y24O,8,7
46,3,object_05,object_06,1075.7000000002,6,1,895.40000000037,0.7777777777777778,2,object_04,1,579,0,0,7,library_6,2,memory-2step-stake-s,552,1285367,0.0-19.0-0.0-0.46,A17TKHT8FEVH0R,3A3KKYU7Q6XNN7OKJ3M7MRU2CR5MWB,3KXIR214I8WOTKZ1PH261AT0G7Y24O,6,5
47,1,object_02,object_09,1182.8000000007,2,2,562.20000000019,1.0,2,object_04,5,624,0,1,9,desert_4,2,memory-2step-stake-s,553,1294058,0.0-19.0-0.0-0.47,A17TKHT8FEVH0R,3A3KKYU7Q6XNN7OKJ3M7MRU2CR5MWB,3KXIR214I8WOTKZ1PH261AT0G7Y24O,1,2
48,4,object_03,object_01,901.70000000019,7,2,456.79999999981,0.2222222222222222,1,object_10,1,626,0,2,8,restaurant_8,2,memory-2step-stake-s,554,1301939,0.0-19.0-0.0-0.48,A17TKHT8FEVH0R,3A3KKYU7Q6XNN7OKJ3M7MRU2CR5MWB,3KXIR214I8WOTKZ1PH261AT0G7Y24O,8,7
49,1,object_02,object_09,532.40000000037,2,2,464.5,0.7777777777777778,2,object_04,5,661,0,5,7,desert_4,2,memory-2step-stake-s,555,1310328,0.0-19.0-0.0-0.49,A17TKHT8FEVH0R,3A3KKYU7Q6XNN7OKJ3M7MRU2CR5MWB,3KXIR214I8WOTKZ1PH261AT0G7Y24O,1,2
50,3,object_06,object_05,935.0,6,2,579.09999999963,0.5555555555555556,2,object_04,5,686,0,9,5,library_5,2,memory-2step-stake-s,556,1318625,0.0-19.0-0.0-0.50,A17TKHT8FEVH0R,3A3KKYU7Q6XNN7OKJ3M7MRU2CR5MWB,3KXIR214I8WOTKZ1PH261AT0G7Y24O,5,6
51,3,object_05,object_06,496.89999999944,6,1,515.70000000019,0.4444444444444444,2,object_04,5,706,0,9,4,library_2,2,memory-2step-stake-s,557,1326794,0.0-19.0-0.0-0.51,A17TKHT8FEVH0R,3A3KKYU7Q6XNN7OKJ3M7MRU2CR5MWB,3KXIR214I8WOTKZ1PH261AT0G7Y24O,6,5
52,2,object_07,object_08,1101.4000000004,3,1,745.5,0.8888888888888888,1,object_10,5,746,0,8,5,forest_8,2,memory-2step-stake-s,558,1335560,0.0-19.0-0.0-0.52,A17TKHT8FEVH0R,3A3KKYU7Q6XNN7OKJ3M7MRU2CR5MWB,3KXIR214I8WOTKZ1PH261AT0G7Y24O,3,4
53,4,object_03,object_01,1200.2000000002,7,2,644.19999999925,0.7777777777777778,1,object_10,5,781,0,7,1,restaurant_5,2,memory-2step-stake-s,559,1344126,0.0-19.0-0.0-0.53,A17TKHT8FEVH0R,3A3KKYU7Q6XNN7OKJ3M7MRU2CR5MWB,3KXIR214I8WOTKZ1PH261AT0G7Y24O,8,7
54,3,object_05,object_06,873.10000000056,5,2,509.30000000075,0.5555555555555556,1,object_10,1,786,0,5,1,library_6,2,memory-2step-stake-s,560,1352354,0.0-19.0-0.0-0.54,A17TKHT8FEVH0R,3A3KKYU7Q6XNN7OKJ3M7MRU2CR5MWB,3KXIR214I8WOTKZ1PH261AT0G7Y24O,6,5
55,4,object_01,object_03,973.69999999925,8,2,672.59999999963,0.1111111111111111,2,object_04,1,787,0,8,1,restaurant_4,2,memory-2step-stake-s,561,1360340,0.0-19.0-0.0-0.55,A17TKHT8FEVH0R,3A3KKYU7Q6XNN7OKJ3M7MRU2CR5MWB,3KXIR214I8WOTKZ1PH261AT0G7Y24O,7,8
56,3,object_06,object_05,1010.1000000006,5,1,589.5,1.0,1,object_10,1,796,0,9,1,library_8,2,memory-2step-stake-s,562,1369076,0.0-19.0-0.0-0.56,A17TKHT8FEVH0R,3A3KKYU7Q6XNN7OKJ3M7MRU2CR5MWB,3KXIR214I8WOTKZ1PH261AT0G7Y24O,5,6
57,3,object_06,object_05,947.5,5,1,443.80000000075,0.7777777777777778,1,object_10,1,803,0,7,1,library_8,2,memory-2step-stake-s,563,1377448,0.0-19.0-0.0-0.57,A17TKHT8FEVH0R,3A3KKYU7Q6XNN7OKJ3M7MRU2CR5MWB,3KXIR214I8WOTKZ1PH261AT0G7Y24O,5,6
58,2,object_08,object_07,-1.0,-1,-1,-1.0,0.0,-,0,5,803,0,8,2,forest_4,2,memory-2step-stake-s,564,1383957,0.0-19.0-0.0-0.58,A17TKHT8FEVH0R,3A3KKYU7Q6XNN7OKJ3M7MRU2CR5MWB,3KXIR214I8WOTKZ1PH261AT0G7Y24O,4,3
59,4,object_01,object_03,818.39999999944,7,1,589.59999999963,0.8888888888888888,1,object_10,1,811,0,8,0,restaurant_8,2,memory-2step-stake-s,565,1392570,0.0-19.0-0.0-0.59,A17TKHT8FEVH0R,3A3KKYU7Q6XNN7OKJ3M7MRU2CR5MWB,3KXIR214I8WOTKZ1PH261AT0G7Y24O,7,8
60,3,object_06,object_05,853.09999999963,5,1,921.09999999963,0.7777777777777778,1,object_10,1,818,0,7,2,library_2,2,memory-2step-stake-s,566,1401412,0.0-19.0-0.0-0.60,A17TKHT8FEVH0R,3A3KKYU7Q6XNN7OKJ3M7MRU2CR5MWB,3KXIR214I8WOTKZ1PH261AT0G7Y24O,5,6
61,4,object_01,object_03,787.10000000056,7,1,710.59999999963,1.0,1,object_10,5,863,0,9,2,restaurant_5,2,memory-2step-stake-s,567,1410254,0.0-19.0-0.0-0.61,A17TKHT8FEVH0R,3A3KKYU7Q6XNN7OKJ3M7MRU2CR5MWB,3KXIR214I8WOTKZ1PH261AT0G7Y24O,7,8
62,1,object_09,object_02,657.79999999981,2,1,444.5,0.1111111111111111,2,object_04,5,868,0,8,1,desert_3,2,memory-2step-stake-s,568,1418011,0.0-19.0-0.0-0.62,A17TKHT8FEVH0R,3A3KKYU7Q6XNN7OKJ3M7MRU2CR5MWB,3KXIR214I8WOTKZ1PH261AT0G7Y24O,2,1
63,1,object_02,object_09,628.0,2,2,718.59999999963,0.1111111111111111,2,object_04,5,873,0,9,1,desert_5,2,memory-2step-stake-s,569,1426044,0.0-19.0-0.0-0.63,A17TKHT8FEVH0R,3A3KKYU7Q6XNN7OKJ3M7MRU2CR5MWB,3KXIR214I8WOTKZ1PH261AT0G7Y24O,1,2
64,1,object_02,object_09,587.5,2,2,576.20000000019,0.1111111111111111,2,object_04,5,878,0,7,1,desert_6,2,memory-2step-stake-s,570,1433948,0.0-19.0-0.0-0.64,A17TKHT8FEVH0R,3A3KKYU7Q6XNN7OKJ3M7MRU2CR5MWB,3KXIR214I8WOTKZ1PH261AT0G7Y24O,1,2
65,4,object_03,object_01,1043.0999999996,7,2,550.40000000037,1.0,1,object_10,5,923,0,9,3,restaurant_5,2,memory-2step-stake-s,571,1442636,0.0-19.0-0.0-0.65,A17TKHT8FEVH0R,3A3KKYU7Q6XNN7OKJ3M7MRU2CR5MWB,3KXIR214I8WOTKZ1PH261AT0G7Y24O,8,7
66,1,object_09,object_02,730.29999999981,2,1,646.59999999963,0.2222222222222222,2,object_04,5,933,0,9,2,desert_5,2,memory-2step-stake-s,572,1450699,0.0-19.0-0.0-0.66,A17TKHT8FEVH0R,3A3KKYU7Q6XNN7OKJ3M7MRU2CR5MWB,3KXIR214I8WOTKZ1PH261AT0G7Y24O,2,1
67,2,object_08,object_07,881.19999999925,3,2,204.90000000037,0.7777777777777778,1,object_10,5,968,0,7,2,forest_7,2,memory-2step-stake-s,573,1458838,0.0-19.0-0.0-0.67,A17TKHT8FEVH0R,3A3KKYU7Q6XNN7OKJ3M7MRU2CR5MWB,3KXIR214I8WOTKZ1PH261AT0G7Y24O,4,3
68,3,object_05,object_06,810.0,5,2,1005.0,0.6666666666666666,1,object_10,5,998,0,6,5,library_5,2,memory-2step-stake-s,574,1467662,0.0-19.0-0.0-0.68,A17TKHT8FEVH0R,3A3KKYU7Q6XNN7OKJ3M7MRU2CR5MWB,3KXIR214I8WOTKZ1PH261AT0G7Y24O,6,5
69,2,object_08,object_07,601.10000000056,4,1,364.79999999981,0.6666666666666666,2,object_04,5,1028,0,6,6,forest_1,2,memory-2step-stake-s,575,1476480,0.0-19.0-0.0-0.69,A17TKHT8FEVH0R,3A3KKYU7Q6XNN7OKJ3M7MRU2CR5MWB,3KXIR214I8WOTKZ1PH261AT0G7Y24O,4,3
70,2,object_07,object_08,750.79999999981,3,1,443.60000000056,0.7777777777777778,1,object_10,1,1035,0,7,5,forest_4,2,memory-2step-stake-s,576,1484845,0.0-19.0-0.0-0.70,A17TKHT8FEVH0R,3A3KKYU7Q6XNN7OKJ3M7MRU2CR5MWB,3KXIR214I8WOTKZ1PH261AT0G7Y24O,3,4
71,2,object_07,object_08,696.09999999963,3,1,899.0,0.6666666666666666,1,object_10,5,1065,0,6,4,forest_7,2,memory-2step-stake-s,577,1493575,0.0-19.0-0.0-0.71,A17TKHT8FEVH0R,3A3KKYU7Q6XNN7OKJ3M7MRU2CR5MWB,3KXIR214I8WOTKZ1PH261AT0G7Y24O,3,4
72,4,object_03,object_01,1030.3999999994,7,2,522.20000000019,0.5555555555555556,1,object_10,1,1070,0,5,7,restaurant_5,2,memory-2step-stake-s,578,1501827,0.0-19.0-0.0-0.72,A17TKHT8FEVH0R,3A3KKYU7Q6XNN7OKJ3M7MRU2CR5MWB,3KXIR214I8WOTKZ1PH261AT0G7Y24O,8,7
73,4,object_01,object_03,803.5,7,1,583.5,1.0,1,object_10,1,1079,0,9,9,restaurant_2,2,memory-2step-stake-s,579,1510542,0.0-19.0-0.0-0.73,A17TKHT8FEVH0R,3A3KKYU7Q6XNN7OKJ3M7MRU2CR5MWB,3KXIR214I8WOTKZ1PH261AT0G7Y24O,7,8
74,1,object_02,object_09,448.09999999963,2,2,315.09999999963,0.8888888888888888,2,object_04,5,1119,0,8,8,desert_6,2,memory-2step-stake-s,580,1520062,0.0-19.0-0.0-0.74,A17TKHT8FEVH0R,3A3KKYU7Q6XNN7OKJ3M7MRU2CR5MWB,3KXIR214I8WOTKZ1PH261AT0G7Y24O,1,2
75,1,object_09,object_02,558.09999999963,2,1,355.10000000056,1.0,2,object_04,5,1164,0,8,9,desert_4,2,memory-2step-stake-s,581,1528541,0.0-19.0-0.0-0.75,A17TKHT8FEVH0R,3A3KKYU7Q6XNN7OKJ3M7MRU2CR5MWB,3KXIR214I8WOTKZ1PH261AT0G7Y24O,2,1
76,3,object_05,object_06,793.70000000019,6,1,373.5,0.8888888888888888,2,object_04,1,1172,0,7,8,library_2,2,memory-2step-stake-s,582,1537269,0.0-19.0-0.0-0.76,A17TKHT8FEVH0R,3A3KKYU7Q6XNN7OKJ3M7MRU2CR5MWB,3KXIR214I8WOTKZ1PH261AT0G7Y24O,6,5
77,2,object_07,object_08,1054.5,3,1,-1.0,0.0,1,object_10,1,1172,0,9,9,forest_7,2,memory-2step-stake-s,583,1545792,0.0-19.0-0.0-0.77,A17TKHT8FEVH0R,3A3KKYU7Q6XNN7OKJ3M7MRU2CR5MWB,3KXIR214I8WOTKZ1PH261AT0G7Y24O,3,4
78,4,object_01,object_03,935.29999999981,7,1,1218.9000000004,0.8888888888888888,1,object_10,1,1180,0,8,9,restaurant_8,2,memory-2step-stake-s,584,1555041,0.0-19.0-0.0-0.78,A17TKHT8FEVH0R,3A3KKYU7Q6XNN7OKJ3M7MRU2CR5MWB,3KXIR214I8WOTKZ1PH261AT0G7Y24O,7,8
79,1,object_02,object_09,639.5,2,2,976.70000000019,0.8888888888888888,2,object_04,5,1220,0,5,8,desert_5,2,memory-2step-stake-s,585,1564047,0.0-19.0-0.0-0.79,A17TKHT8FEVH0R,3A3KKYU7Q6XNN7OKJ3M7MRU2CR5MWB,3KXIR214I8WOTKZ1PH261AT0G7Y24O,1,2
80,2,object_08,object_07,712.0,3,2,538.79999999981,0.5555555555555556,1,object_10,5,1245,0,5,5,forest_8,2,memory-2step-stake-s,586,1572314,0.0-19.0-0.0-0.80,A17TKHT8FEVH0R,3A3KKYU7Q6XNN7OKJ3M7MRU2CR5MWB,3KXIR214I8WOTKZ1PH261AT0G7Y24O,4,3
81,3,object_06,object_05,909.0,5,1,746.0,0.7777777777777778,1,object_10,1,1252,0,7,4,library_2,2,memory-2step-stake-s,587,1580985,0.0-19.0-0.0-0.81,A17TKHT8FEVH0R,3A3KKYU7Q6XNN7OKJ3M7MRU2CR5MWB,3KXIR214I8WOTKZ1PH261AT0G7Y24O,5,6
82,2,object_07,object_08,646.5,3,1,665.90000000037,0.7777777777777778,1,object_10,5,1287,0,7,7,forest_8,2,memory-2step-stake-s,588,1589571,0.0-19.0-0.0-0.82,A17TKHT8FEVH0R,3A3KKYU7Q6XNN7OKJ3M7MRU2CR5MWB,3KXIR214I8WOTKZ1PH261AT0G7Y24O,3,4
83,4,object_03,object_01,562.29999999981,8,1,1062.6000000006,0.2222222222222222,2,object_04,1,1289,0,3,2,restaurant_4,2,memory-2step-stake-s,589,1598442,0.0-19.0-0.0-0.83,A17TKHT8FEVH0R,3A3KKYU7Q6XNN7OKJ3M7MRU2CR5MWB,3KXIR214I8WOTKZ1PH261AT0G7Y24O,8,7
84,3,object_06,object_05,1221.1000000006,5,1,544.70000000019,0.6666666666666666,1,object_10,1,1295,0,6,0,library_6,2,memory-2step-stake-s,590,1606815,0.0-19.0-0.0-0.84,A17TKHT8FEVH0R,3A3KKYU7Q6XNN7OKJ3M7MRU2CR5MWB,3KXIR214I8WOTKZ1PH261AT0G7Y24O,5,6
85,4,object_01,object_03,694.89999999944,7,1,585.60000000056,0.4444444444444444,1,object_10,1,1299,0,4,1,restaurant_4,2,memory-2step-stake-s,591,1615019,0.0-19.0-0.0-0.85,A17TKHT8FEVH0R,3A3KKYU7Q6XNN7OKJ3M7MRU2CR5MWB,3KXIR214I8WOTKZ1PH261AT0G7Y24O,7,8
86,4,object_03,object_01,604.70000000019,7,2,1383.5,0.4444444444444444,1,object_10,1,1303,0,4,2,restaurant_4,2,memory-2step-stake-s,592,1624038,0.0-19.0-0.0-0.86,A17TKHT8FEVH0R,3A3KKYU7Q6XNN7OKJ3M7MRU2CR5MWB,3KXIR214I8WOTKZ1PH261AT0G7Y24O,8,7
87,1,object_09,object_02,722.20000000019,2,1,726.90000000037,0.1111111111111111,2,object_04,5,1308,0,2,1,desert_6,2,memory-2step-stake-s,593,1632088,0.0-19.0-0.0-0.87,A17TKHT8FEVH0R,3A3KKYU7Q6XNN7OKJ3M7MRU2CR5MWB,3KXIR214I8WOTKZ1PH261AT0G7Y24O,2,1
88,3,object_05,object_06,990.70000000019,6,1,612.79999999981,0.1111111111111111,2,object_04,1,1309,0,2,1,library_6,2,memory-2step-stake-s,594,1640021,0.0-19.0-0.0-0.88,A17TKHT8FEVH0R,3A3KKYU7Q6XNN7OKJ3M7MRU2CR5MWB,3KXIR214I8WOTKZ1PH261AT0G7Y24O,6,5
89,1,object_09,object_02,561.40000000037,2,1,588.79999999981,0.2222222222222222,2,object_04,5,1319,0,3,2,desert_5,2,memory-2step-stake-s,595,1648027,0.0-19.0-0.0-0.89,A17TKHT8FEVH0R,3A3KKYU7Q6XNN7OKJ3M7MRU2CR5MWB,3KXIR214I8WOTKZ1PH261AT0G7Y24O,2,1
90,4,object_01,object_03,1030.2000000002,7,1,697.0,0.2222222222222222,1,object_10,1,1321,0,2,0,restaurant_5,2,memory-2step-stake-s,596,1656145,0.0-19.0-0.0-0.90,A17TKHT8FEVH0R,3A3KKYU7Q6XNN7OKJ3M7MRU2CR5MWB,3KXIR214I8WOTKZ1PH261AT0G7Y24O,7,8
91,1,object_02,object_09,575.29999999981,2,2,267.0,0.4444444444444444,2,object_04,5,1341,0,4,4,desert_3,2,memory-2step-stake-s,597,1664034,0.0-19.0-0.0-0.91,A17TKHT8FEVH0R,3A3KKYU7Q6XNN7OKJ3M7MRU2CR5MWB,3KXIR214I8WOTKZ1PH261AT0G7Y24O,1,2
92,1,object_02,object_09,413.60000000056,2,2,336.59999999963,0.2222222222222222,2,object_04,5,1351,0,5,2,desert_4,2,memory-2step-stake-s,598,1671793,0.0-19.0-0.0-0.92,A17TKHT8FEVH0R,3A3KKYU7Q6XNN7OKJ3M7MRU2CR5MWB,3KXIR214I8WOTKZ1PH261AT0G7Y24O,1,2
93,3,object_05,object_06,854.40000000037,5,2,1416.5,0.2222222222222222,1,object_10,5,1361,0,2,1,library_5,2,memory-2step-stake-s,599,1680627,0.0-19.0-0.0-0.93,A17TKHT8FEVH0R,3A3KKYU7Q6XNN7OKJ3M7MRU2CR5MWB,3KXIR214I8WOTKZ1PH261AT0G7Y24O,6,5
94,3,object_05,object_06,588.59999999963,5,2,462.5,0.2222222222222222,1,object_10,5,1371,0,2,0,library_2,2,memory-2step-stake-s,600,1688512,0.0-19.0-0.0-0.94,A17TKHT8FEVH0R,3A3KKYU7Q6XNN7OKJ3M7MRU2CR5MWB,3KXIR214I8WOTKZ1PH261AT0G7Y24O,6,5
95,4,object_03,object_01,800.09999999963,7,2,-1.0,0.0,1,object_10,1,1371,0,4,5,restaurant_8,2,memory-2step-stake-s,601,1697025,0.0-19.0-0.0-0.95,A17TKHT8FEVH0R,3A3KKYU7Q6XNN7OKJ3M7MRU2CR5MWB,3KXIR214I8WOTKZ1PH261AT0G7Y24O,8,7
96,1,object_09,object_02,614.89999999944,2,1,882.5,0.2222222222222222,2,object_04,5,1381,0,4,2,desert_6,2,memory-2step-stake-s,602,1705326,0.0-19.0-0.0-0.96,A17TKHT8FEVH0R,3A3KKYU7Q6XNN7OKJ3M7MRU2CR5MWB,3KXIR214I8WOTKZ1PH261AT0G7Y24O,2,1
97,2,object_08,object_07,609.0,3,2,731.0,0.2222222222222222,1,object_10,5,1391,0,2,2,forest_8,2,memory-2step-stake-s,603,1713475,0.0-19.0-0.0-0.97,A17TKHT8FEVH0R,3A3KKYU7Q6XNN7OKJ3M7MRU2CR5MWB,3KXIR214I8WOTKZ1PH261AT0G7Y24O,4,3
98,1,object_02,object_09,709.5,2,2,616.40000000037,0.5555555555555556,2,object_04,5,1416,0,4,5,desert_3,2,memory-2step-stake-s,604,1721818,0.0-19.0-0.0-0.98,A17TKHT8FEVH0R,3A3KKYU7Q6XNN7OKJ3M7MRU2CR5MWB,3KXIR214I8WOTKZ1PH261AT0G7Y24O,1,2
99,3,object_06,object_05,717.70000000019,5,1,591.39999999944,0.1111111111111111,1,object_10,1,1417,0,1,1,library_2,2,memory-2step-stake-s,605,1729726,0.0-19.0-0.0-0.99,A17TKHT8FEVH0R,3A3KKYU7Q6XNN7OKJ3M7MRU2CR5MWB,3KXIR214I8WOTKZ1PH261AT0G7Y24O,5,6
100,3,object_06,object_05,633.39999999944,5,1,1220.4000000004,0.0,1,object_10,5,1417,0,0,4,library_8,2,memory-2step-stake-s,606,1738159,0.0-19.0-0.0-0.100,A17TKHT8FEVH0R,3A3KKYU7Q6XNN7OKJ3M7MRU2CR5MWB,3KXIR214I8WOTKZ1PH261AT0G7Y24O,5,6
101,4,object_03,object_01,769.10000000056,7,2,828.5,0.1111111111111111,1,object_10,1,1418,0,1,5,restaurant_5,2,memory-2step-stake-s,607,1746302,0.0-19.0-0.0-0.101,A17TKHT8FEVH0R,3A3KKYU7Q6XNN7OKJ3M7MRU2CR5MWB,3KXIR214I8WOTKZ1PH261AT0G7Y24O,8,7
102,3,object_05,object_06,737.0,5,2,827.5,0.1111111111111111,1,object_10,5,1423,0,1,2,library_6,2,memory-2step-stake-s,608,1754444,0.0-19.0-0.0-0.102,A17TKHT8FEVH0R,3A3KKYU7Q6XNN7OKJ3M7MRU2CR5MWB,3KXIR214I8WOTKZ1PH261AT0G7Y24O,6,5
103,1,object_02,object_09,587.60000000056,2,2,350.40000000037,0.1111111111111111,2,object_04,5,1428,0,2,1,desert_6,2,memory-2step-stake-s,609,1762109,0.0-19.0-0.0-0.103,A17TKHT8FEVH0R,3A3KKYU7Q6XNN7OKJ3M7MRU2CR5MWB,3KXIR214I8WOTKZ1PH261AT0G7Y24O,1,2
104,1,object_09,object_02,682.80000000075,2,1,630.5,0.3333333333333333,2,object_04,5,1443,0,2,3,desert_5,2,memory-2step-stake-s,610,1770266,0.0-19.0-0.0-0.104,A17TKHT8FEVH0R,3A3KKYU7Q6XNN7OKJ3M7MRU2CR5MWB,3KXIR214I8WOTKZ1PH261AT0G7Y24O,2,1
105,2,object_07,object_08,758.0,3,1,464.39999999944,0.0,1,object_10,5,1443,0,0,4,forest_4,2,memory-2step-stake-s,611,1777945,0.0-19.0-0.0-0.105,A17TKHT8FEVH0R,3A3KKYU7Q6XNN7OKJ3M7MRU2CR5MWB,3KXIR214I8WOTKZ1PH261AT0G7Y24O,3,4
106,3,object_05,object_06,679.20000000019,5,2,577.90000000037,0.1111111111111111,1,object_10,1,1444,0,1,2,library_8,2,memory-2step-stake-s,612,1785838,0.0-19.0-0.0-0.106,A17TKHT8FEVH0R,3A3KKYU7Q6XNN7OKJ3M7MRU2CR5MWB,3KXIR214I8WOTKZ1PH261AT0G7Y24O,6,5
107,3,object_05,object_06,569.20000000019,5,2,1076.7999999998,0.2222222222222222,1,object_10,1,1446,0,2,0,library_2,2,memory-2step-stake-s,613,1794330,0.0-19.0-0.0-0.107,A17TKHT8FEVH0R,3A3KKYU7Q6XNN7OKJ3M7MRU2CR5MWB,3KXIR214I8WOTKZ1PH261AT0G7Y24O,6,5
108,4,object_01,object_03,1234.5,7,1,1165.6000000006,0.4444444444444444,1,object_10,1,1450,0,4,1,restaurant_2,2,memory-2step-stake-s,614,1803128,0.0-19.0-0.0-0.108,A17TKHT8FEVH0R,3A3KKYU7Q6XNN7OKJ3M7MRU2CR5MWB,3KXIR214I8WOTKZ1PH261AT0G7Y24O,7,8
109,1,object_02,object_09,544.79999999981,1,1,307.59999999963,0.2222222222222222,1,object_10,5,1460,0,2,2,desert_4,2,memory-2step-stake-s,615,1810864,0.0-19.0-0.0-0.109,A17TKHT8FEVH0R,3A3KKYU7Q6XNN7OKJ3M7MRU2CR5MWB,3KXIR214I8WOTKZ1PH261AT0G7Y24O,1,2
110,4,object_03,object_01,768.70000000019,7,2,658.60000000056,0.2222222222222222,1,object_10,1,1462,0,2,1,restaurant_8,2,memory-2step-stake-s,616,1818946,0.0-19.0-0.0-0.110,A17TKHT8FEVH0R,3A3KKYU7Q6XNN7OKJ3M7MRU2CR5MWB,3KXIR214I8WOTKZ1PH261AT0G7Y24O,8,7
111,3,object_05,object_06,612.90000000037,5,2,529.10000000056,0.1111111111111111,1,object_10,1,1463,0,1,0,library_2,2,memory-2step-stake-s,617,1826789,0.0-19.0-0.0-0.111,A17TKHT8FEVH0R,3A3KKYU7Q6XNN7OKJ3M7MRU2CR5MWB,3KXIR214I8WOTKZ1PH261AT0G7Y24O,6,5
112,1,object_02,object_09,490.10000000056,2,2,438.70000000019,0.0,2,object_04,1,1463,0,1,0,desert_3,2,memory-2step-stake-s,618,1834440,0.0-19.0-0.0-0.112,A17TKHT8FEVH0R,3A3KKYU7Q6XNN7OKJ3M7MRU2CR5MWB,3KXIR214I8WOTKZ1PH261AT0G7Y24O,1,2
113,4,object_03,object_01,711.29999999981,7,2,571.5,0.2222222222222222,1,object_10,1,1465,0,2,1,restaurant_2,2,memory-2step-stake-s,619,1842428,0.0-19.0-0.0-0.113,A17TKHT8FEVH0R,3A3KKYU7Q6XNN7OKJ3M7MRU2CR5MWB,3KXIR214I8WOTKZ1PH261AT0G7Y24O,8,7
114,3,object_05,object_06,613.20000000019,5,2,905.59999999963,0.1111111111111111,1,object_10,1,1466,0,1,2,library_5,2,memory-2step-stake-s,620,1850645,0.0-19.0-0.0-0.114,A17TKHT8FEVH0R,3A3KKYU7Q6XNN7OKJ3M7MRU2CR5MWB,3KXIR214I8WOTKZ1PH261AT0G7Y24O,6,5
115,2,object_08,object_07,555.69999999925,3,2,530.5,0.2222222222222222,1,object_10,5,1476,0,2,4,forest_4,2,memory-2step-stake-s,621,1858602,0.0-19.0-0.0-0.115,A17TKHT8FEVH0R,3A3KKYU7Q6XNN7OKJ3M7MRU2CR5MWB,3KXIR214I8WOTKZ1PH261AT0G7Y24O,4,3
116,2,object_08,object_07,557.09999999963,3,2,488.79999999981,0.0,1,object_10,5,1476,0,0,2,forest_1,2,memory-2step-stake-s,622,1866304,0.0-19.0-0.0-0.116,A17TKHT8FEVH0R,3A3KKYU7Q6XNN7OKJ3M7MRU2CR5MWB,3KXIR214I8WOTKZ1PH261AT0G7Y24O,4,3
117,3,object_06,object_05,663.70000000019,5,1,650.30000000075,0.0,1,object_10,5,1476,0,0,3,library_5,2,memory-2step-stake-s,623,1874170,0.0-19.0-0.0-0.117,A17TKHT8FEVH0R,3A3KKYU7Q6XNN7OKJ3M7MRU2CR5MWB,3KXIR214I8WOTKZ1PH261AT0G7Y24O,5,6
118,1,object_02,object_09,469.09999999963,2,2,721.39999999944,0.6666666666666666,2,object_04,5,1506,0,0,6,desert_3,2,memory-2step-stake-s,624,1882726,0.0-19.0-0.0-0.118,A17TKHT8FEVH0R,3A3KKYU7Q6XNN7OKJ3M7MRU2CR5MWB,3KXIR214I8WOTKZ1PH261AT0G7Y24O,1,2
119,2,object_07,object_08,703.59999999963,3,1,162.79999999981,0.4444444444444444,1,object_10,5,1526,0,4,4,forest_7,2,memory-2step-stake-s,625,1890509,0.0-19.0-0.0-0.119,A17TKHT8FEVH0R,3A3KKYU7Q6XNN7OKJ3M7MRU2CR5MWB,3KXIR214I8WOTKZ1PH261AT0G7Y24O,3,4
120,1,object_09,object_02,657.90000000037,2,1,317.5,0.3333333333333333,2,object_04,1,1529,0,7,3,desert_6,2,memory-2step-stake-s,626,1901425,0.0-19.0-0.0-0.120,A17TKHT8FEVH0R,3A3KKYU7Q6XNN7OKJ3M7MRU2CR5MWB,3KXIR214I8WOTKZ1PH261AT0G7Y24O,2,1
121,2,object_07,object_08,607.19999999925,3,1,859.0,0.6666666666666666,1,object_10,5,1559,0,6,2,forest_4,2,memory-2step-stake-s,627,1910099,0.0-19.0-0.0-0.121,A17TKHT8FEVH0R,3A3KKYU7Q6XNN7OKJ3M7MRU2CR5MWB,3KXIR214I8WOTKZ1PH261AT0G7Y24O,3,4
122,2,object_08,object_07,611.0,3,2,917.59999999963,0.5555555555555556,1,object_10,5,1584,0,5,3,forest_7,2,memory-2step-stake-s,628,1918753,0.0-19.0-0.0-0.122,A17TKHT8FEVH0R,3A3KKYU7Q6XNN7OKJ3M7MRU2CR5MWB,3KXIR214I8WOTKZ1PH261AT0G7Y24O,4,3
123,4,object_03,object_01,1014.4000000004,7,2,545.29999999981,0.5555555555555556,1,object_10,1,1589,0,5,2,restaurant_4,2,memory-2step-stake-s,629,1927016,0.0-19.0-0.0-0.123,A17TKHT8FEVH0R,3A3KKYU7Q6XNN7OKJ3M7MRU2CR5MWB,3KXIR214I8WOTKZ1PH261AT0G7Y24O,8,7
124,2,object_07,object_08,574.09999999963,3,1,673.5,0.4444444444444444,1,object_10,5,1609,0,4,4,forest_8,2,memory-2step-stake-s,630,1935309,0.0-19.0-0.0-0.124,A17TKHT8FEVH0R,3A3KKYU7Q6XNN7OKJ3M7MRU2CR5MWB,3KXIR214I8WOTKZ1PH261AT0G7Y24O,3,4
125,3,object_06,object_05,587.30000000075,5,1,494.79999999981,0.7777777777777778,1,object_10,1,1616,0,7,4,library_6,2,memory-2step-stake-s,631,1943724,0.0-19.0-0.0-0.125,A17TKHT8FEVH0R,3A3KKYU7Q6XNN7OKJ3M7MRU2CR5MWB,3KXIR214I8WOTKZ1PH261AT0G7Y24O,5,6
126,4,object_03,object_01,1243.7000000002,7,2,382.29999999981,1.0,1,object_10,1,1625,0,9,4,restaurant_8,2,memory-2step-stake-s,632,1952229,0.0-19.0-0.0-0.126,A17TKHT8FEVH0R,3A3KKYU7Q6XNN7OKJ3M7MRU2CR5MWB,3KXIR214I8WOTKZ1PH261AT0G7Y24O,8,7
127,2,object_07,object_08,579.5,3,1,526.59999999963,0.7777777777777778,1,object_10,1,1632,0,7,4,forest_8,2,memory-2step-stake-s,633,1960680,0.0-19.0-0.0-0.127,A17TKHT8FEVH0R,3A3KKYU7Q6XNN7OKJ3M7MRU2CR5MWB,3KXIR214I8WOTKZ1PH261AT0G7Y24O,3,4
128,3,object_06,object_05,928.0,5,1,515.20000000019,0.4444444444444444,1,object_10,1,1636,0,4,1,library_8,2,memory-2step-stake-s,635,2482222,0.0-19.0-0.1-0.128,A17TKHT8FEVH0R,3A3KKYU7Q6XNN7OKJ3M7MRU2CR5MWB,3KXIR214I8WOTKZ1PH261AT0G7Y24O,5,6
129,3,object_06,object_05,475.29999999981,5,1,150.59999999963,0.3333333333333333,1,object_10,5,1651,0,3,4,library_8,2,memory-2step-stake-s,636,2489902,0.0-19.0-0.1-0.129,A17TKHT8FEVH0R,3A3KKYU7Q6XNN7OKJ3M7MRU2CR5MWB,3KXIR214I8WOTKZ1PH261AT0G7Y24O,5,6
130,4,object_03,object_01,788.09999999963,7,2,337.0,0.5555555555555556,1,object_10,1,1656,0,5,2,restaurant_8,2,memory-2step-stake-s,637,2497954,0.0-19.0-0.1-0.130,A17TKHT8FEVH0R,3A3KKYU7Q6XNN7OKJ3M7MRU2CR5MWB,3KXIR214I8WOTKZ1PH261AT0G7Y24O,8,7
131,2,object_08,object_07,564.19999999925,3,2,631.40000000037,0.5555555555555556,1,object_10,5,1681,0,5,1,forest_1,2,memory-2step-stake-s,638,2506327,0.0-19.0-0.1-0.131,A17TKHT8FEVH0R,3A3KKYU7Q6XNN7OKJ3M7MRU2CR5MWB,3KXIR214I8WOTKZ1PH261AT0G7Y24O,4,3
132,2,object_08,object_07,578.0,3,2,820.69999999925,0.5555555555555556,1,object_10,5,1706,0,5,2,forest_8,2,memory-2step-stake-s,639,2514871,0.0-19.0-0.1-0.132,A17TKHT8FEVH0R,3A3KKYU7Q6XNN7OKJ3M7MRU2CR5MWB,3KXIR214I8WOTKZ1PH261AT0G7Y24O,4,3
133,4,object_01,object_03,698.09999999963,7,1,406.29999999981,0.3333333333333333,1,object_10,1,1709,0,3,2,restaurant_2,2,memory-2step-stake-s,640,2522792,0.0-19.0-0.1-0.133,A17TKHT8FEVH0R,3A3KKYU7Q6XNN7OKJ3M7MRU2CR5MWB,3KXIR214I8WOTKZ1PH261AT0G7Y24O,7,8
134,1,object_02,object_09,744.30000000075,2,2,795.0,0.6666666666666666,2,object_04,5,1739,0,5,6,desert_3,2,memory-2step-stake-s,641,2531423,0.0-19.0-0.1-0.134,A17TKHT8FEVH0R,3A3KKYU7Q6XNN7OKJ3M7MRU2CR5MWB,3KXIR214I8WOTKZ1PH261AT0G7Y24O,1,2
135,2,object_07,object_08,602.0,3,1,-1.0,0.0,1,object_10,5,1739,0,7,6,forest_4,2,memory-2step-stake-s,642,2539939,0.0-19.0-0.1-0.135,A17TKHT8FEVH0R,3A3KKYU7Q6XNN7OKJ3M7MRU2CR5MWB,3KXIR214I8WOTKZ1PH261AT0G7Y24O,3,4
136,4,object_01,object_03,900.29999999981,7,1,312.60000000056,0.8888888888888888,1,object_10,1,1747,0,8,6,restaurant_5,2,memory-2step-stake-s,643,2548282,0.0-19.0-0.1-0.136,A17TKHT8FEVH0R,3A3KKYU7Q6XNN7OKJ3M7MRU2CR5MWB,3KXIR214I8WOTKZ1PH261AT0G7Y24O,7,8
137,3,object_06,object_05,503.0,5,1,376.79999999981,1.0,1,object_10,1,1756,0,9,7,library_5,2,memory-2step-stake-s,644,2556791,0.0-19.0-0.1-0.137,A17TKHT8FEVH0R,3A3KKYU7Q6XNN7OKJ3M7MRU2CR5MWB,3KXIR214I8WOTKZ1PH261AT0G7Y24O,5,6
138,3,object_06,object_05,513.40000000037,5,1,923.79999999981,0.7777777777777778,1,object_10,5,1791,0,7,4,library_5,2,memory-2step-stake-s,645,2565651,0.0-19.0-0.1-0.138,A17TKHT8FEVH0R,3A3KKYU7Q6XNN7OKJ3M7MRU2CR5MWB,3KXIR214I8WOTKZ1PH261AT0G7Y24O,5,6
139,4,object_03,object_01,724.40000000037,7,2,439.79999999981,0.8888888888888888,1,object_10,1,1799,0,8,4,restaurant_5,2,memory-2step-stake-s,646,2574112,0.0-19.0-0.1-0.139,A17TKHT8FEVH0R,3A3KKYU7Q6XNN7OKJ3M7MRU2CR5MWB,3KXIR214I8WOTKZ1PH261AT0G7Y24O,8,7
140,1,object_09,object_02,615.39999999944,2,1,586.59999999963,0.4444444444444444,2,object_04,5,1819,0,7,4,desert_3,2,memory-2step-stake-s,647,2582319,0.0-19.0-0.1-0.140,A17TKHT8FEVH0R,3A3KKYU7Q6XNN7OKJ3M7MRU2CR5MWB,3KXIR214I8WOTKZ1PH261AT0G7Y24O,2,1
141,2,object_07,object_08,539.0,3,1,733.29999999981,0.6666666666666666,1,object_10,5,1849,0,6,7,forest_7,2,memory-2step-stake-s,648,2590870,0.0-19.0-0.1-0.141,A17TKHT8FEVH0R,3A3KKYU7Q6XNN7OKJ3M7MRU2CR5MWB,3KXIR214I8WOTKZ1PH261AT0G7Y24O,3,4
142,4,object_01,object_03,727.20000000019,7,1,531.80000000075,0.3333333333333333,1,object_10,5,1864,0,3,9,restaurant_5,2,memory-2step-stake-s,649,2598919,0.0-19.0-0.1-0.142,A17TKHT8FEVH0R,3A3KKYU7Q6XNN7OKJ3M7MRU2CR5MWB,3KXIR214I8WOTKZ1PH261AT0G7Y24O,7,8
143,2,object_07,object_08,569.79999999981,3,1,618.60000000056,0.4444444444444444,1,object_10,5,1884,0,4,7,forest_1,2,memory-2step-stake-s,650,2607157,0.0-19.0-0.1-0.143,A17TKHT8FEVH0R,3A3KKYU7Q6XNN7OKJ3M7MRU2CR5MWB,3KXIR214I8WOTKZ1PH261AT0G7Y24O,3,4
144,3,object_06,object_05,619.90000000037,5,1,703.10000000056,0.4444444444444444,1,object_10,1,1888,0,4,8,library_2,2,memory-2step-stake-s,651,2615482,0.0-19.0-0.1-0.144,A17TKHT8FEVH0R,3A3KKYU7Q6XNN7OKJ3M7MRU2CR5MWB,3KXIR214I8WOTKZ1PH261AT0G7Y24O,5,6
145,4,object_03,object_01,765.90000000037,7,2,557.0,0.1111111111111111,1,object_10,1,1889,0,1,6,restaurant_5,2,memory-2step-stake-s,652,2623359,0.0-19.0-0.1-0.145,A17TKHT8FEVH0R,3A3KKYU7Q6XNN7OKJ3M7MRU2CR5MWB,3KXIR214I8WOTKZ1PH261AT0G7Y24O,8,7
146,2,object_08,object_07,552.20000000019,3,2,474.60000000056,0.1111111111111111,1,object_10,5,1894,0,1,6,forest_4,2,memory-2step-stake-s,653,2631197,0.0-19.0-0.1-0.146,A17TKHT8FEVH0R,3A3KKYU7Q6XNN7OKJ3M7MRU2CR5MWB,3KXIR214I8WOTKZ1PH261AT0G7Y24O,4,3
147,2,object_07,object_08,572.29999999981,3,1,888.20000000019,0.1111111111111111,1,object_10,5,1899,0,1,6,forest_4,2,memory-2step-stake-s,654,2639414,0.0-19.0-0.1-0.147,A17TKHT8FEVH0R,3A3KKYU7Q6XNN7OKJ3M7MRU2CR5MWB,3KXIR214I8WOTKZ1PH261AT0G7Y24O,3,4
148,4,object_01,object_03,675.10000000056,7,1,423.59999999963,0.4444444444444444,1,object_10,1,1903,0,4,6,restaurant_5,2,memory-2step-stake-s,655,2647505,0.0-19.0-0.1-0.148,A17TKHT8FEVH0R,3A3KKYU7Q6XNN7OKJ3M7MRU2CR5MWB,3KXIR214I8WOTKZ1PH261AT0G7Y24O,7,8
149,4,object_01,object_03,559.5,7,1,523.0,0.1111111111111111,1,object_10,1,1904,0,1,8,restaurant_8,2,memory-2step-stake-s,656,2655346,0.0-19.0-0.1-0.149,A17TKHT8FEVH0R,3A3KKYU7Q6XNN7OKJ3M7MRU2CR5MWB,3KXIR214I8WOTKZ1PH261AT0G7Y24O,7,8
150,1,object_02,object_09,630.19999999925,2,2,729.90000000037,0.8888888888888888,2,object_04,1,1912,0,2,8,desert_6,2,memory-2step-stake-s,657,2664139,0.0-19.0-0.1-0.150,A17TKHT8FEVH0R,3A3KKYU7Q6XNN7OKJ3M7MRU2CR5MWB,3KXIR214I8WOTKZ1PH261AT0G7Y24O,1,2
151,2,object_08,object_07,675.90000000037,3,2,478.70000000019,0.2222222222222222,1,object_10,5,1922,0,2,6,forest_7,2,memory-2step-stake-s,658,2672043,0.0-19.0-0.1-0.151,A17TKHT8FEVH0R,3A3KKYU7Q6XNN7OKJ3M7MRU2CR5MWB,3KXIR214I8WOTKZ1PH261AT0G7Y24O,4,3
152,2,object_07,object_08,484.59999999963,3,1,459.0,0.2222222222222222,1,object_10,5,1932,0,2,6,forest_4,2,memory-2step-stake-s,659,2679931,0.0-19.0-0.1-0.152,A17TKHT8FEVH0R,3A3KKYU7Q6XNN7OKJ3M7MRU2CR5MWB,3KXIR214I8WOTKZ1PH261AT0G7Y24O,3,4
153,2,object_07,object_08,604.09999999963,3,1,510.39999999944,0.5555555555555556,1,object_10,5,1957,0,5,8,forest_1,2,memory-2step-stake-s,660,2688174,0.0-19.0-0.1-0.153,A17TKHT8FEVH0R,3A3KKYU7Q6XNN7OKJ3M7MRU2CR5MWB,3KXIR214I8WOTKZ1PH261AT0G7Y24O,3,4
154,4,object_03,object_01,464.70000000019,7,2,459.29999999981,0.5555555555555556,1,object_10,1,1962,0,5,8,restaurant_8,2,memory-2step-stake-s,661,2696374,0.0-19.0-0.1-0.154,A17TKHT8FEVH0R,3A3KKYU7Q6XNN7OKJ3M7MRU2CR5MWB,3KXIR214I8WOTKZ1PH261AT0G7Y24O,8,7
155,3,object_06,object_05,761.39999999944,5,1,533.29999999981,0.8888888888888888,1,object_10,1,1970,0,8,8,library_6,2,memory-2step-stake-s,662,2704952,0.0-19.0-0.1-0.155,A17TKHT8FEVH0R,3A3KKYU7Q6XNN7OKJ3M7MRU2CR5MWB,3KXIR214I8WOTKZ1PH261AT0G7Y24O,5,6
156,3,object_06,object_05,570.29999999981,5,1,514.70000000019,0.8888888888888888,1,object_10,1,1978,0,8,9,library_6,2,memory-2step-stake-s,663,2713506,0.0-19.0-0.1-0.156,A17TKHT8FEVH0R,3A3KKYU7Q6XNN7OKJ3M7MRU2CR5MWB,3KXIR214I8WOTKZ1PH261AT0G7Y24O,5,6
157,3,object_05,object_06,582.79999999981,5,2,577.70000000019,0.8888888888888888,1,object_10,5,2018,0,8,5,library_6,2,memory-2step-stake-s,664,2722110,0.0-19.0-0.1-0.157,A17TKHT8FEVH0R,3A3KKYU7Q6XNN7OKJ3M7MRU2CR5MWB,3KXIR214I8WOTKZ1PH261AT0G7Y24O,6,5
158,4,object_03,object_01,579.19999999925,7,2,-1.0,0.0,1,object_10,1,2018,0,8,5,restaurant_2,2,memory-2step-stake-s,665,2730622,0.0-19.0-0.1-0.158,A17TKHT8FEVH0R,3A3KKYU7Q6XNN7OKJ3M7MRU2CR5MWB,3KXIR214I8WOTKZ1PH261AT0G7Y24O,8,7
159,1,object_02,object_09,778.80000000075,2,2,702.70000000019,0.6666666666666666,2,object_04,1,2024,0,6,6,desert_4,2,memory-2step-stake-s,666,2739154,0.0-19.0-0.1-0.159,A17TKHT8FEVH0R,3A3KKYU7Q6XNN7OKJ3M7MRU2CR5MWB,3KXIR214I8WOTKZ1PH261AT0G7Y24O,1,2
160,3,object_05,object_06,751.20000000019,5,2,682.89999999944,0.6666666666666666,1,object_10,1,2030,0,6,6,library_5,2,memory-2step-stake-s,667,2747656,0.0-19.0-0.1-0.160,A17TKHT8FEVH0R,3A3KKYU7Q6XNN7OKJ3M7MRU2CR5MWB,3KXIR214I8WOTKZ1PH261AT0G7Y24O,6,5
161,4,object_03,object_01,682.0,7,2,541.59999999963,0.8888888888888888,1,object_10,1,2038,0,8,6,restaurant_2,2,memory-2step-stake-s,668,2756231,0.0-19.0-0.1-0.161,A17TKHT8FEVH0R,3A3KKYU7Q6XNN7OKJ3M7MRU2CR5MWB,3KXIR214I8WOTKZ1PH261AT0G7Y24O,8,7
162,4,object_03,object_01,514.5,7,2,790.59999999963,1.0,1,object_10,1,2047,0,9,6,restaurant_2,2,memory-2step-stake-s,669,2765143,0.0-19.0-0.1-0.162,A17TKHT8FEVH0R,3A3KKYU7Q6XNN7OKJ3M7MRU2CR5MWB,3KXIR214I8WOTKZ1PH261AT0G7Y24O,8,7
163,4,object_01,object_03,530.19999999925,7,1,909.40000000037,0.6666666666666666,1,object_10,1,2053,0,6,2,restaurant_2,2,memory-2step-stake-s,670,2773871,0.0-19.0-0.1-0.163,A17TKHT8FEVH0R,3A3KKYU7Q6XNN7OKJ3M7MRU2CR5MWB,3KXIR214I8WOTKZ1PH261AT0G7Y24O,7,8
164,1,object_09,object_02,682.70000000019,2,1,790.70000000019,0.1111111111111111,2,object_04,5,2058,0,8,1,desert_4,2,memory-2step-stake-s,671,2781974,0.0-19.0-0.1-0.164,A17TKHT8FEVH0R,3A3KKYU7Q6XNN7OKJ3M7MRU2CR5MWB,3KXIR214I8WOTKZ1PH261AT0G7Y24O,2,1
165,3,object_06,object_05,537.29999999981,5,1,612.5,1.0,1,object_10,1,2067,0,9,1,library_8,2,memory-2step-stake-s,672,2790722,0.0-19.0-0.1-0.165,A17TKHT8FEVH0R,3A3KKYU7Q6XNN7OKJ3M7MRU2CR5MWB,3KXIR214I8WOTKZ1PH261AT0G7Y24O,5,6
166,3,object_05,object_06,727.0,5,2,857.60000000056,0.8888888888888888,1,object_10,1,2075,0,8,1,library_8,2,memory-2step-stake-s,673,2799603,0.0-19.0-0.1-0.166,A17TKHT8FEVH0R,3A3KKYU7Q6XNN7OKJ3M7MRU2CR5MWB,3KXIR214I8WOTKZ1PH261AT0G7Y24O,6,5
167,2,object_07,object_08,541.0,3,1,672.30000000075,0.5555555555555556,1,object_10,5,2100,0,5,0,forest_4,2,memory-2step-stake-s,674,2808000,0.0-19.0-0.1-0.167,A17TKHT8FEVH0R,3A3KKYU7Q6XNN7OKJ3M7MRU2CR5MWB,3KXIR214I8WOTKZ1PH261AT0G7Y24O,3,4
168,1,object_09,object_02,680.39999999944,2,1,684.40000000037,0.1111111111111111,2,object_04,1,2101,0,8,1,desert_4,2,memory-2step-stake-s,675,2816000,0.0-19.0-0.1-0.168,A17TKHT8FEVH0R,3A3KKYU7Q6XNN7OKJ3M7MRU2CR5MWB,3KXIR214I8WOTKZ1PH261AT0G7Y24O,2,1
169,3,object_05,object_06,448.60000000056,5,2,756.5,1.0,1,object_10,1,2110,0,9,4,library_8,2,memory-2step-stake-s,676,2824878,0.0-19.0-0.1-0.169,A17TKHT8FEVH0R,3A3KKYU7Q6XNN7OKJ3M7MRU2CR5MWB,3KXIR214I8WOTKZ1PH261AT0G7Y24O,6,5
170,2,object_08,object_07,618.29999999981,3,2,622.09999999963,1.0,1,object_10,1,2119,0,9,6,forest_8,2,memory-2step-stake-s,677,2833625,0.0-19.0-0.1-0.170,A17TKHT8FEVH0R,3A3KKYU7Q6XNN7OKJ3M7MRU2CR5MWB,3KXIR214I8WOTKZ1PH261AT0G7Y24O,4,3
171,4,object_01,object_03,615.0,7,1,1049.4000000004,0.6666666666666666,1,object_10,5,2149,0,6,7,restaurant_4,2,memory-2step-stake-s,678,2842493,0.0-19.0-0.1-0.171,A17TKHT8FEVH0R,3A3KKYU7Q6XNN7OKJ3M7MRU2CR5MWB,3KXIR214I8WOTKZ1PH261AT0G7Y24O,7,8
172,4,object_03,object_01,722.29999999981,7,2,717.70000000019,0.8888888888888888,1,object_10,1,2157,0,8,5,restaurant_8,2,memory-2step-stake-s,679,2852835,0.0-19.0-0.1-0.172,A17TKHT8FEVH0R,3A3KKYU7Q6XNN7OKJ3M7MRU2CR5MWB,3KXIR214I8WOTKZ1PH261AT0G7Y24O,8,7
173,2,object_08,object_07,542.20000000019,3,2,731.5,0.8888888888888888,1,object_10,5,2197,0,8,2,forest_7,2,memory-2step-stake-s,680,2861608,0.0-19.0-0.1-0.173,A17TKHT8FEVH0R,3A3KKYU7Q6XNN7OKJ3M7MRU2CR5MWB,3KXIR214I8WOTKZ1PH261AT0G7Y24O,4,3
174,4,object_03,object_01,709.60000000056,7,2,577.29999999981,0.5555555555555556,1,object_10,1,2202,0,5,2,restaurant_5,2,memory-2step-stake-s,681,2869907,0.0-19.0-0.1-0.174,A17TKHT8FEVH0R,3A3KKYU7Q6XNN7OKJ3M7MRU2CR5MWB,3KXIR214I8WOTKZ1PH261AT0G7Y24O,8,7
175,4,object_01,object_03,572.5,7,1,591.70000000019,0.5555555555555556,1,object_10,1,2207,0,5,2,restaurant_8,2,memory-2step-stake-s,682,2878221,0.0-19.0-0.1-0.175,A17TKHT8FEVH0R,3A3KKYU7Q6XNN7OKJ3M7MRU2CR5MWB,3KXIR214I8WOTKZ1PH261AT0G7Y24O,7,8
176,2,object_07,object_08,738.89999999944,3,1,556.59999999963,0.5555555555555556,1,object_10,1,2212,0,5,2,forest_7,2,memory-2step-stake-s,683,2886503,0.0-19.0-0.1-0.176,A17TKHT8FEVH0R,3A3KKYU7Q6XNN7OKJ3M7MRU2CR5MWB,3KXIR214I8WOTKZ1PH261AT0G7Y24O,3,4
177,2,object_07,object_08,975.29999999981,3,1,576.29999999981,0.8888888888888888,1,object_10,5,2252,0,8,3,forest_8,2,memory-2step-stake-s,684,2895105,0.0-19.0-0.1-0.177,A17TKHT8FEVH0R,3A3KKYU7Q6XNN7OKJ3M7MRU2CR5MWB,3KXIR214I8WOTKZ1PH261AT0G7Y24O,3,4
178,1,object_02,object_09,598.40000000037,2,2,665.29999999981,0.2222222222222222,2,object_04,5,2262,0,8,2,desert_6,2,memory-2step-stake-s,685,2903201,0.0-19.0-0.1-0.178,A17TKHT8FEVH0R,3A3KKYU7Q6XNN7OKJ3M7MRU2CR5MWB,3KXIR214I8WOTKZ1PH261AT0G7Y24O,1,2
179,3,object_06,object_05,526.89999999944,5,1,425.20000000019,0.8888888888888888,1,object_10,1,2270,0,8,2,library_2,2,memory-2step-stake-s,686,2911648,0.0-19.0-0.1-0.179,A17TKHT8FEVH0R,3A3KKYU7Q6XNN7OKJ3M7MRU2CR5MWB,3KXIR214I8WOTKZ1PH261AT0G7Y24O,5,6
180,1,object_02,object_09,512.19999999925,2,2,684.40000000037,0.3333333333333333,2,object_04,5,2285,0,8,3,desert_3,2,memory-2step-stake-s,687,2919859,0.0-19.0-0.1-0.180,A17TKHT8FEVH0R,3A3KKYU7Q6XNN7OKJ3M7MRU2CR5MWB,3KXIR214I8WOTKZ1PH261AT0G7Y24O,1,2
181,1,object_09,object_02,524.90000000037,2,1,687.69999999925,0.3333333333333333,2,object_04,1,2288,0,6,3,desert_6,2,memory-2step-stake-s,688,2928070,0.0-19.0-0.1-0.181,A17TKHT8FEVH0R,3A3KKYU7Q6XNN7OKJ3M7MRU2CR5MWB,3KXIR214I8WOTKZ1PH261AT0G7Y24O,2,1
182,3,object_06,object_05,443.29999999981,5,1,478.29999999981,0.7777777777777778,1,object_10,1,2295,0,7,4,library_5,2,memory-2step-stake-s,689,2936479,0.0-19.0-0.1-0.182,A17TKHT8FEVH0R,3A3KKYU7Q6XNN7OKJ3M7MRU2CR5MWB,3KXIR214I8WOTKZ1PH261AT0G7Y24O,5,6
183,3,object_06,object_05,745.70000000019,5,1,773.29999999981,0.8888888888888888,1,object_10,1,2303,0,8,6,library_8,2,memory-2step-stake-s,690,2945275,0.0-19.0-0.1-0.183,A17TKHT8FEVH0R,3A3KKYU7Q6XNN7OKJ3M7MRU2CR5MWB,3KXIR214I8WOTKZ1PH261AT0G7Y24O,5,6
184,2,object_07,object_08,541.0,3,1,807.40000000037,0.7777777777777778,1,object_10,5,2338,0,7,5,forest_7,2,memory-2step-stake-s,691,2954011,0.0-19.0-0.1-0.184,A17TKHT8FEVH0R,3A3KKYU7Q6XNN7OKJ3M7MRU2CR5MWB,3KXIR214I8WOTKZ1PH261AT0G7Y24O,3,4
185,3,object_06,object_05,549.70000000019,5,1,942.29999999981,0.8888888888888888,1,object_10,1,2346,0,8,5,library_6,2,memory-2step-stake-s,692,2963008,0.0-19.0-0.1-0.185,A17TKHT8FEVH0R,3A3KKYU7Q6XNN7OKJ3M7MRU2CR5MWB,3KXIR214I8WOTKZ1PH261AT0G7Y24O,5,6
186,2,object_07,object_08,559.79999999981,3,1,394.90000000037,0.6666666666666666,1,object_10,5,2376,0,6,5,forest_4,2,memory-2step-stake-s,693,2971224,0.0-19.0-0.1-0.186,A17TKHT8FEVH0R,3A3KKYU7Q6XNN7OKJ3M7MRU2CR5MWB,3KXIR214I8WOTKZ1PH261AT0G7Y24O,3,4
187,1,object_09,object_02,591.29999999981,2,1,387.19999999925,0.4444444444444444,2,object_04,1,2380,0,5,4,desert_6,2,memory-2step-stake-s,694,2979235,0.0-19.0-0.1-0.187,A17TKHT8FEVH0R,3A3KKYU7Q6XNN7OKJ3M7MRU2CR5MWB,3KXIR214I8WOTKZ1PH261AT0G7Y24O,2,1
188,3,object_05,object_06,725.20000000019,5,2,940.29999999981,0.5555555555555556,1,object_10,5,2405,0,5,5,library_5,2,memory-2step-stake-s,695,2987905,0.0-19.0-0.1-0.188,A17TKHT8FEVH0R,3A3KKYU7Q6XNN7OKJ3M7MRU2CR5MWB,3KXIR214I8WOTKZ1PH261AT0G7Y24O,6,5
189,2,object_08,object_07,831.60000000056,3,2,467.70000000019,0.7777777777777778,1,object_10,1,2412,0,7,6,forest_1,2,memory-2step-stake-s,696,2996294,0.0-19.0-0.1-0.189,A17TKHT8FEVH0R,3A3KKYU7Q6XNN7OKJ3M7MRU2CR5MWB,3KXIR214I8WOTKZ1PH261AT0G7Y24O,4,3
190,1,object_02,object_09,611.89999999944,2,2,790.59999999963,0.3333333333333333,2,object_04,1,2415,0,5,3,desert_6,2,memory-2step-stake-s,697,3004599,0.0-19.0-0.1-0.190,A17TKHT8FEVH0R,3A3KKYU7Q6XNN7OKJ3M7MRU2CR5MWB,3KXIR214I8WOTKZ1PH261AT0G7Y24O,1,2
191,1,object_02,object_09,1081.0999999996,2,2,300.20000000019,0.4444444444444444,2,object_04,1,2419,0,5,4,desert_3,2,memory-2step-stake-s,698,3012518,0.0-19.0-0.1-0.191,A17TKHT8FEVH0R,3A3KKYU7Q6XNN7OKJ3M7MRU2CR5MWB,3KXIR214I8WOTKZ1PH261AT0G7Y24O,1,2
192,2,object_08,object_07,354.40000000037,4,1,286.29999999981,0.2222222222222222,2,object_04,5,2429,0,4,2,forest_8,2,memory-2step-stake-s,699,3020225,0.0-19.0-0.1-0.192,A17TKHT8FEVH0R,3A3KKYU7Q6XNN7OKJ3M7MRU2CR5MWB,3KXIR214I8WOTKZ1PH261AT0G7Y24O,4,3
193,3,object_05,object_06,295.79999999981,5,2,378.70000000019,0.6666666666666666,1,object_10,5,2459,0,6,0,library_6,2,memory-2step-stake-s,700,3028428,0.0-19.0-0.1-0.193,A17TKHT8FEVH0R,3A3KKYU7Q6XNN7OKJ3M7MRU2CR5MWB,3KXIR214I8WOTKZ1PH261AT0G7Y24O,6,5
194,1,object_02,object_09,618.10000000056,2,2,334.40000000037,0.2222222222222222,2,object_04,5,2469,0,6,2,desert_5,2,memory-2step-stake-s,701,3036177,0.0-19.0-0.1-0.194,A17TKHT8FEVH0R,3A3KKYU7Q6XNN7OKJ3M7MRU2CR5MWB,3KXIR214I8WOTKZ1PH261AT0G7Y24O,1,2
195,2,object_08,object_07,614.79999999981,4,1,529.5,0.0,2,object_04,5,2469,0,6,0,forest_8,2,memory-2step-stake-s,702,3043920,0.0-19.0-0.1-0.195,A17TKHT8FEVH0R,3A3KKYU7Q6XNN7OKJ3M7MRU2CR5MWB,3KXIR214I8WOTKZ1PH261AT0G7Y24O,4,3
196,4,object_01,object_03,849.70000000019,8,2,620.90000000037,0.0,2,object_04,1,2469,0,8,0,restaurant_2,2,memory-2step-stake-s,703,3051751,0.0-19.0-0.1-0.196,A17TKHT8FEVH0R,3A3KKYU7Q6XNN7OKJ3M7MRU2CR5MWB,3KXIR214I8WOTKZ1PH261AT0G7Y24O,7,8
197,4,object_03,object_01,1064.2999999998,7,2,508.20000000019,0.6666666666666666,1,object_10,1,2475,0,6,0,restaurant_8,2,memory-2step-stake-s,704,3060079,0.0-19.0-0.1-0.197,A17TKHT8FEVH0R,3A3KKYU7Q6XNN7OKJ3M7MRU2CR5MWB,3KXIR214I8WOTKZ1PH261AT0G7Y24O,8,7
198,1,object_09,object_02,649.29999999981,2,1,781.59999999963,0.3333333333333333,2,object_04,1,2478,0,5,3,desert_4,2,memory-2step-stake-s,705,3068378,0.0-19.0-0.1-0.198,A17TKHT8FEVH0R,3A3KKYU7Q6XNN7OKJ3M7MRU2CR5MWB,3KXIR214I8WOTKZ1PH261AT0G7Y24O,2,1
199,4,object_03,object_01,-1.0,-1,-1,-1.0,0.0,-,0,1,2478,0,3,2,restaurant_8,2,memory-2step-stake-s,706,3074887,0.0-19.0-0.1-0.199,A17TKHT8FEVH0R,3A3KKYU7Q6XNN7OKJ3M7MRU2CR5MWB,3KXIR214I8WOTKZ1PH261AT0G7Y24O,8,7
200,1,object_02,object_09,552.59999999963,2,2,-1.0,0.0,2,object_04,5,2478,0,1,2,desert_5,2,memory-2step-stake-s,707,3083400,0.0-19.0-0.1-0.200,A17TKHT8FEVH0R,3A3KKYU7Q6XNN7OKJ3M7MRU2CR5MWB,3KXIR214I8WOTKZ1PH261AT0G7Y24O,1,2
201,1,object_02,object_09,1105.1000000006,2,2,484.20000000019,0.3333333333333333,2,object_04,5,2493,0,5,3,desert_5,2,memory-2step-stake-s,708,3091403,0.0-19.0-0.1-0.201,A17TKHT8FEVH0R,3A3KKYU7Q6XNN7OKJ3M7MRU2CR5MWB,3KXIR214I8WOTKZ1PH261AT0G7Y24O,1,2
202,3,object_05,object_06,622.29999999981,6,1,456.40000000037,0.1111111111111111,2,object_04,1,2494,0,3,1,library_8,2,memory-2step-stake-s,709,3099174,0.0-19.0-0.1-0.202,A17TKHT8FEVH0R,3A3KKYU7Q6XNN7OKJ3M7MRU2CR5MWB,3KXIR214I8WOTKZ1PH261AT0G7Y24O,6,5
203,1,object_09,object_02,266.20000000019,1,2,372.59999999963,0.4444444444444444,1,object_10,5,2514,0,4,1,desert_4,2,memory-2step-stake-s,710,3107174,0.0-19.0-0.1-0.203,A17TKHT8FEVH0R,3A3KKYU7Q6XNN7OKJ3M7MRU2CR5MWB,3KXIR214I8WOTKZ1PH261AT0G7Y24O,2,1
204,3,object_05,object_06,554.09999999963,5,2,-1.0,0.0,1,object_10,1,2514,0,3,3,library_2,2,memory-2step-stake-s,711,3115692,0.0-19.0-0.1-0.204,A17TKHT8FEVH0R,3A3KKYU7Q6XNN7OKJ3M7MRU2CR5MWB,3KXIR214I8WOTKZ1PH261AT0G7Y24O,6,5
205,4,object_01,object_03,1115.2999999998,8,2,-1.0,0.0,2,object_04,1,2514,0,1,0,restaurant_4,2,memory-2step-stake-s,712,3124208,0.0-19.0-0.1-0.205,A17TKHT8FEVH0R,3A3KKYU7Q6XNN7OKJ3M7MRU2CR5MWB,3KXIR214I8WOTKZ1PH261AT0G7Y24O,7,8
206,2,object_08,object_07,616.59999999963,3,2,723.60000000056,0.1111111111111111,1,object_10,5,2519,0,1,2,forest_8,2,memory-2step-stake-s,713,3132245,0.0-19.0-0.1-0.206,A17TKHT8FEVH0R,3A3KKYU7Q6XNN7OKJ3M7MRU2CR5MWB,3KXIR214I8WOTKZ1PH261AT0G7Y24O,4,3
207,3,object_06,object_05,643.29999999981,5,1,527.39999999944,0.0,1,object_10,1,2519,0,0,1,library_8,2,memory-2step-stake-s,714,3139985,0.0-19.0-0.1-0.207,A17TKHT8FEVH0R,3A3KKYU7Q6XNN7OKJ3M7MRU2CR5MWB,3KXIR214I8WOTKZ1PH261AT0G7Y24O,5,6
208,3,object_05,object_06,615.30000000075,5,2,1051.7999999998,0.1111111111111111,1,object_10,1,2520,0,1,1,library_5,2,memory-2step-stake-s,715,3148351,0.0-19.0-0.1-0.208,A17TKHT8FEVH0R,3A3KKYU7Q6XNN7OKJ3M7MRU2CR5MWB,3KXIR214I8WOTKZ1PH261AT0G7Y24O,6,5
209,1,object_09,object_02,586.0,2,1,445.40000000037,0.2222222222222222,2,object_04,5,2530,0,0,2,desert_5,2,memory-2step-stake-s,716,3156213,0.0-19.0-0.1-0.209,A17TKHT8FEVH0R,3A3KKYU7Q6XNN7OKJ3M7MRU2CR5MWB,3KXIR214I8WOTKZ1PH261AT0G7Y24O,2,1
210,4,object_01,object_03,706.10000000056,7,1,1134.4000000004,0.0,1,object_10,5,2530,0,0,5,restaurant_2,2,memory-2step-stake-s,717,3164560,0.0-19.0-0.1-0.210,A17TKHT8FEVH0R,3A3KKYU7Q6XNN7OKJ3M7MRU2CR5MWB,3KXIR214I8WOTKZ1PH261AT0G7Y24O,7,8
211,1,object_09,object_02,545.0,2,1,692.40000000037,0.5555555555555556,2,object_04,1,2535,0,2,5,desert_3,2,memory-2step-stake-s,718,3172971,0.0-19.0-0.1-0.211,A17TKHT8FEVH0R,3A3KKYU7Q6XNN7OKJ3M7MRU2CR5MWB,3KXIR214I8WOTKZ1PH261AT0G7Y24O,2,1
212,4,object_01,object_03,693.10000000056,7,1,-1.0,0.0,1,object_10,1,2535,0,1,3,restaurant_4,2,memory-2step-stake-s,719,3181485,0.0-19.0-0.1-0.212,A17TKHT8FEVH0R,3A3KKYU7Q6XNN7OKJ3M7MRU2CR5MWB,3KXIR214I8WOTKZ1PH261AT0G7Y24O,7,8
213,3,object_05,object_06,588.0,5,2,-1.0,0.0,1,object_10,1,2535,0,3,4,library_2,2,memory-2step-stake-s,720,3190006,0.0-19.0-0.1-0.213,A17TKHT8FEVH0R,3A3KKYU7Q6XNN7OKJ3M7MRU2CR5MWB,3KXIR214I8WOTKZ1PH261AT0G7Y24O,6,5
214,2,object_08,object_07,347.09999999963,4,1,334.10000000056,0.6666666666666666,2,object_04,5,2565,0,3,6,forest_1,2,memory-2step-stake-s,721,3198161,0.0-19.0-0.1-0.214,A17TKHT8FEVH0R,3A3KKYU7Q6XNN7OKJ3M7MRU2CR5MWB,3KXIR214I8WOTKZ1PH261AT0G7Y24O,4,3
215,3,object_05,object_06,439.59999999963,5,2,347.29999999981,0.3333333333333333,1,object_10,1,2568,0,3,5,library_6,2,memory-2step-stake-s,722,3206038,0.0-19.0-0.1-0.215,A17TKHT8FEVH0R,3A3KKYU7Q6XNN7OKJ3M7MRU2CR5MWB,3KXIR214I8WOTKZ1PH261AT0G7Y24O,6,5
216,4,object_03,object_01,291.30000000075,8,1,351.79999999981,0.6666666666666666,2,object_04,1,2574,0,3,6,restaurant_5,2,memory-2step-stake-s,723,3214213,0.0-19.0-0.1-0.216,A17TKHT8FEVH0R,3A3KKYU7Q6XNN7OKJ3M7MRU2CR5MWB,3KXIR214I8WOTKZ1PH261AT0G7Y24O,8,7
217,2,object_07,object_08,668.59999999963,3,1,327.59999999963,0.1111111111111111,1,object_10,5,2579,0,1,9,forest_7,2,memory-2step-stake-s,724,3221854,0.0-19.0-0.1-0.217,A17TKHT8FEVH0R,3A3KKYU7Q6XNN7OKJ3M7MRU2CR5MWB,3KXIR214I8WOTKZ1PH261AT0G7Y24O,3,4
218,4,object_01,object_03,810.89999999944,8,2,438.20000000019,1.0,2,object_04,1,2588,0,2,9,restaurant_2,2,memory-2step-stake-s,725,3230419,0.0-19.0-0.1-0.218,A17TKHT8FEVH0R,3A3KKYU7Q6XNN7OKJ3M7MRU2CR5MWB,3KXIR214I8WOTKZ1PH261AT0G7Y24O,7,8
219,1,object_02,object_09,647.20000000019,2,2,562.90000000037,1.0,2,object_04,5,2633,0,3,9,desert_3,2,memory-2step-stake-s,726,3239109,0.0-19.0-0.1-0.219,A17TKHT8FEVH0R,3A3KKYU7Q6XNN7OKJ3M7MRU2CR5MWB,3KXIR214I8WOTKZ1PH261AT0G7Y24O,1,2
220,2,object_07,object_08,580.09999999963,3,1,-1.0,0.0,1,object_10,5,2633,0,3,8,forest_7,2,memory-2step-stake-s,727,3247635,0.0-19.0-0.1-0.220,A17TKHT8FEVH0R,3A3KKYU7Q6XNN7OKJ3M7MRU2CR5MWB,3KXIR214I8WOTKZ1PH261AT0G7Y24O,3,4
221,3,object_05,object_06,696.20000000019,6,1,444.5,0.4444444444444444,2,object_04,1,2637,0,4,4,library_8,2,memory-2step-stake-s,728,3255702,0.0-19.0-0.1-0.221,A17TKHT8FEVH0R,3A3KKYU7Q6XNN7OKJ3M7MRU2CR5MWB,3KXIR214I8WOTKZ1PH261AT0G7Y24O,6,5
222,3,object_05,object_06,644.40000000037,5,2,663.60000000056,0.4444444444444444,1,object_10,1,2641,0,4,4,library_8,2,memory-2step-stake-s,729,3263982,0.0-19.0-0.1-0.222,A17TKHT8FEVH0R,3A3KKYU7Q6XNN7OKJ3M7MRU2CR5MWB,3KXIR214I8WOTKZ1PH261AT0G7Y24O,6,5
223,1,object_09,object_02,603.09999999963,2,1,671.59999999963,0.3333333333333333,2,object_04,5,2656,0,2,3,desert_5,2,memory-2step-stake-s,730,3272176,0.0-19.0-0.1-0.223,A17TKHT8FEVH0R,3A3KKYU7Q6XNN7OKJ3M7MRU2CR5MWB,3KXIR214I8WOTKZ1PH261AT0G7Y24O,2,1
224,1,object_09,object_02,410.0,2,1,1029.8000000007,0.2222222222222222,2,object_04,5,2666,0,4,2,desert_4,2,memory-2step-stake-s,731,3280621,0.0-19.0-0.1-0.224,A17TKHT8FEVH0R,3A3KKYU7Q6XNN7OKJ3M7MRU2CR5MWB,3KXIR214I8WOTKZ1PH261AT0G7Y24O,2,1
225,2,object_07,object_08,660.09999999963,3,1,1175.4000000004,0.6666666666666666,1,object_10,5,2696,0,6,1,forest_1,2,memory-2step-stake-s,732,3289623,0.0-19.0-0.1-0.225,A17TKHT8FEVH0R,3A3KKYU7Q6XNN7OKJ3M7MRU2CR5MWB,3KXIR214I8WOTKZ1PH261AT0G7Y24O,3,4
226,2,object_07,object_08,715.09999999963,3,1,470.09999999963,0.5555555555555556,1,object_10,5,2721,0,5,0,forest_1,2,memory-2step-stake-s,733,3297812,0.0-19.0-0.1-0.226,A17TKHT8FEVH0R,3A3KKYU7Q6XNN7OKJ3M7MRU2CR5MWB,3KXIR214I8WOTKZ1PH261AT0G7Y24O,3,4
227,3,object_06,object_05,798.70000000019,5,1,584.59999999963,0.5555555555555556,1,object_10,1,2726,0,5,1,library_6,2,memory-2step-stake-s,734,3306118,0.0-19.0-0.1-0.227,A17TKHT8FEVH0R,3A3KKYU7Q6XNN7OKJ3M7MRU2CR5MWB,3KXIR214I8WOTKZ1PH261AT0G7Y24O,5,6
228,2,object_08,object_07,500.90000000037,3,2,-1.0,0.0,1,object_10,5,2726,0,5,2,forest_8,2,memory-2step-stake-s,735,3314629,0.0-19.0-0.1-0.228,A17TKHT8FEVH0R,3A3KKYU7Q6XNN7OKJ3M7MRU2CR5MWB,3KXIR214I8WOTKZ1PH261AT0G7Y24O,4,3
229,2,object_08,object_07,468.79999999981,3,2,623.69999999925,0.3333333333333333,1,object_10,5,2741,0,3,3,forest_4,2,memory-2step-stake-s,736,3322777,0.0-19.0-0.1-0.229,A17TKHT8FEVH0R,3A3KKYU7Q6XNN7OKJ3M7MRU2CR5MWB,3KXIR214I8WOTKZ1PH261AT0G7Y24O,4,3
230,2,object_08,object_07,574.09999999963,3,2,914.0,0.4444444444444444,1,object_10,5,2761,0,4,7,forest_1,2,memory-2step-stake-s,737,3331312,0.0-19.0-0.1-0.230,A17TKHT8FEVH0R,3A3KKYU7Q6XNN7OKJ3M7MRU2CR5MWB,3KXIR214I8WOTKZ1PH261AT0G7Y24O,4,3
231,3,object_05,object_06,480.89999999944,5,2,595.80000000075,0.3333333333333333,1,object_10,1,2764,0,3,6,library_2,2,memory-2step-stake-s,738,3339426,0.0-19.0-0.1-0.231,A17TKHT8FEVH0R,3A3KKYU7Q6XNN7OKJ3M7MRU2CR5MWB,3KXIR214I8WOTKZ1PH261AT0G7Y24O,6,5
232,1,object_09,object_02,782.59999999963,2,1,-1.0,0.0,2,object_04,5,2764,0,3,5,desert_4,2,memory-2step-stake-s,739,3347939,0.0-19.0-0.1-0.232,A17TKHT8FEVH0R,3A3KKYU7Q6XNN7OKJ3M7MRU2CR5MWB,3KXIR214I8WOTKZ1PH261AT0G7Y24O,2,1
233,2,object_07,object_08,838.0,3,1,935.0,0.6666666666666666,1,object_10,5,2794,0,6,6,forest_1,2,memory-2step-stake-s,740,3356695,0.0-19.0-0.1-0.233,A17TKHT8FEVH0R,3A3KKYU7Q6XNN7OKJ3M7MRU2CR5MWB,3KXIR214I8WOTKZ1PH261AT0G7Y24O,3,4
234,1,object_09,object_02,666.40000000037,2,1,-1.0,0.0,2,object_04,5,2794,0,5,3,desert_3,2,memory-2step-stake-s,741,3365210,0.0-19.0-0.1-0.234,A17TKHT8FEVH0R,3A3KKYU7Q6XNN7OKJ3M7MRU2CR5MWB,3KXIR214I8WOTKZ1PH261AT0G7Y24O,2,1
235,4,object_03,object_01,815.5,7,2,1099.3000000007,0.6666666666666666,1,object_10,5,2824,0,6,0,restaurant_4,2,memory-2step-stake-s,742,3374129,0.0-19.0-0.1-0.235,A17TKHT8FEVH0R,3A3KKYU7Q6XNN7OKJ3M7MRU2CR5MWB,3KXIR214I8WOTKZ1PH261AT0G7Y24O,8,7
236,1,object_09,object_02,928.0,2,1,690.70000000112,0.0,2,object_04,5,2824,0,4,0,desert_5,2,memory-2step-stake-s,743,3382050,0.0-19.0-0.1-0.236,A17TKHT8FEVH0R,3A3KKYU7Q6XNN7OKJ3M7MRU2CR5MWB,3KXIR214I8WOTKZ1PH261AT0G7Y24O,2,1
237,2,object_08,object_07,423.59999999963,3,2,354.90000000037,0.1111111111111111,1,object_10,5,2829,0,1,3,forest_8,2,memory-2step-stake-s,744,3389718,0.0-19.0-0.1-0.237,A17TKHT8FEVH0R,3A3KKYU7Q6XNN7OKJ3M7MRU2CR5MWB,3KXIR214I8WOTKZ1PH261AT0G7Y24O,4,3
238,4,object_03,object_01,620.0,8,1,534.5,0.3333333333333333,2,object_04,1,2832,0,2,3,restaurant_8,2,memory-2step-stake-s,745,3397778,0.0-19.0-0.1-0.238,A17TKHT8FEVH0R,3A3KKYU7Q6XNN7OKJ3M7MRU2CR5MWB,3KXIR214I8WOTKZ1PH261AT0G7Y24O,8,7
239,3,object_05,object_06,526.19999999925,5,2,313.5,0.3333333333333333,1,object_10,5,2847,0,3,6,library_5,2,memory-2step-stake-s,746,3405607,0.0-19.0-0.1-0.239,A17TKHT8FEVH0R,3A3KKYU7Q6XNN7OKJ3M7MRU2CR5MWB,3KXIR214I8WOTKZ1PH261AT0G7Y24O,6,5
240,4,object_03,object_01,274.19999999925,8,1,357.69999999925,0.5555555555555556,2,object_04,1,2852,0,3,5,restaurant_4,2,memory-2step-stake-s,747,3413698,0.0-19.0-0.1-0.240,A17TKHT8FEVH0R,3A3KKYU7Q6XNN7OKJ3M7MRU2CR5MWB,3KXIR214I8WOTKZ1PH261AT0G7Y24O,8,7
241,4,object_01,object_03,246.40000000037,8,2,382.5,0.8888888888888888,2,object_04,1,2860,0,2,8,restaurant_4,2,memory-2step-stake-s,748,3422676,0.0-19.0-0.1-0.241,A17TKHT8FEVH0R,3A3KKYU7Q6XNN7OKJ3M7MRU2CR5MWB,3KXIR214I8WOTKZ1PH261AT0G7Y24O,7,8
242,3,object_06,object_05,1477.0,5,1,728.5,0.2222222222222222,1,object_10,1,2862,0,2,8,library_6,2,memory-2step-stake-s,749,3430823,0.0-19.0-0.1-0.242,A17TKHT8FEVH0R,3A3KKYU7Q6XNN7OKJ3M7MRU2CR5MWB,3KXIR214I8WOTKZ1PH261AT0G7Y24O,5,6
243,4,object_03,object_01,434.19999999925,7,2,470.19999999925,0.0,1,object_10,1,2862,0,0,8,restaurant_4,2,memory-2step-stake-s,750,3438506,0.0-19.0-0.1-0.243,A17TKHT8FEVH0R,3A3KKYU7Q6XNN7OKJ3M7MRU2CR5MWB,3KXIR214I8WOTKZ1PH261AT0G7Y24O,8,7
244,1,object_02,object_09,536.09999999963,2,2,299.09999999963,1.0,2,object_04,1,2871,0,2,9,desert_6,2,memory-2step-stake-s,751,3446931,0.0-19.0-0.1-0.244,A17TKHT8FEVH0R,3A3KKYU7Q6XNN7OKJ3M7MRU2CR5MWB,3KXIR214I8WOTKZ1PH261AT0G7Y24O,1,2
245,4,object_01,object_03,647.0,7,1,336.19999999925,0.1111111111111111,1,object_10,5,2876,0,1,7,restaurant_4,2,memory-2step-stake-s,752,3454583,0.0-19.0-0.1-0.245,A17TKHT8FEVH0R,3A3KKYU7Q6XNN7OKJ3M7MRU2CR5MWB,3KXIR214I8WOTKZ1PH261AT0G7Y24O,7,8
246,3,object_05,object_06,257.5,5,2,357.09999999963,0.2222222222222222,1,object_10,5,2886,0,2,9,library_2,2,memory-2step-stake-s,753,3462357,0.0-19.0-0.1-0.246,A17TKHT8FEVH0R,3A3KKYU7Q6XNN7OKJ3M7MRU2CR5MWB,3KXIR214I8WOTKZ1PH261AT0G7Y24O,6,5
247,3,object_05,object_06,483.19999999925,6,1,334.09999999963,1.0,2,object_04,5,2931,0,2,9,library_2,2,memory-2step-stake-s,754,3470829,0.0-19.0-0.1-0.247,A17TKHT8FEVH0R,3A3KKYU7Q6XNN7OKJ3M7MRU2CR5MWB,3KXIR214I8WOTKZ1PH261AT0G7Y24O,6,5
248,3,object_05,object_06,469.09999999963,5,2,370.19999999925,0.2222222222222222,1,object_10,1,2933,0,2,7,library_8,2,memory-2step-stake-s,755,3478612,0.0-19.0-0.1-0.248,A17TKHT8FEVH0R,3A3KKYU7Q6XNN7OKJ3M7MRU2CR5MWB,3KXIR214I8WOTKZ1PH261AT0G7Y24O,6,5
249,1,object_09,object_02,541.09999999963,1,2,288.19999999925,0.0,1,object_10,5,2933,0,0,8,desert_6,2,memory-2step-stake-s,756,3486120,0.0-19.0-0.1-0.249,A17TKHT8FEVH0R,3A3KKYU7Q6XNN7OKJ3M7MRU2CR5MWB,3KXIR214I8WOTKZ1PH261AT0G7Y24O,2,1
250,3,object_05,object_06,732.69999999925,5,2,919.59999999963,0.2222222222222222,1,object_10,5,2943,0,2,8,library_2,2,memory-2step-stake-s,757,3494479,0.0-19.0-0.1-0.250,A17TKHT8FEVH0R,3A3KKYU7Q6XNN7OKJ3M7MRU2CR5MWB,3KXIR214I8WOTKZ1PH261AT0G7Y24O,6,5
251,2,object_08,object_07,561.5,3,2,749.5,0.1111111111111111,1,object_10,5,2948,0,1,6,forest_8,2,memory-2step-stake-s,758,3502541,0.0-19.0-0.1-0.251,A17TKHT8FEVH0R,3A3KKYU7Q6XNN7OKJ3M7MRU2CR5MWB,3KXIR214I8WOTKZ1PH261AT0G7Y24O,4,3
252,2,object_07,object_08,588.20000000112,3,1,767.39999999851,0.2222222222222222,1,object_10,5,2958,0,2,8,forest_7,2,memory-2step-stake-s,759,3510726,0.0-19.0-0.1-0.252,A17TKHT8FEVH0R,3A3KKYU7Q6XNN7OKJ3M7MRU2CR5MWB,3KXIR214I8WOTKZ1PH261AT0G7Y24O,3,4
253,3,object_06,object_05,803.5,5,1,1390.2999999989,0.4444444444444444,1,object_10,1,2962,0,4,8,library_5,2,memory-2step-stake-s,760,3519742,0.0-19.0-0.1-0.253,A17TKHT8FEVH0R,3A3KKYU7Q6XNN7OKJ3M7MRU2CR5MWB,3KXIR214I8WOTKZ1PH261AT0G7Y24O,5,6
254,3,object_05,object_06,420.30000000075,5,2,382.70000000112,0.5555555555555556,1,object_10,1,2967,0,5,6,library_8,2,memory-2step-stake-s,761,3527843,0.0-19.0-0.1-0.254,A17TKHT8FEVH0R,3A3KKYU7Q6XNN7OKJ3M7MRU2CR5MWB,3KXIR214I8WOTKZ1PH261AT0G7Y24O,6,5
255,2,object_07,object_08,566.0,3,1,-1.0,0.0,1,object_10,1,2967,0,3,6,forest_1,2,memory-2step-stake-s,762,3536357,0.0-19.0-0.1-0.255,A17TKHT8FEVH0R,3A3KKYU7Q6XNN7OKJ3M7MRU2CR5MWB,3KXIR214I8WOTKZ1PH261AT0G7Y24O,3,4
