,state1,stim_left,stim_right,rt_1,choice1,response1,rt_2,points,state2,stim_state2,stake,score,practice,rews1,rews2,background,high_arm,trial_type,trial_index,time_elapsed,internal_node_id,subid,hitid,assignmentid,stim_left_num,stim_right_num
0,3,object_06,object_08,1016.8000001907,5,2,-1.0,0.0,1,object_02,1,0,0,1,6,library_5,2,memory-2step-stake-s,491,1014829,0.0-19.0-0.0-0.0,A2ZDEERVRN5AMC,3X2LT8FDIZY82IMGP2COH9T7SM78W0,38YMOXR4MYFOKN1MMPKSMFT3G3G6W8,6,5
1,4,object_07,object_03,239.59999990463,7,1,361.0,0.4444444444444444,1,object_02,1,4,0,4,8,restaurant_5,2,memory-2step-stake-s,492,1022816,0.0-19.0-0.0-0.1,A2ZDEERVRN5AMC,3X2LT8FDIZY82IMGP2COH9T7SM78W0,38YMOXR4MYFOKN1MMPKSMFT3G3G6W8,7,8
2,1,object_04,object_09,556.59999990463,1,2,335.40000009537,0.2222222222222222,1,object_02,1,6,0,2,8,desert_6,2,memory-2step-stake-s,493,1030573,0.0-19.0-0.0-0.2,A2ZDEERVRN5AMC,3X2LT8FDIZY82IMGP2COH9T7SM78W0,38YMOXR4MYFOKN1MMPKSMFT3G3G6W8,2,1
3,2,object_05,object_01,679.7000002861,4,1,521.19999980927,0.7777777777777778,2,object_10,1,13,0,0,7,forest_7,2,memory-2step-stake-s,494,1039022,0.0-19.0-0.0-0.3,A2ZDEERVRN5AMC,3X2LT8FDIZY82IMGP2COH9T7SM78W0,38YMOXR4MYFOKN1MMPKSMFT3G3G6W8,4,3
4,3,object_08,object_06,744.0,6,2,409.5,0.6666666666666666,2,object_10,1,19,0,0,6,library_2,2,memory-2step-stake-s,495,1047257,0.0-19.0-0.0-0.4,A2ZDEERVRN5AMC,3X2LT8FDIZY82IMGP2COH9T7SM78W0,38YMOXR4MYFOKN1MMPKSMFT3G3G6W8,5,6
5,1,object_09,object_04,803.90000009537,1,1,478.59999990463,0.1111111111111111,1,object_02,5,24,0,1,2,desert_8,2,memory-2step-stake-s,496,1055056,0.0-19.0-0.0-0.5,A2ZDEERVRN5AMC,3X2LT8FDIZY82IMGP2COH9T7SM78W0,38YMOXR4MYFOKN1MMPKSMFT3G3G6W8,1,2
6,2,object_05,object_01,667.7000002861,4,1,444.5,0.2222222222222222,2,object_10,5,34,0,1,2,forest_7,2,memory-2step-stake-s,497,1062925,0.0-19.0-0.0-0.6,A2ZDEERVRN5AMC,3X2LT8FDIZY82IMGP2COH9T7SM78W0,38YMOXR4MYFOKN1MMPKSMFT3G3G6W8,4,3
7,1,object_04,object_09,586.7000002861,1,2,356.09999990463,0.1111111111111111,1,object_02,5,39,0,1,1,desert_8,2,memory-2step-stake-s,498,1070599,0.0-19.0-0.0-0.7,A2ZDEERVRN5AMC,3X2LT8FDIZY82IMGP2COH9T7SM78W0,38YMOXR4MYFOKN1MMPKSMFT3G3G6W8,2,1
8,1,object_09,object_04,862.69999980927,2,2,351.40000009537,0.1111111111111111,2,object_10,5,44,0,3,1,desert_6,2,memory-2step-stake-s,499,1078271,0.0-19.0-0.0-0.8,A2ZDEERVRN5AMC,3X2LT8FDIZY82IMGP2COH9T7SM78W0,38YMOXR4MYFOKN1MMPKSMFT3G3G6W8,1,2
9,2,object_01,object_05,414.0,3,1,413.90000009537,0.2222222222222222,1,object_02,5,54,0,2,4,forest_4,2,memory-2step-stake-s,500,1086107,0.0-19.0-0.0-0.9,A2ZDEERVRN5AMC,3X2LT8FDIZY82IMGP2COH9T7SM78W0,38YMOXR4MYFOKN1MMPKSMFT3G3G6W8,3,4
10,3,object_08,object_06,592.5,6,2,369.5,0.2222222222222222,2,object_10,1,56,0,5,2,library_1,2,memory-2step-stake-s,501,1093900,0.0-19.0-0.0-0.10,A2ZDEERVRN5AMC,3X2LT8FDIZY82IMGP2COH9T7SM78W0,38YMOXR4MYFOKN1MMPKSMFT3G3G6W8,5,6
11,4,object_03,object_07,633.5,8,1,385.69999980927,0.2222222222222222,2,object_10,1,58,0,6,2,restaurant_8,2,memory-2step-stake-s,502,1101709,0.0-19.0-0.0-0.11,A2ZDEERVRN5AMC,3X2LT8FDIZY82IMGP2COH9T7SM78W0,38YMOXR4MYFOKN1MMPKSMFT3G3G6W8,8,7
12,3,object_06,object_08,794.39999961853,5,2,396.09999990463,0.5555555555555556,1,object_02,1,63,0,5,3,library_8,2,memory-2step-stake-s,503,1109828,0.0-19.0-0.0-0.12,A2ZDEERVRN5AMC,3X2LT8FDIZY82IMGP2COH9T7SM78W0,38YMOXR4MYFOKN1MMPKSMFT3G3G6W8,6,5
13,4,object_07,object_03,834.90000009537,8,2,442.90000009537,0.3333333333333333,2,object_10,1,66,0,7,3,restaurant_8,2,memory-2step-stake-s,504,1117793,0.0-19.0-0.0-0.13,A2ZDEERVRN5AMC,3X2LT8FDIZY82IMGP2COH9T7SM78W0,38YMOXR4MYFOKN1MMPKSMFT3G3G6W8,7,8
14,2,object_05,object_01,803.40000009537,3,2,412.40000009537,0.8888888888888888,1,object_02,5,106,0,8,2,forest_3,2,memory-2step-stake-s,505,1126237,0.0-19.0-0.0-0.14,A2ZDEERVRN5AMC,3X2LT8FDIZY82IMGP2COH9T7SM78W0,38YMOXR4MYFOKN1MMPKSMFT3G3G6W8,4,3
15,3,object_08,object_06,888.7000002861,5,1,369.5,0.6666666666666666,1,object_02,1,112,0,6,1,library_2,2,memory-2step-stake-s,506,1134434,0.0-19.0-0.0-0.15,A2ZDEERVRN5AMC,3X2LT8FDIZY82IMGP2COH9T7SM78W0,38YMOXR4MYFOKN1MMPKSMFT3G3G6W8,5,6
16,4,object_07,object_03,834.89999961853,7,1,353.59999990463,0.8888888888888888,1,object_02,1,120,0,8,0,restaurant_5,2,memory-2step-stake-s,507,1142817,0.0-19.0-0.0-0.16,A2ZDEERVRN5AMC,3X2LT8FDIZY82IMGP2COH9T7SM78W0,38YMOXR4MYFOKN1MMPKSMFT3G3G6W8,7,8
17,4,object_03,object_07,531.59999990463,7,2,298.90000009537,1.0,1,object_02,1,129,0,9,4,restaurant_7,2,memory-2step-stake-s,508,1151247,0.0-19.0-0.0-0.17,A2ZDEERVRN5AMC,3X2LT8FDIZY82IMGP2COH9T7SM78W0,38YMOXR4MYFOKN1MMPKSMFT3G3G6W8,8,7
18,4,object_07,object_03,732.40000009537,8,2,304.2000002861,0.4444444444444444,2,object_10,1,133,0,8,4,restaurant_8,2,memory-2step-stake-s,509,1159175,0.0-19.0-0.0-0.18,A2ZDEERVRN5AMC,3X2LT8FDIZY82IMGP2COH9T7SM78W0,38YMOXR4MYFOKN1MMPKSMFT3G3G6W8,7,8
19,1,object_09,object_04,796.90000009537,1,1,646.69999980927,0.7777777777777778,1,object_02,1,140,0,7,4,desert_1,2,memory-2step-stake-s,510,1167751,0.0-19.0-0.0-0.19,A2ZDEERVRN5AMC,3X2LT8FDIZY82IMGP2COH9T7SM78W0,38YMOXR4MYFOKN1MMPKSMFT3G3G6W8,1,2
20,1,object_04,object_09,1022.1000003815,1,2,494.0,1.0,1,object_02,5,185,0,9,4,desert_8,2,memory-2step-stake-s,511,1176378,0.0-19.0-0.0-0.20,A2ZDEERVRN5AMC,3X2LT8FDIZY82IMGP2COH9T7SM78W0,38YMOXR4MYFOKN1MMPKSMFT3G3G6W8,2,1
21,4,object_07,object_03,612.90000009537,7,1,361.7000002861,1.0,1,object_02,1,194,0,9,5,restaurant_8,2,memory-2step-stake-s,512,1184874,0.0-19.0-0.0-0.21,A2ZDEERVRN5AMC,3X2LT8FDIZY82IMGP2COH9T7SM78W0,38YMOXR4MYFOKN1MMPKSMFT3G3G6W8,7,8
22,2,object_05,object_01,1018.4000000954,3,2,436.0,0.8888888888888888,1,object_02,5,234,0,8,5,forest_4,2,memory-2step-stake-s,513,1193340,0.0-19.0-0.0-0.22,A2ZDEERVRN5AMC,3X2LT8FDIZY82IMGP2COH9T7SM78W0,38YMOXR4MYFOKN1MMPKSMFT3G3G6W8,4,3
23,4,object_07,object_03,648.80000019073,7,1,385.5,0.7777777777777778,1,object_02,1,241,0,7,7,restaurant_7,2,memory-2step-stake-s,514,1201653,0.0-19.0-0.0-0.23,A2ZDEERVRN5AMC,3X2LT8FDIZY82IMGP2COH9T7SM78W0,38YMOXR4MYFOKN1MMPKSMFT3G3G6W8,7,8
24,1,object_04,object_09,513.40000009537,1,2,315.0,1.0,1,object_02,5,286,0,9,7,desert_1,2,memory-2step-stake-s,515,1210097,0.0-19.0-0.0-0.24,A2ZDEERVRN5AMC,3X2LT8FDIZY82IMGP2COH9T7SM78W0,38YMOXR4MYFOKN1MMPKSMFT3G3G6W8,2,1
25,4,object_03,object_07,564.89999961853,7,2,391.89999961853,0.8888888888888888,1,object_02,1,294,0,8,6,restaurant_7,2,memory-2step-stake-s,516,1218513,0.0-19.0-0.0-0.25,A2ZDEERVRN5AMC,3X2LT8FDIZY82IMGP2COH9T7SM78W0,38YMOXR4MYFOKN1MMPKSMFT3G3G6W8,8,7
26,3,object_06,object_08,823.59999990463,5,2,531.2000002861,0.6666666666666666,1,object_02,1,300,0,6,7,library_2,2,memory-2step-stake-s,517,1226864,0.0-19.0-0.0-0.26,A2ZDEERVRN5AMC,3X2LT8FDIZY82IMGP2COH9T7SM78W0,38YMOXR4MYFOKN1MMPKSMFT3G3G6W8,6,5
27,3,object_06,object_08,618.0,5,2,787.69999980927,0.2222222222222222,1,object_02,1,302,0,2,2,library_1,2,memory-2step-stake-s,518,1235068,0.0-19.0-0.0-0.27,A2ZDEERVRN5AMC,3X2LT8FDIZY82IMGP2COH9T7SM78W0,38YMOXR4MYFOKN1MMPKSMFT3G3G6W8,6,5
28,2,object_01,object_05,628.80000019073,3,1,351.09999990463,0.2222222222222222,1,object_02,5,312,0,2,5,forest_4,2,memory-2step-stake-s,519,1242835,0.0-19.0-0.0-0.28,A2ZDEERVRN5AMC,3X2LT8FDIZY82IMGP2COH9T7SM78W0,38YMOXR4MYFOKN1MMPKSMFT3G3G6W8,3,4
29,1,object_04,object_09,566.2999997139,1,2,337.7999997139,0.2222222222222222,1,object_02,5,322,0,2,4,desert_8,2,memory-2step-stake-s,520,1250587,0.0-19.0-0.0-0.29,A2ZDEERVRN5AMC,3X2LT8FDIZY82IMGP2COH9T7SM78W0,38YMOXR4MYFOKN1MMPKSMFT3G3G6W8,2,1
30,1,object_04,object_09,637.80000019073,2,1,321.5,0.5555555555555556,2,object_10,5,347,0,3,5,desert_6,2,memory-2step-stake-s,521,1258626,0.0-19.0-0.0-0.30,A2ZDEERVRN5AMC,3X2LT8FDIZY82IMGP2COH9T7SM78W0,38YMOXR4MYFOKN1MMPKSMFT3G3G6W8,2,1
31,4,object_07,object_03,695.39999961853,7,1,314.2999997139,0.3333333333333333,1,object_02,1,350,0,3,4,restaurant_5,2,memory-2step-stake-s,522,1266457,0.0-19.0-0.0-0.31,A2ZDEERVRN5AMC,3X2LT8FDIZY82IMGP2COH9T7SM78W0,38YMOXR4MYFOKN1MMPKSMFT3G3G6W8,7,8
32,3,object_08,object_06,759.5,5,1,435.10000038147,0.5555555555555556,1,object_02,1,355,0,5,1,library_2,2,memory-2step-stake-s,523,1274609,0.0-19.0-0.0-0.32,A2ZDEERVRN5AMC,3X2LT8FDIZY82IMGP2COH9T7SM78W0,38YMOXR4MYFOKN1MMPKSMFT3G3G6W8,5,6
33,4,object_03,object_07,678.2000002861,8,1,346.0,0.1111111111111111,2,object_10,1,356,0,2,1,restaurant_5,2,memory-2step-stake-s,524,1282271,0.0-19.0-0.0-0.33,A2ZDEERVRN5AMC,3X2LT8FDIZY82IMGP2COH9T7SM78W0,38YMOXR4MYFOKN1MMPKSMFT3G3G6W8,8,7
34,4,object_07,object_03,762.2999997139,7,1,534.10000038147,0.2222222222222222,1,object_02,1,358,0,2,1,restaurant_6,2,memory-2step-stake-s,525,1290220,0.0-19.0-0.0-0.34,A2ZDEERVRN5AMC,3X2LT8FDIZY82IMGP2COH9T7SM78W0,38YMOXR4MYFOKN1MMPKSMFT3G3G6W8,7,8
35,1,object_09,object_04,542.19999980927,1,1,313.59999990463,0.3333333333333333,1,object_02,5,373,0,3,2,desert_5,2,memory-2step-stake-s,526,1298049,0.0-19.0-0.0-0.35,A2ZDEERVRN5AMC,3X2LT8FDIZY82IMGP2COH9T7SM78W0,38YMOXR4MYFOKN1MMPKSMFT3G3G6W8,1,2
36,4,object_07,object_03,856.0,7,1,355.2000002861,0.5555555555555556,1,object_02,1,378,0,5,3,restaurant_7,2,memory-2step-stake-s,527,1306122,0.0-19.0-0.0-0.36,A2ZDEERVRN5AMC,3X2LT8FDIZY82IMGP2COH9T7SM78W0,38YMOXR4MYFOKN1MMPKSMFT3G3G6W8,7,8
37,2,object_01,object_05,741.19999980927,3,1,456.40000009537,0.2222222222222222,1,object_02,5,388,0,2,3,forest_3,2,memory-2step-stake-s,528,1313994,0.0-19.0-0.0-0.37,A2ZDEERVRN5AMC,3X2LT8FDIZY82IMGP2COH9T7SM78W0,38YMOXR4MYFOKN1MMPKSMFT3G3G6W8,3,4
38,3,object_06,object_08,743.09999990463,6,1,466.09999990463,0.3333333333333333,2,object_10,1,391,0,2,3,library_5,2,memory-2step-stake-s,529,1321977,0.0-19.0-0.0-0.38,A2ZDEERVRN5AMC,3X2LT8FDIZY82IMGP2COH9T7SM78W0,38YMOXR4MYFOKN1MMPKSMFT3G3G6W8,6,5
39,1,object_04,object_09,607.39999961853,1,2,354.40000009537,0.2222222222222222,1,object_02,1,393,0,2,3,desert_5,2,memory-2step-stake-s,530,1329747,0.0-19.0-0.0-0.39,A2ZDEERVRN5AMC,3X2LT8FDIZY82IMGP2COH9T7SM78W0,38YMOXR4MYFOKN1MMPKSMFT3G3G6W8,2,1
40,4,object_03,object_07,677.10000038147,7,2,392.7000002861,0.4444444444444444,1,object_02,5,413,0,4,1,restaurant_8,2,memory-2step-stake-s,531,1337756,0.0-19.0-0.0-0.40,A2ZDEERVRN5AMC,3X2LT8FDIZY82IMGP2COH9T7SM78W0,38YMOXR4MYFOKN1MMPKSMFT3G3G6W8,8,7
41,2,object_01,object_05,604.0,4,2,254.59999990463,0.3333333333333333,2,object_10,1,416,0,1,3,forest_7,2,memory-2step-stake-s,532,1345528,0.0-19.0-0.0-0.41,A2ZDEERVRN5AMC,3X2LT8FDIZY82IMGP2COH9T7SM78W0,38YMOXR4MYFOKN1MMPKSMFT3G3G6W8,3,4
42,3,object_06,object_08,744.90000009537,6,1,292.10000038147,0.2222222222222222,2,object_10,1,418,0,2,2,library_8,2,memory-2step-stake-s,533,1353234,0.0-19.0-0.0-0.42,A2ZDEERVRN5AMC,3X2LT8FDIZY82IMGP2COH9T7SM78W0,38YMOXR4MYFOKN1MMPKSMFT3G3G6W8,6,5
43,4,object_07,object_03,828.0,7,1,294.40000009537,0.1111111111111111,1,object_02,1,419,0,1,5,restaurant_5,2,memory-2step-stake-s,534,1360845,0.0-19.0-0.0-0.43,A2ZDEERVRN5AMC,3X2LT8FDIZY82IMGP2COH9T7SM78W0,38YMOXR4MYFOKN1MMPKSMFT3G3G6W8,7,8
44,2,object_01,object_05,691.0,3,1,333.10000038147,0.1111111111111111,1,object_02,5,424,0,1,7,forest_8,2,memory-2step-stake-s,535,1368493,0.0-19.0-0.0-0.44,A2ZDEERVRN5AMC,3X2LT8FDIZY82IMGP2COH9T7SM78W0,38YMOXR4MYFOKN1MMPKSMFT3G3G6W8,3,4
45,1,object_09,object_04,697.7999997139,2,2,324.40000009537,0.7777777777777778,2,object_10,5,459,0,0,7,desert_1,2,memory-2step-stake-s,536,1376738,0.0-19.0-0.0-0.45,A2ZDEERVRN5AMC,3X2LT8FDIZY82IMGP2COH9T7SM78W0,38YMOXR4MYFOKN1MMPKSMFT3G3G6W8,1,2
46,2,object_05,object_01,772.40000009537,4,1,384.09999990463,1.0,2,object_10,5,504,0,1,9,forest_3,2,memory-2step-stake-s,537,1385244,0.0-19.0-0.0-0.46,A2ZDEERVRN5AMC,3X2LT8FDIZY82IMGP2COH9T7SM78W0,38YMOXR4MYFOKN1MMPKSMFT3G3G6W8,4,3
47,3,object_06,object_08,785.59999990463,6,1,333.90000009537,0.7777777777777778,2,object_10,1,511,0,2,7,library_8,2,memory-2step-stake-s,538,1393499,0.0-19.0-0.0-0.47,A2ZDEERVRN5AMC,3X2LT8FDIZY82IMGP2COH9T7SM78W0,38YMOXR4MYFOKN1MMPKSMFT3G3G6W8,6,5
48,4,object_07,object_03,819.0,8,2,453.90000009537,1.0,2,object_10,1,520,0,0,9,restaurant_5,2,memory-2step-stake-s,539,1402078,0.0-19.0-0.0-0.48,A2ZDEERVRN5AMC,3X2LT8FDIZY82IMGP2COH9T7SM78W0,38YMOXR4MYFOKN1MMPKSMFT3G3G6W8,7,8
49,1,object_09,object_04,745.59999990463,2,2,348.39999961853,0.7777777777777778,2,object_10,1,527,0,0,7,desert_5,2,memory-2step-stake-s,540,1410348,0.0-19.0-0.0-0.49,A2ZDEERVRN5AMC,3X2LT8FDIZY82IMGP2COH9T7SM78W0,38YMOXR4MYFOKN1MMPKSMFT3G3G6W8,1,2
50,3,object_06,object_08,570.2000002861,5,2,309.89999961853,0.0,1,object_02,1,527,0,0,9,library_8,2,memory-2step-stake-s,541,1417872,0.0-19.0-0.0-0.50,A2ZDEERVRN5AMC,3X2LT8FDIZY82IMGP2COH9T7SM78W0,38YMOXR4MYFOKN1MMPKSMFT3G3G6W8,6,5
51,4,object_07,object_03,830.10000038147,8,2,553.40000009537,0.6666666666666666,2,object_10,1,533,0,6,6,restaurant_8,2,memory-2step-stake-s,542,1426245,0.0-19.0-0.0-0.51,A2ZDEERVRN5AMC,3X2LT8FDIZY82IMGP2COH9T7SM78W0,38YMOXR4MYFOKN1MMPKSMFT3G3G6W8,7,8
52,2,object_05,object_01,920.0,4,1,426.80000019073,0.4444444444444444,2,object_10,5,553,0,4,4,forest_4,2,memory-2step-stake-s,543,1434293,0.0-19.0-0.0-0.52,A2ZDEERVRN5AMC,3X2LT8FDIZY82IMGP2COH9T7SM78W0,38YMOXR4MYFOKN1MMPKSMFT3G3G6W8,4,3
53,4,object_03,object_07,963.69999980927,8,1,422.30000019073,0.5555555555555556,2,object_10,1,558,0,6,5,restaurant_6,2,memory-2step-stake-s,544,1442432,0.0-19.0-0.0-0.53,A2ZDEERVRN5AMC,3X2LT8FDIZY82IMGP2COH9T7SM78W0,38YMOXR4MYFOKN1MMPKSMFT3G3G6W8,8,7
54,4,object_07,object_03,660.59999990463,8,2,327.5,0.3333333333333333,2,object_10,1,561,0,6,3,restaurant_5,2,memory-2step-stake-s,545,1450279,0.0-19.0-0.0-0.54,A2ZDEERVRN5AMC,3X2LT8FDIZY82IMGP2COH9T7SM78W0,38YMOXR4MYFOKN1MMPKSMFT3G3G6W8,7,8
55,4,object_03,object_07,623.0,8,1,401.30000019073,0.3333333333333333,2,object_10,1,564,0,6,3,restaurant_8,2,memory-2step-stake-s,546,1458197,0.0-19.0-0.0-0.55,A2ZDEERVRN5AMC,3X2LT8FDIZY82IMGP2COH9T7SM78W0,38YMOXR4MYFOKN1MMPKSMFT3G3G6W8,8,7
56,2,object_01,object_05,663.59999990463,4,2,314.2999997139,0.0,2,object_10,5,564,0,6,0,forest_4,2,memory-2step-stake-s,547,1465729,0.0-19.0-0.0-0.56,A2ZDEERVRN5AMC,3X2LT8FDIZY82IMGP2COH9T7SM78W0,38YMOXR4MYFOKN1MMPKSMFT3G3G6W8,3,4
57,4,object_07,object_03,646.5,7,1,289.5,0.6666666666666666,1,object_02,5,594,0,6,2,restaurant_8,2,memory-2step-stake-s,548,1473839,0.0-19.0-0.0-0.57,A2ZDEERVRN5AMC,3X2LT8FDIZY82IMGP2COH9T7SM78W0,38YMOXR4MYFOKN1MMPKSMFT3G3G6W8,7,8
58,3,object_06,object_08,998.09999990463,6,1,330.0,0.1111111111111111,2,object_10,1,595,0,5,1,library_1,2,memory-2step-stake-s,549,1481485,0.0-19.0-0.0-0.58,A2ZDEERVRN5AMC,3X2LT8FDIZY82IMGP2COH9T7SM78W0,38YMOXR4MYFOKN1MMPKSMFT3G3G6W8,6,5
59,2,object_05,object_01,808.59999990463,3,2,387.39999961853,0.6666666666666666,1,object_02,5,625,0,6,1,forest_4,2,memory-2step-stake-s,550,1489694,0.0-19.0-0.0-0.59,A2ZDEERVRN5AMC,3X2LT8FDIZY82IMGP2COH9T7SM78W0,38YMOXR4MYFOKN1MMPKSMFT3G3G6W8,4,3
60,3,object_08,object_06,984.80000019073,5,1,452.2000002861,0.6666666666666666,1,object_02,1,631,0,6,1,library_2,2,memory-2step-stake-s,551,1497967,0.0-19.0-0.0-0.60,A2ZDEERVRN5AMC,3X2LT8FDIZY82IMGP2COH9T7SM78W0,38YMOXR4MYFOKN1MMPKSMFT3G3G6W8,5,6
61,2,object_01,object_05,951.0,3,1,384.09999990463,1.0,1,object_02,5,676,0,9,1,forest_4,2,memory-2step-stake-s,552,1506476,0.0-19.0-0.0-0.61,A2ZDEERVRN5AMC,3X2LT8FDIZY82IMGP2COH9T7SM78W0,38YMOXR4MYFOKN1MMPKSMFT3G3G6W8,3,4
62,3,object_06,object_08,617.0,5,2,395.7999997139,1.0,1,object_02,1,685,0,9,2,library_2,2,memory-2step-stake-s,553,1514997,0.0-19.0-0.0-0.62,A2ZDEERVRN5AMC,3X2LT8FDIZY82IMGP2COH9T7SM78W0,38YMOXR4MYFOKN1MMPKSMFT3G3G6W8,6,5
63,3,object_08,object_06,712.2000002861,5,1,804.09999990463,1.0,1,object_02,1,694,0,9,0,library_1,2,memory-2step-stake-s,554,1523925,0.0-19.0-0.0-0.63,A2ZDEERVRN5AMC,3X2LT8FDIZY82IMGP2COH9T7SM78W0,38YMOXR4MYFOKN1MMPKSMFT3G3G6W8,5,6
64,3,object_06,object_08,689.5,5,2,314.80000019073,0.8888888888888888,1,object_02,1,702,0,8,2,library_5,2,memory-2step-stake-s,555,1532265,0.0-19.0-0.0-0.64,A2ZDEERVRN5AMC,3X2LT8FDIZY82IMGP2COH9T7SM78W0,38YMOXR4MYFOKN1MMPKSMFT3G3G6W8,6,5
65,4,object_03,object_07,739.7999997139,7,2,309.0,0.7777777777777778,1,object_02,5,737,0,7,3,restaurant_8,2,memory-2step-stake-s,556,1540503,0.0-19.0-0.0-0.65,A2ZDEERVRN5AMC,3X2LT8FDIZY82IMGP2COH9T7SM78W0,38YMOXR4MYFOKN1MMPKSMFT3G3G6W8,8,7
66,4,object_03,object_07,855.30000019073,7,2,481.19999980927,0.5555555555555556,1,object_02,1,742,0,5,4,restaurant_5,2,memory-2step-stake-s,557,1548704,0.0-19.0-0.0-0.66,A2ZDEERVRN5AMC,3X2LT8FDIZY82IMGP2COH9T7SM78W0,38YMOXR4MYFOKN1MMPKSMFT3G3G6W8,8,7
67,2,object_05,object_01,669.7000002861,3,2,312.0,0.7777777777777778,1,object_02,5,777,0,7,2,forest_3,2,memory-2step-stake-s,558,1556939,0.0-19.0-0.0-0.67,A2ZDEERVRN5AMC,3X2LT8FDIZY82IMGP2COH9T7SM78W0,38YMOXR4MYFOKN1MMPKSMFT3G3G6W8,4,3
68,2,object_01,object_05,826.09999990463,3,1,629.0,0.7777777777777778,1,object_02,5,812,0,7,3,forest_7,2,memory-2step-stake-s,559,1565489,0.0-19.0-0.0-0.68,A2ZDEERVRN5AMC,3X2LT8FDIZY82IMGP2COH9T7SM78W0,38YMOXR4MYFOKN1MMPKSMFT3G3G6W8,3,4
69,1,object_09,object_04,707.5,1,1,415.19999980927,0.8888888888888888,1,object_02,5,852,0,8,2,desert_6,2,memory-2step-stake-s,560,1573927,0.0-19.0-0.0-0.69,A2ZDEERVRN5AMC,3X2LT8FDIZY82IMGP2COH9T7SM78W0,38YMOXR4MYFOKN1MMPKSMFT3G3G6W8,1,2
70,4,object_07,object_03,695.2000002861,7,1,595.0,0.6666666666666666,1,object_02,1,858,0,6,3,restaurant_8,2,memory-2step-stake-s,561,1582342,0.0-19.0-0.0-0.70,A2ZDEERVRN5AMC,3X2LT8FDIZY82IMGP2COH9T7SM78W0,38YMOXR4MYFOKN1MMPKSMFT3G3G6W8,7,8
71,3,object_06,object_08,678.09999990463,5,2,496.7000002861,0.4444444444444444,1,object_02,1,862,0,4,1,library_8,2,memory-2step-stake-s,562,1590460,0.0-19.0-0.0-0.71,A2ZDEERVRN5AMC,3X2LT8FDIZY82IMGP2COH9T7SM78W0,38YMOXR4MYFOKN1MMPKSMFT3G3G6W8,6,5
72,1,object_09,object_04,802.69999980927,1,1,300.19999980927,0.8888888888888888,1,object_02,5,902,0,8,3,desert_5,2,memory-2step-stake-s,563,1598784,0.0-19.0-0.0-0.72,A2ZDEERVRN5AMC,3X2LT8FDIZY82IMGP2COH9T7SM78W0,38YMOXR4MYFOKN1MMPKSMFT3G3G6W8,1,2
73,2,object_01,object_05,851.80000019073,3,1,412.90000009537,0.7777777777777778,1,object_02,5,937,0,7,1,forest_4,2,memory-2step-stake-s,564,1607123,0.0-19.0-0.0-0.73,A2ZDEERVRN5AMC,3X2LT8FDIZY82IMGP2COH9T7SM78W0,38YMOXR4MYFOKN1MMPKSMFT3G3G6W8,3,4
74,1,object_09,object_04,654.69999980927,1,1,487.30000019073,0.6666666666666666,1,object_02,1,943,0,6,0,desert_6,2,memory-2step-stake-s,565,1615436,0.0-19.0-0.0-0.74,A2ZDEERVRN5AMC,3X2LT8FDIZY82IMGP2COH9T7SM78W0,38YMOXR4MYFOKN1MMPKSMFT3G3G6W8,1,2
75,4,object_03,object_07,734.80000019073,7,2,546.30000019073,0.5555555555555556,1,object_02,1,948,0,5,2,restaurant_7,2,memory-2step-stake-s,566,1623704,0.0-19.0-0.0-0.75,A2ZDEERVRN5AMC,3X2LT8FDIZY82IMGP2COH9T7SM78W0,38YMOXR4MYFOKN1MMPKSMFT3G3G6W8,8,7
76,3,object_08,object_06,796.90000009537,5,1,430.19999980927,0.3333333333333333,1,object_02,1,951,0,3,2,library_2,2,memory-2step-stake-s,567,1631653,0.0-19.0-0.0-0.76,A2ZDEERVRN5AMC,3X2LT8FDIZY82IMGP2COH9T7SM78W0,38YMOXR4MYFOKN1MMPKSMFT3G3G6W8,5,6
77,4,object_03,object_07,511.2000002861,7,2,298.40000009537,0.5555555555555556,1,object_02,1,956,0,5,5,restaurant_8,2,memory-2step-stake-s,568,1639672,0.0-19.0-0.0-0.77,A2ZDEERVRN5AMC,3X2LT8FDIZY82IMGP2COH9T7SM78W0,38YMOXR4MYFOKN1MMPKSMFT3G3G6W8,8,7
78,4,object_07,object_03,713.7000002861,7,1,446.59999990463,0.5555555555555556,1,object_02,1,961,0,5,5,restaurant_6,2,memory-2step-stake-s,569,1647847,0.0-19.0-0.0-0.78,A2ZDEERVRN5AMC,3X2LT8FDIZY82IMGP2COH9T7SM78W0,38YMOXR4MYFOKN1MMPKSMFT3G3G6W8,7,8
79,3,object_08,object_06,892.80000019073,5,1,349.5,0.5555555555555556,1,object_02,1,966,0,5,8,library_2,2,memory-2step-stake-s,570,1655920,0.0-19.0-0.0-0.79,A2ZDEERVRN5AMC,3X2LT8FDIZY82IMGP2COH9T7SM78W0,38YMOXR4MYFOKN1MMPKSMFT3G3G6W8,5,6
80,1,object_09,object_04,628.30000019073,1,1,334.90000009537,1.0,1,object_02,5,1011,0,9,6,desert_8,2,memory-2step-stake-s,571,1664380,0.0-19.0-0.0-0.80,A2ZDEERVRN5AMC,3X2LT8FDIZY82IMGP2COH9T7SM78W0,38YMOXR4MYFOKN1MMPKSMFT3G3G6W8,1,2
81,1,object_04,object_09,600.2000002861,1,2,306.7999997139,0.7777777777777778,1,object_02,5,1046,0,7,7,desert_5,2,memory-2step-stake-s,572,1672611,0.0-19.0-0.0-0.81,A2ZDEERVRN5AMC,3X2LT8FDIZY82IMGP2COH9T7SM78W0,38YMOXR4MYFOKN1MMPKSMFT3G3G6W8,2,1
82,2,object_01,object_05,791.30000019073,3,1,386.2999997139,0.8888888888888888,1,object_02,1,1054,0,8,6,forest_8,2,memory-2step-stake-s,573,1681022,0.0-19.0-0.0-0.82,A2ZDEERVRN5AMC,3X2LT8FDIZY82IMGP2COH9T7SM78W0,38YMOXR4MYFOKN1MMPKSMFT3G3G6W8,3,4
83,1,object_04,object_09,668.7000002861,1,2,270.80000019073,0.7777777777777778,1,object_02,1,1061,0,7,7,desert_8,2,memory-2step-stake-s,574,1689217,0.0-19.0-0.0-0.83,A2ZDEERVRN5AMC,3X2LT8FDIZY82IMGP2COH9T7SM78W0,38YMOXR4MYFOKN1MMPKSMFT3G3G6W8,2,1
84,1,object_04,object_09,536.7999997139,1,2,360.2000002861,0.7777777777777778,1,object_02,5,1096,0,7,6,desert_6,2,memory-2step-stake-s,575,1697505,0.0-19.0-0.0-0.84,A2ZDEERVRN5AMC,3X2LT8FDIZY82IMGP2COH9T7SM78W0,38YMOXR4MYFOKN1MMPKSMFT3G3G6W8,2,1
85,1,object_09,object_04,754.30000019073,1,1,517.69999980927,1.0,1,object_02,5,1141,0,9,9,desert_8,2,memory-2step-stake-s,576,1706148,0.0-19.0-0.0-0.85,A2ZDEERVRN5AMC,3X2LT8FDIZY82IMGP2COH9T7SM78W0,38YMOXR4MYFOKN1MMPKSMFT3G3G6W8,1,2
86,2,object_01,object_05,695.80000019073,3,1,745.69999980927,0.6666666666666666,1,object_02,1,1147,0,6,8,forest_7,2,memory-2step-stake-s,577,1714718,0.0-19.0-0.0-0.86,A2ZDEERVRN5AMC,3X2LT8FDIZY82IMGP2COH9T7SM78W0,38YMOXR4MYFOKN1MMPKSMFT3G3G6W8,3,4
87,1,object_09,object_04,676.89999961853,1,1,831.80000019073,0.4444444444444444,1,object_02,1,1151,0,4,7,desert_1,2,memory-2step-stake-s,578,1723172,0.0-19.0-0.0-0.87,A2ZDEERVRN5AMC,3X2LT8FDIZY82IMGP2COH9T7SM78W0,38YMOXR4MYFOKN1MMPKSMFT3G3G6W8,1,2
88,1,object_04,object_09,531.0,1,2,302.09999990463,0.4444444444444444,1,object_02,5,1171,0,4,6,desert_6,2,memory-2step-stake-s,579,1731090,0.0-19.0-0.0-0.88,A2ZDEERVRN5AMC,3X2LT8FDIZY82IMGP2COH9T7SM78W0,38YMOXR4MYFOKN1MMPKSMFT3G3G6W8,2,1
89,3,object_06,object_08,788.90000009537,6,1,360.90000009537,0.5555555555555556,2,object_10,1,1176,0,2,5,library_1,2,memory-2step-stake-s,580,1739166,0.0-19.0-0.0-0.89,A2ZDEERVRN5AMC,3X2LT8FDIZY82IMGP2COH9T7SM78W0,38YMOXR4MYFOKN1MMPKSMFT3G3G6W8,6,5
90,4,object_03,object_07,799.60000038147,8,1,346.80000019073,0.5555555555555556,2,object_10,5,1201,0,2,5,restaurant_7,2,memory-2step-stake-s,581,1747231,0.0-19.0-0.0-0.90,A2ZDEERVRN5AMC,3X2LT8FDIZY82IMGP2COH9T7SM78W0,38YMOXR4MYFOKN1MMPKSMFT3G3G6W8,8,7
91,3,object_06,object_08,846.40000009537,6,1,362.5,0.8888888888888888,2,object_10,1,1209,0,1,8,library_1,2,memory-2step-stake-s,582,1755613,0.0-19.0-0.0-0.91,A2ZDEERVRN5AMC,3X2LT8FDIZY82IMGP2COH9T7SM78W0,38YMOXR4MYFOKN1MMPKSMFT3G3G6W8,6,5
92,3,object_08,object_06,856.7999997139,6,2,363.69999980927,0.5555555555555556,2,object_10,1,1214,0,0,5,library_1,2,memory-2step-stake-s,583,1763696,0.0-19.0-0.0-0.92,A2ZDEERVRN5AMC,3X2LT8FDIZY82IMGP2COH9T7SM78W0,38YMOXR4MYFOKN1MMPKSMFT3G3G6W8,5,6
93,3,object_06,object_08,702.69999980927,6,1,434.59999990463,0.7777777777777778,2,object_10,1,1221,0,1,7,library_5,2,memory-2step-stake-s,584,1772050,0.0-19.0-0.0-0.93,A2ZDEERVRN5AMC,3X2LT8FDIZY82IMGP2COH9T7SM78W0,38YMOXR4MYFOKN1MMPKSMFT3G3G6W8,6,5
94,1,object_09,object_04,681.2999997139,1,1,388.90000009537,0.1111111111111111,1,object_02,5,1226,0,1,5,desert_6,2,memory-2step-stake-s,585,1779755,0.0-19.0-0.0-0.94,A2ZDEERVRN5AMC,3X2LT8FDIZY82IMGP2COH9T7SM78W0,38YMOXR4MYFOKN1MMPKSMFT3G3G6W8,1,2
95,3,object_06,object_08,865.69999980927,6,1,573.2999997139,0.5555555555555556,2,object_10,1,1231,0,2,5,library_1,2,memory-2step-stake-s,586,1788047,0.0-19.0-0.0-0.95,A2ZDEERVRN5AMC,3X2LT8FDIZY82IMGP2COH9T7SM78W0,38YMOXR4MYFOKN1MMPKSMFT3G3G6W8,6,5
96,3,object_06,object_08,1103.8999996185,6,1,546.69999980927,0.7777777777777778,2,object_10,1,1238,0,2,7,library_2,2,memory-2step-stake-s,587,1796513,0.0-19.0-0.0-0.96,A2ZDEERVRN5AMC,3X2LT8FDIZY82IMGP2COH9T7SM78W0,38YMOXR4MYFOKN1MMPKSMFT3G3G6W8,6,5
97,2,object_01,object_05,1050.2000002861,4,2,702.69999980927,0.8888888888888888,2,object_10,5,1278,0,4,8,forest_7,2,memory-2step-stake-s,588,1805239,0.0-19.0-0.0-0.97,A2ZDEERVRN5AMC,3X2LT8FDIZY82IMGP2COH9T7SM78W0,38YMOXR4MYFOKN1MMPKSMFT3G3G6W8,3,4
98,3,object_08,object_06,1221.5,6,2,640.40000009537,0.7777777777777778,2,object_10,1,1285,0,1,7,library_5,2,memory-2step-stake-s,589,1813800,0.0-19.0-0.0-0.98,A2ZDEERVRN5AMC,3X2LT8FDIZY82IMGP2COH9T7SM78W0,38YMOXR4MYFOKN1MMPKSMFT3G3G6W8,5,6
99,2,object_05,object_01,739.2999997139,4,1,343.2000002861,0.7777777777777778,2,object_10,1,1292,0,2,7,forest_7,2,memory-2step-stake-s,590,1822064,0.0-19.0-0.0-0.99,A2ZDEERVRN5AMC,3X2LT8FDIZY82IMGP2COH9T7SM78W0,38YMOXR4MYFOKN1MMPKSMFT3G3G6W8,4,3
100,3,object_06,object_08,715.80000019073,6,1,470.5,0.6666666666666666,2,object_10,1,1298,0,3,6,library_8,2,memory-2step-stake-s,591,1830355,0.0-19.0-0.0-0.100,A2ZDEERVRN5AMC,3X2LT8FDIZY82IMGP2COH9T7SM78W0,38YMOXR4MYFOKN1MMPKSMFT3G3G6W8,6,5
101,3,object_06,object_08,600.10000038147,6,1,356.0,0.5555555555555556,2,object_10,1,1303,0,4,5,library_1,2,memory-2step-stake-s,592,1838430,0.0-19.0-0.0-0.101,A2ZDEERVRN5AMC,3X2LT8FDIZY82IMGP2COH9T7SM78W0,38YMOXR4MYFOKN1MMPKSMFT3G3G6W8,6,5
102,3,object_06,object_08,725.2999997139,6,1,-1.0,0.0,2,object_10,1,1303,0,1,5,library_5,2,memory-2step-stake-s,593,1846944,0.0-19.0-0.0-0.102,A2ZDEERVRN5AMC,3X2LT8FDIZY82IMGP2COH9T7SM78W0,38YMOXR4MYFOKN1MMPKSMFT3G3G6W8,6,5
103,2,object_01,object_05,1117.5,4,2,384.7999997139,0.7777777777777778,2,object_10,5,1338,0,0,7,forest_8,2,memory-2step-stake-s,594,1855248,0.0-19.0-0.0-0.103,A2ZDEERVRN5AMC,3X2LT8FDIZY82IMGP2COH9T7SM78W0,38YMOXR4MYFOKN1MMPKSMFT3G3G6W8,3,4
104,3,object_06,object_08,706.59999990463,6,1,341.5,0.6666666666666666,2,object_10,1,1344,0,0,6,library_2,2,memory-2step-stake-s,595,1863410,0.0-19.0-0.0-0.104,A2ZDEERVRN5AMC,3X2LT8FDIZY82IMGP2COH9T7SM78W0,38YMOXR4MYFOKN1MMPKSMFT3G3G6W8,6,5
105,3,object_06,object_08,641.59999990463,6,1,637.19999980927,0.6666666666666666,2,object_10,1,1350,0,2,6,library_5,2,memory-2step-stake-s,596,1871866,0.0-19.0-0.0-0.105,A2ZDEERVRN5AMC,3X2LT8FDIZY82IMGP2COH9T7SM78W0,38YMOXR4MYFOKN1MMPKSMFT3G3G6W8,6,5
106,3,object_08,object_06,815.5,6,2,499.0,0.5555555555555556,2,object_10,1,1355,0,3,5,library_8,2,memory-2step-stake-s,597,1880085,0.0-19.0-0.0-0.106,A2ZDEERVRN5AMC,3X2LT8FDIZY82IMGP2COH9T7SM78W0,38YMOXR4MYFOKN1MMPKSMFT3G3G6W8,5,6
107,4,object_03,object_07,709.2000002861,8,1,375.5,0.4444444444444444,2,object_10,1,1359,0,0,4,restaurant_6,2,memory-2step-stake-s,598,1888081,0.0-19.0-0.0-0.107,A2ZDEERVRN5AMC,3X2LT8FDIZY82IMGP2COH9T7SM78W0,38YMOXR4MYFOKN1MMPKSMFT3G3G6W8,8,7
108,4,object_03,object_07,459.09999990463,7,2,327.40000009537,0.0,1,object_02,1,1359,0,0,2,restaurant_6,2,memory-2step-stake-s,599,1895621,0.0-19.0-0.0-0.108,A2ZDEERVRN5AMC,3X2LT8FDIZY82IMGP2COH9T7SM78W0,38YMOXR4MYFOKN1MMPKSMFT3G3G6W8,8,7
109,4,object_03,object_07,727.80000019073,8,1,802.7999997139,0.5555555555555556,2,object_10,1,1364,0,2,5,restaurant_8,2,memory-2step-stake-s,600,1904142,0.0-19.0-0.0-0.109,A2ZDEERVRN5AMC,3X2LT8FDIZY82IMGP2COH9T7SM78W0,38YMOXR4MYFOKN1MMPKSMFT3G3G6W8,8,7
110,1,object_04,object_09,597.30000019073,1,2,281.59999990463,0.1111111111111111,1,object_02,5,1369,0,1,5,desert_1,2,memory-2step-stake-s,601,1911739,0.0-19.0-0.0-0.110,A2ZDEERVRN5AMC,3X2LT8FDIZY82IMGP2COH9T7SM78W0,38YMOXR4MYFOKN1MMPKSMFT3G3G6W8,2,1
111,2,object_05,object_01,839.59999990463,4,1,347.69999980927,0.7777777777777778,2,object_10,5,1404,0,1,7,forest_3,2,memory-2step-stake-s,602,1920008,0.0-19.0-0.0-0.111,A2ZDEERVRN5AMC,3X2LT8FDIZY82IMGP2COH9T7SM78W0,38YMOXR4MYFOKN1MMPKSMFT3G3G6W8,4,3
112,1,object_04,object_09,731.80000019073,2,1,260.90000009537,0.7777777777777778,2,object_10,5,1439,0,0,7,desert_1,2,memory-2step-stake-s,603,1928191,0.0-19.0-0.0-0.112,A2ZDEERVRN5AMC,3X2LT8FDIZY82IMGP2COH9T7SM78W0,38YMOXR4MYFOKN1MMPKSMFT3G3G6W8,2,1
113,3,object_08,object_06,978.59999990463,6,2,814.90000009537,0.5555555555555556,2,object_10,1,1444,0,0,5,library_1,2,memory-2step-stake-s,604,1936725,0.0-19.0-0.0-0.113,A2ZDEERVRN5AMC,3X2LT8FDIZY82IMGP2COH9T7SM78W0,38YMOXR4MYFOKN1MMPKSMFT3G3G6W8,5,6
114,4,object_03,object_07,651.30000019073,8,1,109.69999980927,0.4444444444444444,2,object_10,5,1464,0,2,4,restaurant_6,2,memory-2step-stake-s,605,1944456,0.0-19.0-0.0-0.114,A2ZDEERVRN5AMC,3X2LT8FDIZY82IMGP2COH9T7SM78W0,38YMOXR4MYFOKN1MMPKSMFT3G3G6W8,8,7
115,1,object_04,object_09,691.59999990463,2,1,518.59999990463,0.4444444444444444,2,object_10,1,1468,0,2,4,desert_6,2,memory-2step-stake-s,606,1952593,0.0-19.0-0.0-0.115,A2ZDEERVRN5AMC,3X2LT8FDIZY82IMGP2COH9T7SM78W0,38YMOXR4MYFOKN1MMPKSMFT3G3G6W8,2,1
116,4,object_03,object_07,673.80000019073,8,1,365.10000038147,0.5555555555555556,2,object_10,1,1473,0,0,5,restaurant_7,2,memory-2step-stake-s,607,1960677,0.0-19.0-0.0-0.116,A2ZDEERVRN5AMC,3X2LT8FDIZY82IMGP2COH9T7SM78W0,38YMOXR4MYFOKN1MMPKSMFT3G3G6W8,8,7
117,1,object_09,object_04,734.0,2,2,280.40000009537,0.7777777777777778,2,object_10,5,1508,0,4,7,desert_6,2,memory-2step-stake-s,608,1968881,0.0-19.0-0.0-0.117,A2ZDEERVRN5AMC,3X2LT8FDIZY82IMGP2COH9T7SM78W0,38YMOXR4MYFOKN1MMPKSMFT3G3G6W8,1,2
118,2,object_05,object_01,806.80000019073,4,1,481.69999980927,0.8888888888888888,2,object_10,5,1548,0,4,8,forest_3,2,memory-2step-stake-s,609,1977388,0.0-19.0-0.0-0.118,A2ZDEERVRN5AMC,3X2LT8FDIZY82IMGP2COH9T7SM78W0,38YMOXR4MYFOKN1MMPKSMFT3G3G6W8,4,3
119,1,object_09,object_04,750.19999980927,2,2,336.09999990463,0.5555555555555556,2,object_10,5,1573,0,1,5,desert_6,2,memory-2step-stake-s,610,1985443,0.0-19.0-0.0-0.119,A2ZDEERVRN5AMC,3X2LT8FDIZY82IMGP2COH9T7SM78W0,38YMOXR4MYFOKN1MMPKSMFT3G3G6W8,1,2
120,1,object_09,object_04,711.09999990463,2,2,449.90000009537,0.5555555555555556,2,object_10,5,1598,0,1,5,desert_6,2,memory-2step-stake-s,611,1993612,0.0-19.0-0.0-0.120,A2ZDEERVRN5AMC,3X2LT8FDIZY82IMGP2COH9T7SM78W0,38YMOXR4MYFOKN1MMPKSMFT3G3G6W8,1,2
121,1,object_04,object_09,652.40000009537,2,1,319.40000009537,0.4444444444444444,2,object_10,5,1618,0,3,4,desert_1,2,memory-2step-stake-s,612,2001551,0.0-19.0-0.0-0.121,A2ZDEERVRN5AMC,3X2LT8FDIZY82IMGP2COH9T7SM78W0,38YMOXR4MYFOKN1MMPKSMFT3G3G6W8,2,1
122,4,object_03,object_07,739.59999990463,7,2,375.0,0.1111111111111111,1,object_02,1,1619,0,1,3,restaurant_5,2,memory-2step-stake-s,613,2009242,0.0-19.0-0.0-0.122,A2ZDEERVRN5AMC,3X2LT8FDIZY82IMGP2COH9T7SM78W0,38YMOXR4MYFOKN1MMPKSMFT3G3G6W8,8,7
123,1,object_09,object_04,729.09999990463,2,2,316.5,0.3333333333333333,2,object_10,5,1634,0,3,3,desert_5,2,memory-2step-stake-s,614,2017075,0.0-19.0-0.0-0.123,A2ZDEERVRN5AMC,3X2LT8FDIZY82IMGP2COH9T7SM78W0,38YMOXR4MYFOKN1MMPKSMFT3G3G6W8,1,2
124,4,object_03,object_07,640.09999990463,7,2,307.69999980927,0.3333333333333333,1,object_02,1,1637,0,3,3,restaurant_7,2,memory-2step-stake-s,615,2024899,0.0-19.0-0.0-0.124,A2ZDEERVRN5AMC,3X2LT8FDIZY82IMGP2COH9T7SM78W0,38YMOXR4MYFOKN1MMPKSMFT3G3G6W8,8,7
125,1,object_09,object_04,535.19999980927,1,1,330.5,0.5555555555555556,1,object_02,5,1662,0,5,1,desert_5,2,memory-2step-stake-s,616,2032948,0.0-19.0-0.0-0.125,A2ZDEERVRN5AMC,3X2LT8FDIZY82IMGP2COH9T7SM78W0,38YMOXR4MYFOKN1MMPKSMFT3G3G6W8,1,2
126,4,object_07,object_03,795.09999990463,7,1,630.0,0.5555555555555556,1,object_02,1,1667,0,5,1,restaurant_5,2,memory-2step-stake-s,617,2041301,0.0-19.0-0.0-0.126,A2ZDEERVRN5AMC,3X2LT8FDIZY82IMGP2COH9T7SM78W0,38YMOXR4MYFOKN1MMPKSMFT3G3G6W8,7,8
127,3,object_08,object_06,819.5,5,1,374.59999990463,0.5555555555555556,1,object_02,5,1692,0,5,4,library_8,2,memory-2step-stake-s,618,2049397,0.0-19.0-0.0-0.127,A2ZDEERVRN5AMC,3X2LT8FDIZY82IMGP2COH9T7SM78W0,38YMOXR4MYFOKN1MMPKSMFT3G3G6W8,5,6
128,1,object_09,object_04,1321.7999997139,2,2,785.80000019073,0.4444444444444444,2,object_10,1,1696,0,3,4,desert_5,2,memory-2step-stake-s,620,2073705,0.0-19.0-0.1-0.128,A2ZDEERVRN5AMC,3X2LT8FDIZY82IMGP2COH9T7SM78W0,38YMOXR4MYFOKN1MMPKSMFT3G3G6W8,1,2
129,2,object_01,object_05,1209.0,3,1,329.90000009537,0.4444444444444444,1,object_02,5,1716,0,4,2,forest_4,2,memory-2step-stake-s,621,2081656,0.0-19.0-0.1-0.129,A2ZDEERVRN5AMC,3X2LT8FDIZY82IMGP2COH9T7SM78W0,38YMOXR4MYFOKN1MMPKSMFT3G3G6W8,3,4
130,2,object_01,object_05,919.69999980927,3,1,449.89999961853,0.4444444444444444,1,object_02,5,1736,0,4,2,forest_3,2,memory-2step-stake-s,622,2089728,0.0-19.0-0.1-0.130,A2ZDEERVRN5AMC,3X2LT8FDIZY82IMGP2COH9T7SM78W0,38YMOXR4MYFOKN1MMPKSMFT3G3G6W8,3,4
131,4,object_07,object_03,608.19999980927,7,1,255.69999980927,0.6666666666666666,1,object_02,5,1766,0,6,1,restaurant_5,2,memory-2step-stake-s,623,2097809,0.0-19.0-0.1-0.131,A2ZDEERVRN5AMC,3X2LT8FDIZY82IMGP2COH9T7SM78W0,38YMOXR4MYFOKN1MMPKSMFT3G3G6W8,7,8
132,4,object_03,object_07,454.7999997139,7,2,74.200000286102,0.6666666666666666,1,object_02,1,1772,0,6,0,restaurant_6,2,memory-2step-stake-s,624,2105705,0.0-19.0-0.1-0.132,A2ZDEERVRN5AMC,3X2LT8FDIZY82IMGP2COH9T7SM78W0,38YMOXR4MYFOKN1MMPKSMFT3G3G6W8,8,7
133,4,object_07,object_03,758.2000002861,7,1,289.2000002861,0.5555555555555556,1,object_02,5,1797,0,5,3,restaurant_6,2,memory-2step-stake-s,625,2113716,0.0-19.0-0.1-0.133,A2ZDEERVRN5AMC,3X2LT8FDIZY82IMGP2COH9T7SM78W0,38YMOXR4MYFOKN1MMPKSMFT3G3G6W8,7,8
134,2,object_05,object_01,996.0,3,2,309.30000019073,0.5555555555555556,1,object_02,1,1802,0,5,4,forest_8,2,memory-2step-stake-s,626,2121748,0.0-19.0-0.1-0.134,A2ZDEERVRN5AMC,3X2LT8FDIZY82IMGP2COH9T7SM78W0,38YMOXR4MYFOKN1MMPKSMFT3G3G6W8,4,3
135,2,object_01,object_05,796.0,3,1,854.2000002861,0.4444444444444444,1,object_02,5,1822,0,4,2,forest_3,2,memory-2step-stake-s,627,2130224,0.0-19.0-0.1-0.135,A2ZDEERVRN5AMC,3X2LT8FDIZY82IMGP2COH9T7SM78W0,38YMOXR4MYFOKN1MMPKSMFT3G3G6W8,3,4
136,3,object_08,object_06,742.69999980927,6,2,448.19999980927,0.1111111111111111,2,object_10,5,1827,0,5,1,library_5,2,memory-2step-stake-s,628,2137992,0.0-19.0-0.1-0.136,A2ZDEERVRN5AMC,3X2LT8FDIZY82IMGP2COH9T7SM78W0,38YMOXR4MYFOKN1MMPKSMFT3G3G6W8,5,6
137,4,object_07,object_03,694.90000009537,7,1,330.0,0.4444444444444444,1,object_02,1,1831,0,4,2,restaurant_5,2,memory-2step-stake-s,629,2145944,0.0-19.0-0.1-0.137,A2ZDEERVRN5AMC,3X2LT8FDIZY82IMGP2COH9T7SM78W0,38YMOXR4MYFOKN1MMPKSMFT3G3G6W8,7,8
138,3,object_08,object_06,905.2000002861,5,1,627.2999997139,0.6666666666666666,1,object_02,1,1837,0,6,2,library_5,2,memory-2step-stake-s,630,2154393,0.0-19.0-0.1-0.138,A2ZDEERVRN5AMC,3X2LT8FDIZY82IMGP2COH9T7SM78W0,38YMOXR4MYFOKN1MMPKSMFT3G3G6W8,5,6
139,2,object_05,object_01,999.0,3,2,529.59999990463,0.8888888888888888,1,object_02,5,1877,0,8,3,forest_8,2,memory-2step-stake-s,631,2162948,0.0-19.0-0.1-0.139,A2ZDEERVRN5AMC,3X2LT8FDIZY82IMGP2COH9T7SM78W0,38YMOXR4MYFOKN1MMPKSMFT3G3G6W8,4,3
140,1,object_04,object_09,643.59999990463,1,2,404.2000002861,0.8888888888888888,1,object_02,5,1917,0,8,5,desert_8,2,memory-2step-stake-s,632,2171379,0.0-19.0-0.1-0.140,A2ZDEERVRN5AMC,3X2LT8FDIZY82IMGP2COH9T7SM78W0,38YMOXR4MYFOKN1MMPKSMFT3G3G6W8,2,1
141,3,object_08,object_06,723.40000009537,5,1,372.90000009537,0.7777777777777778,1,object_02,5,1952,0,7,5,library_5,2,memory-2step-stake-s,633,2179678,0.0-19.0-0.1-0.141,A2ZDEERVRN5AMC,3X2LT8FDIZY82IMGP2COH9T7SM78W0,38YMOXR4MYFOKN1MMPKSMFT3G3G6W8,5,6
142,1,object_04,object_09,528.5,1,2,530.59999990463,0.4444444444444444,1,object_02,5,1972,0,4,6,desert_1,2,memory-2step-stake-s,634,2187831,0.0-19.0-0.1-0.142,A2ZDEERVRN5AMC,3X2LT8FDIZY82IMGP2COH9T7SM78W0,38YMOXR4MYFOKN1MMPKSMFT3G3G6W8,2,1
143,2,object_01,object_05,719.2000002861,3,1,322.59999990463,0.4444444444444444,1,object_02,5,1992,0,4,8,forest_4,2,memory-2step-stake-s,635,2195776,0.0-19.0-0.1-0.143,A2ZDEERVRN5AMC,3X2LT8FDIZY82IMGP2COH9T7SM78W0,38YMOXR4MYFOKN1MMPKSMFT3G3G6W8,3,4
144,1,object_04,object_09,709.59999990463,1,2,341.90000009537,0.4444444444444444,1,object_02,1,1996,0,4,7,desert_5,2,memory-2step-stake-s,636,2203744,0.0-19.0-0.1-0.144,A2ZDEERVRN5AMC,3X2LT8FDIZY82IMGP2COH9T7SM78W0,38YMOXR4MYFOKN1MMPKSMFT3G3G6W8,2,1
145,3,object_08,object_06,718.80000019073,5,1,424.80000019073,0.5555555555555556,1,object_02,1,2001,0,5,4,library_5,2,memory-2step-stake-s,637,2211892,0.0-19.0-0.1-0.145,A2ZDEERVRN5AMC,3X2LT8FDIZY82IMGP2COH9T7SM78W0,38YMOXR4MYFOKN1MMPKSMFT3G3G6W8,5,6
146,4,object_07,object_03,756.0,7,1,900.10000038147,0.5555555555555556,1,object_02,1,2006,0,5,2,restaurant_6,2,memory-2step-stake-s,638,2220517,0.0-19.0-0.1-0.146,A2ZDEERVRN5AMC,3X2LT8FDIZY82IMGP2COH9T7SM78W0,38YMOXR4MYFOKN1MMPKSMFT3G3G6W8,7,8
147,2,object_01,object_05,963.0,3,1,348.89999961853,0.3333333333333333,1,object_02,5,2021,0,3,2,forest_7,2,memory-2step-stake-s,639,2228386,0.0-19.0-0.1-0.147,A2ZDEERVRN5AMC,3X2LT8FDIZY82IMGP2COH9T7SM78W0,38YMOXR4MYFOKN1MMPKSMFT3G3G6W8,3,4
148,3,object_08,object_06,765.0,5,1,407.19999980927,0.3333333333333333,1,object_02,1,2024,0,3,1,library_8,2,memory-2step-stake-s,640,2236313,0.0-19.0-0.1-0.148,A2ZDEERVRN5AMC,3X2LT8FDIZY82IMGP2COH9T7SM78W0,38YMOXR4MYFOKN1MMPKSMFT3G3G6W8,5,6
149,1,object_04,object_09,605.5,1,2,321.7000002861,0.3333333333333333,1,object_02,5,2039,0,3,4,desert_8,2,memory-2step-stake-s,641,2244153,0.0-19.0-0.1-0.149,A2ZDEERVRN5AMC,3X2LT8FDIZY82IMGP2COH9T7SM78W0,38YMOXR4MYFOKN1MMPKSMFT3G3G6W8,2,1
150,1,object_04,object_09,488.80000019073,2,1,300.09999990463,0.6666666666666666,2,object_10,5,2069,0,3,6,desert_8,2,memory-2step-stake-s,642,2252273,0.0-19.0-0.1-0.150,A2ZDEERVRN5AMC,3X2LT8FDIZY82IMGP2COH9T7SM78W0,38YMOXR4MYFOKN1MMPKSMFT3G3G6W8,2,1
151,2,object_01,object_05,642.0,4,2,365.69999980927,0.8888888888888888,2,object_10,5,2109,0,3,8,forest_8,2,memory-2step-stake-s,643,2260658,0.0-19.0-0.1-0.151,A2ZDEERVRN5AMC,3X2LT8FDIZY82IMGP2COH9T7SM78W0,38YMOXR4MYFOKN1MMPKSMFT3G3G6W8,3,4
152,2,object_01,object_05,520.5,4,2,397.69999980927,0.8888888888888888,2,object_10,5,2149,0,2,8,forest_7,2,memory-2step-stake-s,644,2269075,0.0-19.0-0.1-0.152,A2ZDEERVRN5AMC,3X2LT8FDIZY82IMGP2COH9T7SM78W0,38YMOXR4MYFOKN1MMPKSMFT3G3G6W8,3,4
153,3,object_06,object_08,958.19999980927,6,1,393.80000019073,0.6666666666666666,2,object_10,1,2155,0,1,6,library_5,2,memory-2step-stake-s,645,2277288,0.0-19.0-0.1-0.153,A2ZDEERVRN5AMC,3X2LT8FDIZY82IMGP2COH9T7SM78W0,38YMOXR4MYFOKN1MMPKSMFT3G3G6W8,6,5
154,1,object_09,object_04,786.2000002861,2,2,588.0,1.0,2,object_10,5,2200,0,4,9,desert_1,2,memory-2step-stake-s,646,2285998,0.0-19.0-0.1-0.154,A2ZDEERVRN5AMC,3X2LT8FDIZY82IMGP2COH9T7SM78W0,38YMOXR4MYFOKN1MMPKSMFT3G3G6W8,1,2
155,1,object_09,object_04,715.80000019073,2,2,367.30000019073,0.7777777777777778,2,object_10,5,2235,0,5,7,desert_5,2,memory-2step-stake-s,647,2294285,0.0-19.0-0.1-0.155,A2ZDEERVRN5AMC,3X2LT8FDIZY82IMGP2COH9T7SM78W0,38YMOXR4MYFOKN1MMPKSMFT3G3G6W8,1,2
156,3,object_08,object_06,1028.5,5,1,376.2999997139,0.6666666666666666,1,object_02,1,2241,0,6,8,library_1,2,memory-2step-stake-s,648,2302479,0.0-19.0-0.1-0.156,A2ZDEERVRN5AMC,3X2LT8FDIZY82IMGP2COH9T7SM78W0,38YMOXR4MYFOKN1MMPKSMFT3G3G6W8,5,6
157,1,object_09,object_04,664.30000019073,2,2,323.5,0.7777777777777778,2,object_10,5,2276,0,7,7,desert_8,2,memory-2step-stake-s,649,2310725,0.0-19.0-0.1-0.157,A2ZDEERVRN5AMC,3X2LT8FDIZY82IMGP2COH9T7SM78W0,38YMOXR4MYFOKN1MMPKSMFT3G3G6W8,1,2
158,4,object_07,object_03,845.19999980927,8,2,354.19999980927,0.8888888888888888,2,object_10,5,2316,0,9,8,restaurant_6,2,memory-2step-stake-s,650,2319098,0.0-19.0-0.1-0.158,A2ZDEERVRN5AMC,3X2LT8FDIZY82IMGP2COH9T7SM78W0,38YMOXR4MYFOKN1MMPKSMFT3G3G6W8,7,8
159,3,object_08,object_06,880.0,6,2,330.7000002861,1.0,2,object_10,1,2325,0,7,9,library_1,2,memory-2step-stake-s,651,2327552,0.0-19.0-0.1-0.159,A2ZDEERVRN5AMC,3X2LT8FDIZY82IMGP2COH9T7SM78W0,38YMOXR4MYFOKN1MMPKSMFT3G3G6W8,5,6
160,4,object_07,object_03,1033.4000000954,8,2,493.30000019073,0.7777777777777778,2,object_10,1,2332,0,5,7,restaurant_6,2,memory-2step-stake-s,652,2335965,0.0-19.0-0.1-0.160,A2ZDEERVRN5AMC,3X2LT8FDIZY82IMGP2COH9T7SM78W0,38YMOXR4MYFOKN1MMPKSMFT3G3G6W8,7,8
161,1,object_04,object_09,659.59999990463,2,1,326.39999961853,0.5555555555555556,2,object_10,5,2357,0,3,5,desert_8,2,memory-2step-stake-s,653,2344012,0.0-19.0-0.1-0.161,A2ZDEERVRN5AMC,3X2LT8FDIZY82IMGP2COH9T7SM78W0,38YMOXR4MYFOKN1MMPKSMFT3G3G6W8,2,1
162,2,object_01,object_05,635.69999980927,4,2,790.19999980927,0.1111111111111111,2,object_10,5,2362,0,5,1,forest_3,2,memory-2step-stake-s,654,2352118,0.0-19.0-0.1-0.162,A2ZDEERVRN5AMC,3X2LT8FDIZY82IMGP2COH9T7SM78W0,38YMOXR4MYFOKN1MMPKSMFT3G3G6W8,3,4
163,1,object_04,object_09,825.0,1,2,324.59999990463,0.8888888888888888,1,object_02,5,2402,0,8,1,desert_1,2,memory-2step-stake-s,655,2360465,0.0-19.0-0.1-0.163,A2ZDEERVRN5AMC,3X2LT8FDIZY82IMGP2COH9T7SM78W0,38YMOXR4MYFOKN1MMPKSMFT3G3G6W8,2,1
164,1,object_04,object_09,1438.7999997139,1,2,673.5,0.8888888888888888,1,object_02,5,2442,0,8,0,desert_8,2,memory-2step-stake-s,656,2369161,0.0-19.0-0.1-0.164,A2ZDEERVRN5AMC,3X2LT8FDIZY82IMGP2COH9T7SM78W0,38YMOXR4MYFOKN1MMPKSMFT3G3G6W8,2,1
165,2,object_05,object_01,805.59999990463,3,2,409.60000038147,0.8888888888888888,1,object_02,5,2482,0,8,0,forest_3,2,memory-2step-stake-s,657,2377594,0.0-19.0-0.1-0.165,A2ZDEERVRN5AMC,3X2LT8FDIZY82IMGP2COH9T7SM78W0,38YMOXR4MYFOKN1MMPKSMFT3G3G6W8,4,3
166,3,object_06,object_08,1080.3000001907,5,2,419.80000019073,1.0,1,object_02,5,2527,0,9,1,library_8,2,memory-2step-stake-s,658,2386135,0.0-19.0-0.1-0.166,A2ZDEERVRN5AMC,3X2LT8FDIZY82IMGP2COH9T7SM78W0,38YMOXR4MYFOKN1MMPKSMFT3G3G6W8,6,5
167,4,object_03,object_07,1041.2000002861,7,2,348.2999997139,0.7777777777777778,1,object_02,1,2534,0,7,2,restaurant_5,2,memory-2step-stake-s,659,2394405,0.0-19.0-0.1-0.167,A2ZDEERVRN5AMC,3X2LT8FDIZY82IMGP2COH9T7SM78W0,38YMOXR4MYFOKN1MMPKSMFT3G3G6W8,8,7
168,3,object_06,object_08,619.40000009537,5,2,999.30000019073,0.4444444444444444,1,object_02,1,2538,0,4,0,library_2,2,memory-2step-stake-s,660,2403022,0.0-19.0-0.1-0.168,A2ZDEERVRN5AMC,3X2LT8FDIZY82IMGP2COH9T7SM78W0,38YMOXR4MYFOKN1MMPKSMFT3G3G6W8,6,5
169,2,object_05,object_01,833.7000002861,3,2,499.0,0.7777777777777778,1,object_02,5,2573,0,7,1,forest_3,2,memory-2step-stake-s,661,2411444,0.0-19.0-0.1-0.169,A2ZDEERVRN5AMC,3X2LT8FDIZY82IMGP2COH9T7SM78W0,38YMOXR4MYFOKN1MMPKSMFT3G3G6W8,4,3
170,4,object_07,object_03,843.40000009537,7,1,518.5,0.5555555555555556,1,object_02,1,2578,0,5,1,restaurant_5,2,memory-2step-stake-s,662,2419682,0.0-19.0-0.1-0.170,A2ZDEERVRN5AMC,3X2LT8FDIZY82IMGP2COH9T7SM78W0,38YMOXR4MYFOKN1MMPKSMFT3G3G6W8,7,8
171,1,object_09,object_04,892.90000009537,1,1,320.09999990463,0.8888888888888888,1,object_02,5,2618,0,8,1,desert_8,2,memory-2step-stake-s,663,2428025,0.0-19.0-0.1-0.171,A2ZDEERVRN5AMC,3X2LT8FDIZY82IMGP2COH9T7SM78W0,38YMOXR4MYFOKN1MMPKSMFT3G3G6W8,1,2
172,2,object_05,object_01,797.90000009537,4,1,286.2000002861,0.2222222222222222,2,object_10,1,2620,0,7,2,forest_3,2,memory-2step-stake-s,664,2435731,0.0-19.0-0.1-0.172,A2ZDEERVRN5AMC,3X2LT8FDIZY82IMGP2COH9T7SM78W0,38YMOXR4MYFOKN1MMPKSMFT3G3G6W8,4,3
173,1,object_09,object_04,781.5,1,1,446.80000019073,0.8888888888888888,1,object_02,1,2628,0,8,5,desert_1,2,memory-2step-stake-s,665,2444201,0.0-19.0-0.1-0.173,A2ZDEERVRN5AMC,3X2LT8FDIZY82IMGP2COH9T7SM78W0,38YMOXR4MYFOKN1MMPKSMFT3G3G6W8,1,2
174,2,object_05,object_01,669.5,3,2,257.5,1.0,1,object_02,5,2673,0,9,5,forest_8,2,memory-2step-stake-s,666,2452580,0.0-19.0-0.1-0.174,A2ZDEERVRN5AMC,3X2LT8FDIZY82IMGP2COH9T7SM78W0,38YMOXR4MYFOKN1MMPKSMFT3G3G6W8,4,3
175,4,object_07,object_03,784.59999990463,7,1,307.0,0.8888888888888888,1,object_02,5,2713,0,8,2,restaurant_5,2,memory-2step-stake-s,667,2460912,0.0-19.0-0.1-0.175,A2ZDEERVRN5AMC,3X2LT8FDIZY82IMGP2COH9T7SM78W0,38YMOXR4MYFOKN1MMPKSMFT3G3G6W8,7,8
176,2,object_05,object_01,692.59999990463,3,2,312.59999990463,0.7777777777777778,1,object_02,1,2720,0,7,2,forest_8,2,memory-2step-stake-s,668,2469147,0.0-19.0-0.1-0.176,A2ZDEERVRN5AMC,3X2LT8FDIZY82IMGP2COH9T7SM78W0,38YMOXR4MYFOKN1MMPKSMFT3G3G6W8,4,3
177,1,object_09,object_04,733.2000002861,1,1,319.69999980927,0.6666666666666666,1,object_02,1,2726,0,6,1,desert_1,2,memory-2step-stake-s,669,2477285,0.0-19.0-0.1-0.177,A2ZDEERVRN5AMC,3X2LT8FDIZY82IMGP2COH9T7SM78W0,38YMOXR4MYFOKN1MMPKSMFT3G3G6W8,1,2
178,2,object_05,object_01,930.0,3,2,293.2000002861,0.5555555555555556,1,object_02,5,2751,0,5,0,forest_3,2,memory-2step-stake-s,670,2485296,0.0-19.0-0.1-0.178,A2ZDEERVRN5AMC,3X2LT8FDIZY82IMGP2COH9T7SM78W0,38YMOXR4MYFOKN1MMPKSMFT3G3G6W8,4,3
179,1,object_09,object_04,900.5,1,1,320.09999990463,0.6666666666666666,1,object_02,5,2781,0,6,1,desert_5,2,memory-2step-stake-s,671,2493439,0.0-19.0-0.1-0.179,A2ZDEERVRN5AMC,3X2LT8FDIZY82IMGP2COH9T7SM78W0,38YMOXR4MYFOKN1MMPKSMFT3G3G6W8,1,2
180,3,object_08,object_06,945.5,5,1,309.2000002861,0.8888888888888888,1,object_02,5,2821,0,8,0,library_2,2,memory-2step-stake-s,672,2501768,0.0-19.0-0.1-0.180,A2ZDEERVRN5AMC,3X2LT8FDIZY82IMGP2COH9T7SM78W0,38YMOXR4MYFOKN1MMPKSMFT3G3G6W8,5,6
181,1,object_04,object_09,742.5,1,2,264.59999990463,0.7777777777777778,1,object_02,5,2856,0,7,1,desert_6,2,memory-2step-stake-s,673,2509956,0.0-19.0-0.1-0.181,A2ZDEERVRN5AMC,3X2LT8FDIZY82IMGP2COH9T7SM78W0,38YMOXR4MYFOKN1MMPKSMFT3G3G6W8,2,1
182,1,object_09,object_04,690.40000009537,1,1,421.09999990463,0.8888888888888888,1,object_02,5,2896,0,8,4,desert_8,2,memory-2step-stake-s,674,2518401,0.0-19.0-0.1-0.182,A2ZDEERVRN5AMC,3X2LT8FDIZY82IMGP2COH9T7SM78W0,38YMOXR4MYFOKN1MMPKSMFT3G3G6W8,1,2
183,4,object_03,object_07,647.10000038147,7,2,338.80000019073,0.6666666666666666,1,object_02,1,2902,0,6,2,restaurant_7,2,memory-2step-stake-s,675,2526559,0.0-19.0-0.1-0.183,A2ZDEERVRN5AMC,3X2LT8FDIZY82IMGP2COH9T7SM78W0,38YMOXR4MYFOKN1MMPKSMFT3G3G6W8,8,7
184,3,object_06,object_08,694.5,5,2,393.19999980927,0.5555555555555556,1,object_02,1,2907,0,5,4,library_1,2,memory-2step-stake-s,676,2534672,0.0-19.0-0.1-0.184,A2ZDEERVRN5AMC,3X2LT8FDIZY82IMGP2COH9T7SM78W0,38YMOXR4MYFOKN1MMPKSMFT3G3G6W8,6,5
185,4,object_07,object_03,677.7999997139,7,1,504.40000009537,0.2222222222222222,1,object_02,1,2909,0,2,1,restaurant_8,2,memory-2step-stake-s,677,2542594,0.0-19.0-0.1-0.185,A2ZDEERVRN5AMC,3X2LT8FDIZY82IMGP2COH9T7SM78W0,38YMOXR4MYFOKN1MMPKSMFT3G3G6W8,7,8
186,3,object_06,object_08,859.40000009537,5,2,310.0,0.1111111111111111,1,object_02,1,2910,0,1,0,library_5,2,memory-2step-stake-s,678,2550225,0.0-19.0-0.1-0.186,A2ZDEERVRN5AMC,3X2LT8FDIZY82IMGP2COH9T7SM78W0,38YMOXR4MYFOKN1MMPKSMFT3G3G6W8,6,5
187,4,object_07,object_03,707.30000019073,8,2,269.5,0.1111111111111111,2,object_10,1,2911,0,2,1,restaurant_8,2,memory-2step-stake-s,679,2557814,0.0-19.0-0.1-0.187,A2ZDEERVRN5AMC,3X2LT8FDIZY82IMGP2COH9T7SM78W0,38YMOXR4MYFOKN1MMPKSMFT3G3G6W8,7,8
188,3,object_06,object_08,895.90000009537,6,1,282.0,0.4444444444444444,2,object_10,1,2915,0,3,4,library_1,2,memory-2step-stake-s,680,2565716,0.0-19.0-0.1-0.188,A2ZDEERVRN5AMC,3X2LT8FDIZY82IMGP2COH9T7SM78W0,38YMOXR4MYFOKN1MMPKSMFT3G3G6W8,6,5
189,3,object_08,object_06,723.09999990463,6,2,325.59999990463,0.2222222222222222,2,object_10,1,2917,0,2,2,library_5,2,memory-2step-stake-s,681,2573458,0.0-19.0-0.1-0.189,A2ZDEERVRN5AMC,3X2LT8FDIZY82IMGP2COH9T7SM78W0,38YMOXR4MYFOKN1MMPKSMFT3G3G6W8,5,6
190,2,object_01,object_05,1123.2999997139,4,2,279.0,0.1111111111111111,2,object_10,5,2922,0,2,1,forest_3,2,memory-2step-stake-s,682,2581052,0.0-19.0-0.1-0.190,A2ZDEERVRN5AMC,3X2LT8FDIZY82IMGP2COH9T7SM78W0,38YMOXR4MYFOKN1MMPKSMFT3G3G6W8,3,4
191,4,object_07,object_03,626.09999990463,7,1,492.69999980927,0.3333333333333333,1,object_02,1,2925,0,3,1,restaurant_8,2,memory-2step-stake-s,683,2589062,0.0-19.0-0.1-0.191,A2ZDEERVRN5AMC,3X2LT8FDIZY82IMGP2COH9T7SM78W0,38YMOXR4MYFOKN1MMPKSMFT3G3G6W8,7,8
192,4,object_07,object_03,664.40000009537,7,1,923.09999990463,0.1111111111111111,1,object_02,1,2926,0,1,7,restaurant_7,2,memory-2step-stake-s,684,2597300,0.0-19.0-0.1-0.192,A2ZDEERVRN5AMC,3X2LT8FDIZY82IMGP2COH9T7SM78W0,38YMOXR4MYFOKN1MMPKSMFT3G3G6W8,7,8
193,4,object_03,object_07,503.5,7,2,306.59999990463,0.3333333333333333,1,object_02,1,2929,0,3,7,restaurant_6,2,memory-2step-stake-s,685,2605125,0.0-19.0-0.1-0.193,A2ZDEERVRN5AMC,3X2LT8FDIZY82IMGP2COH9T7SM78W0,38YMOXR4MYFOKN1MMPKSMFT3G3G6W8,8,7
194,1,object_04,object_09,447.40000009537,2,1,266.90000009537,0.4444444444444444,2,object_10,5,2949,0,0,4,desert_1,2,memory-2step-stake-s,686,2613011,0.0-19.0-0.1-0.194,A2ZDEERVRN5AMC,3X2LT8FDIZY82IMGP2COH9T7SM78W0,38YMOXR4MYFOKN1MMPKSMFT3G3G6W8,2,1
195,2,object_05,object_01,1074.0,4,1,499.5,0.1111111111111111,2,object_10,5,2954,0,5,1,forest_8,2,memory-2step-stake-s,687,2620830,0.0-19.0-0.1-0.195,A2ZDEERVRN5AMC,3X2LT8FDIZY82IMGP2COH9T7SM78W0,38YMOXR4MYFOKN1MMPKSMFT3G3G6W8,4,3
196,3,object_08,object_06,1313.8000001907,6,2,491.0,0.1111111111111111,2,object_10,1,2955,0,7,1,library_2,2,memory-2step-stake-s,688,2628637,0.0-19.0-0.1-0.196,A2ZDEERVRN5AMC,3X2LT8FDIZY82IMGP2COH9T7SM78W0,38YMOXR4MYFOKN1MMPKSMFT3G3G6W8,5,6
197,1,object_09,object_04,721.2999997139,2,2,355.80000019073,0.1111111111111111,2,object_10,5,2960,0,7,1,desert_5,2,memory-2step-stake-s,689,2636309,0.0-19.0-0.1-0.197,A2ZDEERVRN5AMC,3X2LT8FDIZY82IMGP2COH9T7SM78W0,38YMOXR4MYFOKN1MMPKSMFT3G3G6W8,1,2
198,4,object_03,object_07,601.40000009537,7,2,306.69999980927,0.7777777777777778,1,object_02,5,2995,0,7,5,restaurant_7,2,memory-2step-stake-s,690,2644539,0.0-19.0-0.1-0.198,A2ZDEERVRN5AMC,3X2LT8FDIZY82IMGP2COH9T7SM78W0,38YMOXR4MYFOKN1MMPKSMFT3G3G6W8,8,7
199,2,object_05,object_01,703.69999980927,3,2,465.2000002861,0.8888888888888888,1,object_02,5,3035,0,8,7,forest_4,2,memory-2step-stake-s,691,2653032,0.0-19.0-0.1-0.199,A2ZDEERVRN5AMC,3X2LT8FDIZY82IMGP2COH9T7SM78W0,38YMOXR4MYFOKN1MMPKSMFT3G3G6W8,4,3
200,1,object_04,object_09,724.2000002861,1,2,295.0,0.8888888888888888,1,object_02,5,3075,0,8,2,desert_5,2,memory-2step-stake-s,692,2661351,0.0-19.0-0.1-0.200,A2ZDEERVRN5AMC,3X2LT8FDIZY82IMGP2COH9T7SM78W0,38YMOXR4MYFOKN1MMPKSMFT3G3G6W8,2,1
201,3,object_06,object_08,948.0,5,2,285.5,0.6666666666666666,1,object_02,1,3081,0,6,3,library_5,2,memory-2step-stake-s,693,2669459,0.0-19.0-0.1-0.201,A2ZDEERVRN5AMC,3X2LT8FDIZY82IMGP2COH9T7SM78W0,38YMOXR4MYFOKN1MMPKSMFT3G3G6W8,6,5
202,4,object_07,object_03,582.69999980927,7,1,368.2999997139,0.7777777777777778,1,object_02,1,3088,0,7,0,restaurant_6,2,memory-2step-stake-s,694,2677755,0.0-19.0-0.1-0.202,A2ZDEERVRN5AMC,3X2LT8FDIZY82IMGP2COH9T7SM78W0,38YMOXR4MYFOKN1MMPKSMFT3G3G6W8,7,8
203,3,object_08,object_06,1498.3000001907,6,2,300.40000009537,0.1111111111111111,2,object_10,1,3089,0,9,1,library_1,2,memory-2step-stake-s,695,2685372,0.0-19.0-0.1-0.203,A2ZDEERVRN5AMC,3X2LT8FDIZY82IMGP2COH9T7SM78W0,38YMOXR4MYFOKN1MMPKSMFT3G3G6W8,5,6
204,1,object_09,object_04,798.90000009537,1,1,312.90000009537,0.8888888888888888,1,object_02,5,3129,0,8,0,desert_8,2,memory-2step-stake-s,696,2693712,0.0-19.0-0.1-0.204,A2ZDEERVRN5AMC,3X2LT8FDIZY82IMGP2COH9T7SM78W0,38YMOXR4MYFOKN1MMPKSMFT3G3G6W8,1,2
205,2,object_01,object_05,971.90000009537,3,1,109.5,0.6666666666666666,1,object_02,5,3159,0,6,3,forest_8,2,memory-2step-stake-s,697,2701646,0.0-19.0-0.1-0.205,A2ZDEERVRN5AMC,3X2LT8FDIZY82IMGP2COH9T7SM78W0,38YMOXR4MYFOKN1MMPKSMFT3G3G6W8,3,4
206,2,object_05,object_01,662.7000002861,3,2,360.2999997139,0.6666666666666666,1,object_02,5,3189,0,6,5,forest_7,2,memory-2step-stake-s,698,2709830,0.0-19.0-0.1-0.206,A2ZDEERVRN5AMC,3X2LT8FDIZY82IMGP2COH9T7SM78W0,38YMOXR4MYFOKN1MMPKSMFT3G3G6W8,4,3
207,3,object_06,object_08,677.19999980927,6,1,279.30000019073,0.5555555555555556,2,object_10,1,3194,0,6,5,library_8,2,memory-2step-stake-s,699,2717832,0.0-19.0-0.1-0.207,A2ZDEERVRN5AMC,3X2LT8FDIZY82IMGP2COH9T7SM78W0,38YMOXR4MYFOKN1MMPKSMFT3G3G6W8,6,5
208,4,object_03,object_07,450.5,7,2,285.0,0.7777777777777778,1,object_02,5,3229,0,7,4,restaurant_6,2,memory-2step-stake-s,700,2726042,0.0-19.0-0.1-0.208,A2ZDEERVRN5AMC,3X2LT8FDIZY82IMGP2COH9T7SM78W0,38YMOXR4MYFOKN1MMPKSMFT3G3G6W8,8,7
209,4,object_03,object_07,546.5,7,2,325.40000009537,1.0,1,object_02,1,3238,0,9,5,restaurant_7,2,memory-2step-stake-s,701,2734491,0.0-19.0-0.1-0.209,A2ZDEERVRN5AMC,3X2LT8FDIZY82IMGP2COH9T7SM78W0,38YMOXR4MYFOKN1MMPKSMFT3G3G6W8,8,7
210,3,object_08,object_06,-1.0,-1,-1,-1.0,0.0,-,0,1,3238,0,8,4,library_8,2,memory-2step-stake-s,702,2741001,0.0-19.0-0.1-0.210,A2ZDEERVRN5AMC,3X2LT8FDIZY82IMGP2COH9T7SM78W0,38YMOXR4MYFOKN1MMPKSMFT3G3G6W8,5,6
211,4,object_07,object_03,622.09999990463,7,1,617.40000009537,0.7777777777777778,1,object_02,1,3245,0,7,4,restaurant_6,2,memory-2step-stake-s,703,2749539,0.0-19.0-0.1-0.211,A2ZDEERVRN5AMC,3X2LT8FDIZY82IMGP2COH9T7SM78W0,38YMOXR4MYFOKN1MMPKSMFT3G3G6W8,7,8
212,3,object_06,object_08,812.19999980927,6,1,377.5,0.4444444444444444,2,object_10,1,3249,0,8,4,library_2,2,memory-2step-stake-s,704,2757531,0.0-19.0-0.1-0.212,A2ZDEERVRN5AMC,3X2LT8FDIZY82IMGP2COH9T7SM78W0,38YMOXR4MYFOKN1MMPKSMFT3G3G6W8,6,5
213,1,object_09,object_04,613.30000019073,1,1,466.40000009537,0.8888888888888888,1,object_02,5,3289,0,8,8,desert_5,2,memory-2step-stake-s,705,2766014,0.0-19.0-0.1-0.213,A2ZDEERVRN5AMC,3X2LT8FDIZY82IMGP2COH9T7SM78W0,38YMOXR4MYFOKN1MMPKSMFT3G3G6W8,1,2
214,1,object_09,object_04,640.19999980927,1,1,339.69999980927,0.3333333333333333,1,object_02,1,3292,0,3,5,desert_1,2,memory-2step-stake-s,706,2773869,0.0-19.0-0.1-0.214,A2ZDEERVRN5AMC,3X2LT8FDIZY82IMGP2COH9T7SM78W0,38YMOXR4MYFOKN1MMPKSMFT3G3G6W8,1,2
215,4,object_07,object_03,656.2000002861,7,1,372.40000009537,0.4444444444444444,1,object_02,1,3296,0,4,5,restaurant_7,2,memory-2step-stake-s,707,2781858,0.0-19.0-0.1-0.215,A2ZDEERVRN5AMC,3X2LT8FDIZY82IMGP2COH9T7SM78W0,38YMOXR4MYFOKN1MMPKSMFT3G3G6W8,7,8
216,3,object_06,object_08,972.2999997139,6,1,328.90000009537,0.7777777777777778,2,object_10,1,3303,0,4,7,library_8,2,memory-2step-stake-s,708,2790105,0.0-19.0-0.1-0.216,A2ZDEERVRN5AMC,3X2LT8FDIZY82IMGP2COH9T7SM78W0,38YMOXR4MYFOKN1MMPKSMFT3G3G6W8,6,5
217,4,object_03,object_07,787.2000002861,8,1,327.19999980927,0.7777777777777778,2,object_10,1,3310,0,4,7,restaurant_8,2,memory-2step-stake-s,709,2798354,0.0-19.0-0.1-0.217,A2ZDEERVRN5AMC,3X2LT8FDIZY82IMGP2COH9T7SM78W0,38YMOXR4MYFOKN1MMPKSMFT3G3G6W8,8,7
218,1,object_04,object_09,588.7000002861,2,1,263.69999980927,0.8888888888888888,2,object_10,1,3318,0,7,8,desert_6,2,memory-2step-stake-s,710,2806639,0.0-19.0-0.1-0.218,A2ZDEERVRN5AMC,3X2LT8FDIZY82IMGP2COH9T7SM78W0,38YMOXR4MYFOKN1MMPKSMFT3G3G6W8,2,1
219,2,object_01,object_05,638.60000038147,3,1,378.59999990463,0.8888888888888888,1,object_02,1,3326,0,8,9,forest_4,2,memory-2step-stake-s,711,2815039,0.0-19.0-0.1-0.219,A2ZDEERVRN5AMC,3X2LT8FDIZY82IMGP2COH9T7SM78W0,38YMOXR4MYFOKN1MMPKSMFT3G3G6W8,3,4
220,2,object_01,object_05,766.40000009537,3,1,329.80000019073,0.7777777777777778,1,object_02,5,3361,0,7,4,forest_7,2,memory-2step-stake-s,712,2823290,0.0-19.0-0.1-0.220,A2ZDEERVRN5AMC,3X2LT8FDIZY82IMGP2COH9T7SM78W0,38YMOXR4MYFOKN1MMPKSMFT3G3G6W8,3,4
221,4,object_07,object_03,1027.4000000954,7,1,630.09999990463,0.8888888888888888,1,object_02,1,3369,0,8,4,restaurant_7,2,memory-2step-stake-s,713,2831942,0.0-19.0-0.1-0.221,A2ZDEERVRN5AMC,3X2LT8FDIZY82IMGP2COH9T7SM78W0,38YMOXR4MYFOKN1MMPKSMFT3G3G6W8,7,8
222,2,object_01,object_05,686.30000019073,3,1,530.19999980927,0.8888888888888888,1,object_02,5,3409,0,8,4,forest_8,2,memory-2step-stake-s,714,2840495,0.0-19.0-0.1-0.222,A2ZDEERVRN5AMC,3X2LT8FDIZY82IMGP2COH9T7SM78W0,38YMOXR4MYFOKN1MMPKSMFT3G3G6W8,3,4
223,2,object_01,object_05,925.09999990463,4,2,489.2000002861,0.5555555555555556,2,object_10,5,3434,0,9,5,forest_7,2,memory-2step-stake-s,715,2848703,0.0-19.0-0.1-0.223,A2ZDEERVRN5AMC,3X2LT8FDIZY82IMGP2COH9T7SM78W0,38YMOXR4MYFOKN1MMPKSMFT3G3G6W8,3,4
224,3,object_08,object_06,822.0,5,1,384.39999961853,0.7777777777777778,1,object_02,1,3441,0,7,6,library_8,2,memory-2step-stake-s,716,2857009,0.0-19.0-0.1-0.224,A2ZDEERVRN5AMC,3X2LT8FDIZY82IMGP2COH9T7SM78W0,38YMOXR4MYFOKN1MMPKSMFT3G3G6W8,5,6
225,2,object_01,object_05,787.19999980927,3,1,359.2000002861,0.5555555555555556,1,object_02,1,3446,0,5,5,forest_4,2,memory-2step-stake-s,717,2865087,0.0-19.0-0.1-0.225,A2ZDEERVRN5AMC,3X2LT8FDIZY82IMGP2COH9T7SM78W0,38YMOXR4MYFOKN1MMPKSMFT3G3G6W8,3,4
226,2,object_05,object_01,830.5,3,2,313.40000009537,0.4444444444444444,1,object_02,5,3466,0,4,2,forest_3,2,memory-2step-stake-s,718,2873018,0.0-19.0-0.1-0.226,A2ZDEERVRN5AMC,3X2LT8FDIZY82IMGP2COH9T7SM78W0,38YMOXR4MYFOKN1MMPKSMFT3G3G6W8,4,3
227,2,object_05,object_01,802.90000009537,4,1,333.19999980927,0.1111111111111111,2,object_10,5,3471,0,5,1,forest_7,2,memory-2step-stake-s,719,2880667,0.0-19.0-0.1-0.227,A2ZDEERVRN5AMC,3X2LT8FDIZY82IMGP2COH9T7SM78W0,38YMOXR4MYFOKN1MMPKSMFT3G3G6W8,4,3
228,2,object_05,object_01,755.19999980927,3,2,341.30000019073,0.6666666666666666,1,object_02,5,3501,0,6,1,forest_3,2,memory-2step-stake-s,720,2888827,0.0-19.0-0.1-0.228,A2ZDEERVRN5AMC,3X2LT8FDIZY82IMGP2COH9T7SM78W0,38YMOXR4MYFOKN1MMPKSMFT3G3G6W8,4,3
229,1,object_04,object_09,520.69999980927,1,2,291.0,0.0,1,object_02,5,3501,0,0,2,desert_6,2,memory-2step-stake-s,721,2896333,0.0-19.0-0.1-0.229,A2ZDEERVRN5AMC,3X2LT8FDIZY82IMGP2COH9T7SM78W0,38YMOXR4MYFOKN1MMPKSMFT3G3G6W8,2,1
230,3,object_06,object_08,903.19999980927,6,1,290.40000009537,0.0,2,object_10,1,3501,0,0,0,library_1,2,memory-2step-stake-s,722,2903836,0.0-19.0-0.1-0.230,A2ZDEERVRN5AMC,3X2LT8FDIZY82IMGP2COH9T7SM78W0,38YMOXR4MYFOKN1MMPKSMFT3G3G6W8,6,5
231,1,object_04,object_09,527.7999997139,2,1,313.90000009537,0.5555555555555556,2,object_10,5,3526,0,1,5,desert_6,2,memory-2step-stake-s,723,2911870,0.0-19.0-0.1-0.231,A2ZDEERVRN5AMC,3X2LT8FDIZY82IMGP2COH9T7SM78W0,38YMOXR4MYFOKN1MMPKSMFT3G3G6W8,2,1
232,1,object_09,object_04,566.7000002861,2,2,361.19999980927,0.2222222222222222,2,object_10,5,3536,0,1,2,desert_5,2,memory-2step-stake-s,724,2919648,0.0-19.0-0.1-0.232,A2ZDEERVRN5AMC,3X2LT8FDIZY82IMGP2COH9T7SM78W0,38YMOXR4MYFOKN1MMPKSMFT3G3G6W8,1,2
233,1,object_04,object_09,852.0,1,2,295.19999980927,0.2222222222222222,1,object_02,5,3546,0,2,1,desert_1,2,memory-2step-stake-s,725,2927360,0.0-19.0-0.1-0.233,A2ZDEERVRN5AMC,3X2LT8FDIZY82IMGP2COH9T7SM78W0,38YMOXR4MYFOKN1MMPKSMFT3G3G6W8,2,1
234,4,object_07,object_03,723.90000009537,7,1,342.19999980927,0.3333333333333333,1,object_02,1,3549,0,3,0,restaurant_6,2,memory-2step-stake-s,726,2935220,0.0-19.0-0.1-0.234,A2ZDEERVRN5AMC,3X2LT8FDIZY82IMGP2COH9T7SM78W0,38YMOXR4MYFOKN1MMPKSMFT3G3G6W8,7,8
235,1,object_09,object_04,647.30000019073,1,1,328.59999990463,0.3333333333333333,1,object_02,5,3564,0,3,1,desert_5,2,memory-2step-stake-s,727,2943068,0.0-19.0-0.1-0.235,A2ZDEERVRN5AMC,3X2LT8FDIZY82IMGP2COH9T7SM78W0,38YMOXR4MYFOKN1MMPKSMFT3G3G6W8,1,2
236,2,object_01,object_05,1102.0999999046,4,2,398.80000019073,0.1111111111111111,2,object_10,5,3569,0,0,1,forest_8,2,memory-2step-stake-s,728,2950787,0.0-19.0-0.1-0.236,A2ZDEERVRN5AMC,3X2LT8FDIZY82IMGP2COH9T7SM78W0,38YMOXR4MYFOKN1MMPKSMFT3G3G6W8,3,4
237,2,object_01,object_05,569.7999997139,3,1,347.80000019073,0.1111111111111111,1,object_02,5,3574,0,1,1,forest_4,2,memory-2step-stake-s,729,2958450,0.0-19.0-0.1-0.237,A2ZDEERVRN5AMC,3X2LT8FDIZY82IMGP2COH9T7SM78W0,38YMOXR4MYFOKN1MMPKSMFT3G3G6W8,3,4
238,4,object_07,object_03,729.40000009537,7,1,372.0,0.3333333333333333,1,object_02,5,3589,0,3,4,restaurant_7,2,memory-2step-stake-s,730,2966339,0.0-19.0-0.1-0.238,A2ZDEERVRN5AMC,3X2LT8FDIZY82IMGP2COH9T7SM78W0,38YMOXR4MYFOKN1MMPKSMFT3G3G6W8,7,8
239,3,object_06,object_08,713.59999990463,5,2,428.0,0.0,1,object_02,1,3589,0,0,4,library_8,2,memory-2step-stake-s,731,2973980,0.0-19.0-0.1-0.239,A2ZDEERVRN5AMC,3X2LT8FDIZY82IMGP2COH9T7SM78W0,38YMOXR4MYFOKN1MMPKSMFT3G3G6W8,6,5
240,2,object_01,object_05,1102.5,4,2,320.7000002861,0.5555555555555556,2,object_10,5,3614,0,0,5,forest_8,2,memory-2step-stake-s,732,2982024,0.0-19.0-0.1-0.240,A2ZDEERVRN5AMC,3X2LT8FDIZY82IMGP2COH9T7SM78W0,38YMOXR4MYFOKN1MMPKSMFT3G3G6W8,3,4
241,3,object_06,object_08,661.69999980927,6,1,383.80000019073,0.4444444444444444,2,object_10,1,3618,0,0,4,library_2,2,memory-2step-stake-s,733,2990025,0.0-19.0-0.1-0.241,A2ZDEERVRN5AMC,3X2LT8FDIZY82IMGP2COH9T7SM78W0,38YMOXR4MYFOKN1MMPKSMFT3G3G6W8,6,5
242,3,object_08,object_06,1017.6000003815,6,2,1020.2999997139,0.1111111111111111,2,object_10,1,3619,0,2,1,library_2,2,memory-2step-stake-s,734,2998362,0.0-19.0-0.1-0.242,A2ZDEERVRN5AMC,3X2LT8FDIZY82IMGP2COH9T7SM78W0,38YMOXR4MYFOKN1MMPKSMFT3G3G6W8,5,6
243,4,object_07,object_03,861.2000002861,8,2,313.09999990463,0.4444444444444444,2,object_10,5,3639,0,5,4,restaurant_7,2,memory-2step-stake-s,735,3006305,0.0-19.0-0.1-0.243,A2ZDEERVRN5AMC,3X2LT8FDIZY82IMGP2COH9T7SM78W0,38YMOXR4MYFOKN1MMPKSMFT3G3G6W8,7,8
244,2,object_05,object_01,1323.0,4,1,365.2999997139,0.4444444444444444,2,object_10,5,3659,0,9,4,forest_8,2,memory-2step-stake-s,736,3014289,0.0-19.0-0.1-0.244,A2ZDEERVRN5AMC,3X2LT8FDIZY82IMGP2COH9T7SM78W0,38YMOXR4MYFOKN1MMPKSMFT3G3G6W8,4,3
245,2,object_01,object_05,877.2999997139,4,2,625.0,0.8888888888888888,2,object_10,1,3667,0,8,8,forest_8,2,memory-2step-stake-s,737,3022933,0.0-19.0-0.1-0.245,A2ZDEERVRN5AMC,3X2LT8FDIZY82IMGP2COH9T7SM78W0,38YMOXR4MYFOKN1MMPKSMFT3G3G6W8,3,4
246,3,object_06,object_08,768.2999997139,5,2,395.30000019073,0.6666666666666666,1,object_02,1,3673,0,6,8,library_8,2,memory-2step-stake-s,738,3031147,0.0-19.0-0.1-0.246,A2ZDEERVRN5AMC,3X2LT8FDIZY82IMGP2COH9T7SM78W0,38YMOXR4MYFOKN1MMPKSMFT3G3G6W8,6,5
247,2,object_01,object_05,785.7000002861,3,1,307.80000019073,0.7777777777777778,1,object_02,5,3708,0,7,5,forest_7,2,memory-2step-stake-s,739,3039376,0.0-19.0-0.1-0.247,A2ZDEERVRN5AMC,3X2LT8FDIZY82IMGP2COH9T7SM78W0,38YMOXR4MYFOKN1MMPKSMFT3G3G6W8,3,4
248,4,object_03,object_07,638.19999980927,7,2,321.30000019073,0.6666666666666666,1,object_02,5,3738,0,6,1,restaurant_5,2,memory-2step-stake-s,740,3047515,0.0-19.0-0.1-0.248,A2ZDEERVRN5AMC,3X2LT8FDIZY82IMGP2COH9T7SM78W0,38YMOXR4MYFOKN1MMPKSMFT3G3G6W8,8,7
249,2,object_05,object_01,626.0,3,2,380.7999997139,0.4444444444444444,1,object_02,5,3758,0,4,2,forest_4,2,memory-2step-stake-s,741,3055513,0.0-19.0-0.1-0.249,A2ZDEERVRN5AMC,3X2LT8FDIZY82IMGP2COH9T7SM78W0,38YMOXR4MYFOKN1MMPKSMFT3G3G6W8,4,3
250,2,object_05,object_01,1028.0999999046,4,1,352.19999980927,0.1111111111111111,2,object_10,5,3763,0,1,1,forest_8,2,memory-2step-stake-s,742,3063178,0.0-19.0-0.1-0.250,A2ZDEERVRN5AMC,3X2LT8FDIZY82IMGP2COH9T7SM78W0,38YMOXR4MYFOKN1MMPKSMFT3G3G6W8,4,3
251,2,object_05,object_01,665.7999997139,3,2,444.7999997139,0.4444444444444444,1,object_02,5,3783,0,4,4,forest_7,2,memory-2step-stake-s,743,3071241,0.0-19.0-0.1-0.251,A2ZDEERVRN5AMC,3X2LT8FDIZY82IMGP2COH9T7SM78W0,38YMOXR4MYFOKN1MMPKSMFT3G3G6W8,4,3
252,2,object_01,object_05,819.7999997139,4,2,357.59999990463,0.2222222222222222,2,object_10,5,3793,0,2,2,forest_7,2,memory-2step-stake-s,744,3079014,0.0-19.0-0.1-0.252,A2ZDEERVRN5AMC,3X2LT8FDIZY82IMGP2COH9T7SM78W0,38YMOXR4MYFOKN1MMPKSMFT3G3G6W8,3,4
253,3,object_06,object_08,901.60000038147,5,2,304.69999980927,0.2222222222222222,1,object_02,5,3803,0,2,2,library_5,2,memory-2step-stake-s,745,3086734,0.0-19.0-0.1-0.253,A2ZDEERVRN5AMC,3X2LT8FDIZY82IMGP2COH9T7SM78W0,38YMOXR4MYFOKN1MMPKSMFT3G3G6W8,6,5
254,2,object_01,object_05,670.19999980927,3,1,345.2999997139,0.2222222222222222,1,object_02,5,3813,0,2,0,forest_4,2,memory-2step-stake-s,746,3094493,0.0-19.0-0.1-0.254,A2ZDEERVRN5AMC,3X2LT8FDIZY82IMGP2COH9T7SM78W0,38YMOXR4MYFOKN1MMPKSMFT3G3G6W8,3,4
255,1,object_04,object_09,644.7999997139,1,2,207.7999997139,0.1111111111111111,1,object_02,5,3818,0,1,1,desert_1,2,memory-2step-stake-s,747,3102018,0.0-19.0-0.1-0.255,A2ZDEERVRN5AMC,3X2LT8FDIZY82IMGP2COH9T7SM78W0,38YMOXR4MYFOKN1MMPKSMFT3G3G6W8,2,1
