,state1,stim_left,stim_right,rt_1,choice1,response1,rt_2,points,state2,stim_state2,stake,score,practice,rews1,rews2,background,high_arm,trial_type,trial_index,time_elapsed,internal_node_id,subid,hitid,assignmentid,stim_left_num,stim_right_num
0,1,object_07,object_08,968.59999999963,1,1,1174.4000000004,0.2222222222222222,1,object_05,5,10,0,2,5,desert_7,2,memory-2step-stake-s,490,1292143,0.0-19.0-0.0-0.0,A3NKZMF7M4X0ZP,371DNNCG57IGA1IMUX7DUPM8OSP8TA,3PJ71Z61R8II15NHN8YJDZUBARX915,1,2
1,4,object_02,object_09,967.29999999888,7,1,670.89999999851,0.5555555555555556,1,object_05,1,15,0,5,4,restaurant_7,2,memory-2step-stake-s,491,1300587,0.0-19.0-0.0-0.1,A3NKZMF7M4X0ZP,371DNNCG57IGA1IMUX7DUPM8OSP8TA,3PJ71Z61R8II15NHN8YJDZUBARX915,7,8
2,2,object_10,object_03,690.10000000149,3,2,1202.2999999989,0.4444444444444444,1,object_05,5,35,0,4,1,forest_5,2,memory-2step-stake-s,492,1309487,0.0-19.0-0.0-0.2,A3NKZMF7M4X0ZP,371DNNCG57IGA1IMUX7DUPM8OSP8TA,3PJ71Z61R8II15NHN8YJDZUBARX915,4,3
3,4,object_09,object_02,1447.4000000004,8,1,127.80000000075,0.2222222222222222,2,object_04,1,37,0,2,2,restaurant_7,2,memory-2step-stake-s,493,1317071,0.0-19.0-0.0-0.3,A3NKZMF7M4X0ZP,371DNNCG57IGA1IMUX7DUPM8OSP8TA,3PJ71Z61R8II15NHN8YJDZUBARX915,8,7
4,2,object_03,object_10,614.70000000112,4,2,123.80000000075,0.0,2,object_04,5,37,0,0,0,forest_1,2,memory-2step-stake-s,494,1324470,0.0-19.0-0.0-0.4,A3NKZMF7M4X0ZP,371DNNCG57IGA1IMUX7DUPM8OSP8TA,3PJ71Z61R8II15NHN8YJDZUBARX915,3,4
5,3,object_01,object_06,1153.6000000015,6,2,1003.2000000011,0.1111111111111111,2,object_04,1,38,0,1,1,library_6,2,memory-2step-stake-s,495,1332834,0.0-19.0-0.0-0.5,A3NKZMF7M4X0ZP,371DNNCG57IGA1IMUX7DUPM8OSP8TA,3PJ71Z61R8II15NHN8YJDZUBARX915,5,6
6,2,object_10,object_03,891.69999999925,4,1,783.59999999963,0.0,2,object_04,5,38,0,1,0,forest_2,2,memory-2step-stake-s,496,1340858,0.0-19.0-0.0-0.6,A3NKZMF7M4X0ZP,371DNNCG57IGA1IMUX7DUPM8OSP8TA,3PJ71Z61R8II15NHN8YJDZUBARX915,4,3
7,4,object_02,object_09,412.59999999963,8,2,504.30000000075,0.0,2,object_04,1,38,0,1,0,restaurant_7,2,memory-2step-stake-s,497,1348622,0.0-19.0-0.0-0.7,A3NKZMF7M4X0ZP,371DNNCG57IGA1IMUX7DUPM8OSP8TA,3PJ71Z61R8II15NHN8YJDZUBARX915,7,8
8,2,object_03,object_10,858.79999999888,3,1,58.900000000373,0.2222222222222222,1,object_05,5,48,0,2,0,forest_5,2,memory-2step-stake-s,498,1356145,0.0-19.0-0.0-0.8,A3NKZMF7M4X0ZP,371DNNCG57IGA1IMUX7DUPM8OSP8TA,3PJ71Z61R8II15NHN8YJDZUBARX915,3,4
9,3,object_06,object_01,1283.1999999993,6,1,1282.3000000007,0.1111111111111111,2,object_04,1,49,0,3,1,library_5,2,memory-2step-stake-s,499,1364806,0.0-19.0-0.0-0.9,A3NKZMF7M4X0ZP,371DNNCG57IGA1IMUX7DUPM8OSP8TA,3PJ71Z61R8II15NHN8YJDZUBARX915,6,5
10,3,object_01,object_06,-1.0,-1,-1,-1.0,0.0,-,0,1,49,0,2,0,library_7,2,memory-2step-stake-s,500,1371368,0.0-19.0-0.0-0.10,A3NKZMF7M4X0ZP,371DNNCG57IGA1IMUX7DUPM8OSP8TA,3PJ71Z61R8II15NHN8YJDZUBARX915,5,6
11,3,object_01,object_06,566.70000000112,6,2,514.09999999963,0.6666666666666666,2,object_04,1,55,0,2,6,library_6,2,memory-2step-stake-s,501,1379781,0.0-19.0-0.0-0.11,A3NKZMF7M4X0ZP,371DNNCG57IGA1IMUX7DUPM8OSP8TA,3PJ71Z61R8II15NHN8YJDZUBARX915,5,6
12,2,object_03,object_10,743.79999999888,3,1,508.29999999888,0.1111111111111111,1,object_05,1,56,0,1,8,forest_5,2,memory-2step-stake-s,502,1387664,0.0-19.0-0.0-0.12,A3NKZMF7M4X0ZP,371DNNCG57IGA1IMUX7DUPM8OSP8TA,3PJ71Z61R8II15NHN8YJDZUBARX915,3,4
13,3,object_01,object_06,938.59999999963,6,2,966.59999999963,0.6666666666666666,2,object_04,5,86,0,2,6,library_2,2,memory-2step-stake-s,503,1396495,0.0-19.0-0.0-0.13,A3NKZMF7M4X0ZP,371DNNCG57IGA1IMUX7DUPM8OSP8TA,3PJ71Z61R8II15NHN8YJDZUBARX915,5,6
14,2,object_03,object_10,436.40000000037,4,2,6.9000000003725,0.6666666666666666,2,object_04,5,116,0,5,6,forest_2,2,memory-2step-stake-s,504,1404374,0.0-19.0-0.0-0.14,A3NKZMF7M4X0ZP,371DNNCG57IGA1IMUX7DUPM8OSP8TA,3PJ71Z61R8II15NHN8YJDZUBARX915,3,4
15,4,object_02,object_09,388.40000000037,8,2,669.19999999925,0.8888888888888888,2,object_04,1,124,0,2,8,restaurant_1,2,memory-2step-stake-s,505,1413125,0.0-19.0-0.0-0.15,A3NKZMF7M4X0ZP,371DNNCG57IGA1IMUX7DUPM8OSP8TA,3PJ71Z61R8II15NHN8YJDZUBARX915,7,8
16,1,object_07,object_08,518.39999999851,2,2,839.69999999925,0.6666666666666666,2,object_04,1,130,0,6,6,desert_6,2,memory-2step-stake-s,506,1421852,0.0-19.0-0.0-0.16,A3NKZMF7M4X0ZP,371DNNCG57IGA1IMUX7DUPM8OSP8TA,3PJ71Z61R8II15NHN8YJDZUBARX915,1,2
17,2,object_10,object_03,678.90000000037,4,1,162.30000000075,0.8888888888888888,2,object_04,5,170,0,7,8,forest_2,2,memory-2step-stake-s,507,1430111,0.0-19.0-0.0-0.17,A3NKZMF7M4X0ZP,371DNNCG57IGA1IMUX7DUPM8OSP8TA,3PJ71Z61R8II15NHN8YJDZUBARX915,4,3
18,4,object_09,object_02,804.70000000112,7,2,178.79999999888,0.6666666666666666,1,object_05,1,176,0,6,8,restaurant_7,2,memory-2step-stake-s,508,1438155,0.0-19.0-0.0-0.18,A3NKZMF7M4X0ZP,371DNNCG57IGA1IMUX7DUPM8OSP8TA,3PJ71Z61R8II15NHN8YJDZUBARX915,8,7
19,1,object_07,object_08,886.40000000037,1,1,446.09999999963,0.6666666666666666,1,object_05,1,182,0,6,5,desert_4,2,memory-2step-stake-s,509,1446489,0.0-19.0-0.0-0.19,A3NKZMF7M4X0ZP,371DNNCG57IGA1IMUX7DUPM8OSP8TA,3PJ71Z61R8II15NHN8YJDZUBARX915,1,2
20,3,object_06,object_01,566.40000000037,6,1,661.09999999963,0.4444444444444444,2,object_04,1,186,0,6,4,library_5,2,memory-2step-stake-s,510,1454821,0.0-19.0-0.0-0.20,A3NKZMF7M4X0ZP,371DNNCG57IGA1IMUX7DUPM8OSP8TA,3PJ71Z61R8II15NHN8YJDZUBARX915,6,5
21,1,object_08,object_07,613.30000000075,1,2,688.59999999963,0.6666666666666666,1,object_05,5,216,0,6,3,desert_6,2,memory-2step-stake-s,511,1463365,0.0-19.0-0.0-0.21,A3NKZMF7M4X0ZP,371DNNCG57IGA1IMUX7DUPM8OSP8TA,3PJ71Z61R8II15NHN8YJDZUBARX915,2,1
22,4,object_09,object_02,317.40000000037,7,2,533.59999999963,0.6666666666666666,1,object_05,1,222,0,6,1,restaurant_8,2,memory-2step-stake-s,512,1471793,0.0-19.0-0.0-0.22,A3NKZMF7M4X0ZP,371DNNCG57IGA1IMUX7DUPM8OSP8TA,3PJ71Z61R8II15NHN8YJDZUBARX915,8,7
23,4,object_09,object_02,910.80000000075,7,2,893.09999999963,0.7777777777777778,1,object_05,1,229,0,7,1,restaurant_8,2,memory-2step-stake-s,513,1480671,0.0-19.0-0.0-0.23,A3NKZMF7M4X0ZP,371DNNCG57IGA1IMUX7DUPM8OSP8TA,3PJ71Z61R8II15NHN8YJDZUBARX915,8,7
24,3,object_01,object_06,-1.0,-1,-1,-1.0,0.0,-,0,5,229,0,8,1,library_2,2,memory-2step-stake-s,514,1487226,0.0-19.0-0.0-0.24,A3NKZMF7M4X0ZP,371DNNCG57IGA1IMUX7DUPM8OSP8TA,3PJ71Z61R8II15NHN8YJDZUBARX915,5,6
25,4,object_09,object_02,367.10000000149,8,1,1167.0,0.1111111111111111,2,object_04,1,230,0,8,1,restaurant_3,2,memory-2step-stake-s,515,1495752,0.0-19.0-0.0-0.25,A3NKZMF7M4X0ZP,371DNNCG57IGA1IMUX7DUPM8OSP8TA,3PJ71Z61R8II15NHN8YJDZUBARX915,8,7
26,4,object_02,object_09,967.09999999963,8,2,708.69999999925,0.2222222222222222,2,object_04,1,232,0,7,2,restaurant_1,2,memory-2step-stake-s,516,1503917,0.0-19.0-0.0-0.26,A3NKZMF7M4X0ZP,371DNNCG57IGA1IMUX7DUPM8OSP8TA,3PJ71Z61R8II15NHN8YJDZUBARX915,7,8
27,4,object_09,object_02,775.79999999888,7,2,736.40000000037,1.0,1,object_05,1,241,0,9,3,restaurant_3,2,memory-2step-stake-s,517,1512853,0.0-19.0-0.0-0.27,A3NKZMF7M4X0ZP,371DNNCG57IGA1IMUX7DUPM8OSP8TA,3PJ71Z61R8II15NHN8YJDZUBARX915,8,7
28,4,object_02,object_09,497.19999999925,8,2,775.40000000037,0.3333333333333333,2,object_04,5,256,0,9,3,restaurant_3,2,memory-2step-stake-s,518,1521187,0.0-19.0-0.0-0.28,A3NKZMF7M4X0ZP,371DNNCG57IGA1IMUX7DUPM8OSP8TA,3PJ71Z61R8II15NHN8YJDZUBARX915,7,8
29,4,object_02,object_09,842.20000000112,8,2,881.59999999963,0.4444444444444444,2,object_04,1,260,0,8,4,restaurant_1,2,memory-2step-stake-s,519,1529747,0.0-19.0-0.0-0.29,A3NKZMF7M4X0ZP,371DNNCG57IGA1IMUX7DUPM8OSP8TA,3PJ71Z61R8II15NHN8YJDZUBARX915,7,8
30,3,object_01,object_06,892.40000000037,6,2,701.80000000075,0.7777777777777778,2,object_04,1,267,0,8,7,library_6,2,memory-2step-stake-s,520,1538435,0.0-19.0-0.0-0.30,A3NKZMF7M4X0ZP,371DNNCG57IGA1IMUX7DUPM8OSP8TA,3PJ71Z61R8II15NHN8YJDZUBARX915,5,6
31,4,object_02,object_09,731.59999999963,8,2,954.09999999963,0.6666666666666666,2,object_04,1,273,0,6,6,restaurant_7,2,memory-2step-stake-s,521,1547267,0.0-19.0-0.0-0.31,A3NKZMF7M4X0ZP,371DNNCG57IGA1IMUX7DUPM8OSP8TA,3PJ71Z61R8II15NHN8YJDZUBARX915,7,8
32,2,object_10,object_03,41.099999999627,3,2,616.39999999851,0.4444444444444444,1,object_05,5,293,0,4,7,forest_2,2,memory-2step-stake-s,522,1555565,0.0-19.0-0.0-0.32,A3NKZMF7M4X0ZP,371DNNCG57IGA1IMUX7DUPM8OSP8TA,3PJ71Z61R8II15NHN8YJDZUBARX915,4,3
33,2,object_10,object_03,716.30000000075,3,2,839.5,0.3333333333333333,1,object_05,5,308,0,3,9,forest_5,2,memory-2step-stake-s,523,1563979,0.0-19.0-0.0-0.33,A3NKZMF7M4X0ZP,371DNNCG57IGA1IMUX7DUPM8OSP8TA,3PJ71Z61R8II15NHN8YJDZUBARX915,4,3
34,3,object_06,object_01,987.19999999925,5,2,600.69999999925,0.3333333333333333,1,object_05,5,323,0,3,6,library_2,2,memory-2step-stake-s,524,1572155,0.0-19.0-0.0-0.34,A3NKZMF7M4X0ZP,371DNNCG57IGA1IMUX7DUPM8OSP8TA,3PJ71Z61R8II15NHN8YJDZUBARX915,6,5
35,1,object_07,object_08,413.40000000037,2,2,908.79999999888,0.4444444444444444,2,object_04,5,343,0,2,4,desert_6,2,memory-2step-stake-s,525,1580736,0.0-19.0-0.0-0.35,A3NKZMF7M4X0ZP,371DNNCG57IGA1IMUX7DUPM8OSP8TA,3PJ71Z61R8II15NHN8YJDZUBARX915,1,2
36,1,object_07,object_08,1062.0999999996,1,1,469.09999999963,0.0,1,object_05,5,343,0,0,3,desert_7,2,memory-2step-stake-s,526,1588474,0.0-19.0-0.0-0.36,A3NKZMF7M4X0ZP,371DNNCG57IGA1IMUX7DUPM8OSP8TA,3PJ71Z61R8II15NHN8YJDZUBARX915,1,2
37,2,object_03,object_10,1160.9000000004,3,1,836.19999999925,0.4444444444444444,1,object_05,5,363,0,4,5,forest_5,2,memory-2step-stake-s,527,1596979,0.0-19.0-0.0-0.37,A3NKZMF7M4X0ZP,371DNNCG57IGA1IMUX7DUPM8OSP8TA,3PJ71Z61R8II15NHN8YJDZUBARX915,3,4
38,4,object_09,object_02,855.69999999925,7,2,-1.0,0.0,1,object_05,1,363,0,8,5,restaurant_8,2,memory-2step-stake-s,528,1605533,0.0-19.0-0.0-0.38,A3NKZMF7M4X0ZP,371DNNCG57IGA1IMUX7DUPM8OSP8TA,3PJ71Z61R8II15NHN8YJDZUBARX915,8,7
39,2,object_03,object_10,375.5,3,1,434.5,0.8888888888888888,1,object_05,5,403,0,8,3,forest_5,2,memory-2step-stake-s,529,1614032,0.0-19.0-0.0-0.39,A3NKZMF7M4X0ZP,371DNNCG57IGA1IMUX7DUPM8OSP8TA,3PJ71Z61R8II15NHN8YJDZUBARX915,3,4
40,1,object_08,object_07,139.80000000075,1,2,1150.0,0.6666666666666666,1,object_05,5,433,0,6,0,desert_6,2,memory-2step-stake-s,530,1623071,0.0-19.0-0.0-0.40,A3NKZMF7M4X0ZP,371DNNCG57IGA1IMUX7DUPM8OSP8TA,3PJ71Z61R8II15NHN8YJDZUBARX915,2,1
41,4,object_09,object_02,684.5,7,2,506.09999999963,0.8888888888888888,1,object_05,1,441,0,8,1,restaurant_7,2,memory-2step-stake-s,531,1631675,0.0-19.0-0.0-0.41,A3NKZMF7M4X0ZP,371DNNCG57IGA1IMUX7DUPM8OSP8TA,3PJ71Z61R8II15NHN8YJDZUBARX915,8,7
42,2,object_03,object_10,776.79999999888,4,2,884.09999999963,0.1111111111111111,2,object_04,1,442,0,4,1,forest_5,2,memory-2step-stake-s,532,1639932,0.0-19.0-0.0-0.42,A3NKZMF7M4X0ZP,371DNNCG57IGA1IMUX7DUPM8OSP8TA,3PJ71Z61R8II15NHN8YJDZUBARX915,3,4
43,2,object_10,object_03,93.799999998882,4,1,633.19999999925,0.4444444444444444,2,object_04,1,446,0,5,4,forest_5,2,memory-2step-stake-s,533,1648221,0.0-19.0-0.0-0.43,A3NKZMF7M4X0ZP,371DNNCG57IGA1IMUX7DUPM8OSP8TA,3PJ71Z61R8II15NHN8YJDZUBARX915,4,3
44,2,object_10,object_03,195.90000000037,3,2,879.79999999888,0.3333333333333333,1,object_05,1,449,0,3,6,forest_1,2,memory-2step-stake-s,534,1656671,0.0-19.0-0.0-0.44,A3NKZMF7M4X0ZP,371DNNCG57IGA1IMUX7DUPM8OSP8TA,3PJ71Z61R8II15NHN8YJDZUBARX915,4,3
45,2,object_10,object_03,1328.0999999996,3,2,817.30000000075,0.3333333333333333,1,object_05,5,464,0,3,4,forest_2,2,memory-2step-stake-s,535,1665070,0.0-19.0-0.0-0.45,A3NKZMF7M4X0ZP,371DNNCG57IGA1IMUX7DUPM8OSP8TA,3PJ71Z61R8II15NHN8YJDZUBARX915,4,3
46,4,object_09,object_02,465.20000000112,8,1,473.39999999851,0.6666666666666666,2,object_04,5,494,0,5,6,restaurant_3,2,memory-2step-stake-s,536,1673436,0.0-19.0-0.0-0.46,A3NKZMF7M4X0ZP,371DNNCG57IGA1IMUX7DUPM8OSP8TA,3PJ71Z61R8II15NHN8YJDZUBARX915,8,7
47,2,object_10,object_03,710.09999999963,3,2,556.09999999963,0.7777777777777778,1,object_05,5,529,0,7,5,forest_2,2,memory-2step-stake-s,537,1681991,0.0-19.0-0.0-0.47,A3NKZMF7M4X0ZP,371DNNCG57IGA1IMUX7DUPM8OSP8TA,3PJ71Z61R8II15NHN8YJDZUBARX915,4,3
48,2,object_03,object_10,794.90000000037,4,2,556.19999999925,0.3333333333333333,2,object_04,5,544,0,6,3,forest_5,2,memory-2step-stake-s,538,1690118,0.0-19.0-0.0-0.48,A3NKZMF7M4X0ZP,371DNNCG57IGA1IMUX7DUPM8OSP8TA,3PJ71Z61R8II15NHN8YJDZUBARX915,3,4
49,1,object_08,object_07,772.0,2,1,505.40000000037,0.5555555555555556,2,object_04,1,549,0,3,5,desert_7,2,memory-2step-stake-s,539,1698374,0.0-19.0-0.0-0.49,A3NKZMF7M4X0ZP,371DNNCG57IGA1IMUX7DUPM8OSP8TA,3PJ71Z61R8II15NHN8YJDZUBARX915,2,1
50,1,object_08,object_07,1045.1999999993,2,1,653.59999999963,0.6666666666666666,2,object_04,5,579,0,5,6,desert_4,2,memory-2step-stake-s,540,1706908,0.0-19.0-0.0-0.50,A3NKZMF7M4X0ZP,371DNNCG57IGA1IMUX7DUPM8OSP8TA,3PJ71Z61R8II15NHN8YJDZUBARX915,2,1
51,3,object_06,object_01,1292.6999999993,5,2,683.59999999963,0.6666666666666666,1,object_05,1,585,0,6,7,library_6,2,memory-2step-stake-s,541,1715468,0.0-19.0-0.0-0.51,A3NKZMF7M4X0ZP,371DNNCG57IGA1IMUX7DUPM8OSP8TA,3PJ71Z61R8II15NHN8YJDZUBARX915,6,5
52,3,object_06,object_01,492.40000000037,6,1,755.80000000075,1.0,2,object_04,5,630,0,7,9,library_5,2,memory-2step-stake-s,542,1724416,0.0-19.0-0.0-0.52,A3NKZMF7M4X0ZP,371DNNCG57IGA1IMUX7DUPM8OSP8TA,3PJ71Z61R8II15NHN8YJDZUBARX915,6,5
53,3,object_06,object_01,680.90000000037,5,2,1183.2999999989,0.6666666666666666,1,object_05,1,636,0,6,5,library_5,2,memory-2step-stake-s,543,1733457,0.0-19.0-0.0-0.53,A3NKZMF7M4X0ZP,371DNNCG57IGA1IMUX7DUPM8OSP8TA,3PJ71Z61R8II15NHN8YJDZUBARX915,6,5
54,3,object_06,object_01,374.70000000112,6,1,492.5,0.7777777777777778,2,object_04,1,643,0,3,7,library_6,2,memory-2step-stake-s,544,1741932,0.0-19.0-0.0-0.54,A3NKZMF7M4X0ZP,371DNNCG57IGA1IMUX7DUPM8OSP8TA,3PJ71Z61R8II15NHN8YJDZUBARX915,6,5
55,4,object_09,object_02,288.59999999963,8,1,645.79999999888,0.7777777777777778,2,object_04,1,650,0,3,7,restaurant_3,2,memory-2step-stake-s,545,1750529,0.0-19.0-0.0-0.55,A3NKZMF7M4X0ZP,371DNNCG57IGA1IMUX7DUPM8OSP8TA,3PJ71Z61R8II15NHN8YJDZUBARX915,8,7
56,2,object_03,object_10,1269.0,3,1,601.40000000037,0.1111111111111111,1,object_05,5,655,0,1,7,forest_5,2,memory-2step-stake-s,546,1758508,0.0-19.0-0.0-0.56,A3NKZMF7M4X0ZP,371DNNCG57IGA1IMUX7DUPM8OSP8TA,3PJ71Z61R8II15NHN8YJDZUBARX915,3,4
57,2,object_03,object_10,817.80000000075,4,2,777.0,0.8888888888888888,2,object_04,5,695,0,1,8,forest_2,2,memory-2step-stake-s,547,1767384,0.0-19.0-0.0-0.57,A3NKZMF7M4X0ZP,371DNNCG57IGA1IMUX7DUPM8OSP8TA,3PJ71Z61R8II15NHN8YJDZUBARX915,3,4
58,1,object_08,object_07,1099.0,2,1,-1.0,0.0,2,object_04,5,695,0,2,8,desert_7,2,memory-2step-stake-s,548,1775920,0.0-19.0-0.0-0.58,A3NKZMF7M4X0ZP,371DNNCG57IGA1IMUX7DUPM8OSP8TA,3PJ71Z61R8II15NHN8YJDZUBARX915,2,1
59,2,object_03,object_10,446.69999999925,4,2,503.0,0.8888888888888888,2,object_04,1,703,0,3,8,forest_2,2,memory-2step-stake-s,549,1784489,0.0-19.0-0.0-0.59,A3NKZMF7M4X0ZP,371DNNCG57IGA1IMUX7DUPM8OSP8TA,3PJ71Z61R8II15NHN8YJDZUBARX915,3,4
60,3,object_06,object_01,612.90000000037,6,1,630.80000000075,0.7777777777777778,2,object_04,1,710,0,2,7,library_7,2,memory-2step-stake-s,550,1793127,0.0-19.0-0.0-0.60,A3NKZMF7M4X0ZP,371DNNCG57IGA1IMUX7DUPM8OSP8TA,3PJ71Z61R8II15NHN8YJDZUBARX915,6,5
61,2,object_03,object_10,474.0,4,2,431.59999999963,0.5555555555555556,2,object_04,5,735,0,3,5,forest_2,2,memory-2step-stake-s,551,1801331,0.0-19.0-0.0-0.61,A3NKZMF7M4X0ZP,371DNNCG57IGA1IMUX7DUPM8OSP8TA,3PJ71Z61R8II15NHN8YJDZUBARX915,3,4
62,1,object_08,object_07,633.0,2,1,1043.5999999996,0.4444444444444444,2,object_04,5,755,0,5,4,desert_7,2,memory-2step-stake-s,552,1810033,0.0-19.0-0.0-0.62,A3NKZMF7M4X0ZP,371DNNCG57IGA1IMUX7DUPM8OSP8TA,3PJ71Z61R8II15NHN8YJDZUBARX915,2,1
63,2,object_10,object_03,676.09999999963,4,1,853.19999999925,0.5555555555555556,2,object_04,1,760,0,2,5,forest_3,2,memory-2step-stake-s,553,1818656,0.0-19.0-0.0-0.63,A3NKZMF7M4X0ZP,371DNNCG57IGA1IMUX7DUPM8OSP8TA,3PJ71Z61R8II15NHN8YJDZUBARX915,4,3
64,4,object_02,object_09,276.30000000075,8,2,431.90000000037,0.6666666666666666,2,object_04,1,766,0,0,6,restaurant_7,2,memory-2step-stake-s,554,1826968,0.0-19.0-0.0-0.64,A3NKZMF7M4X0ZP,371DNNCG57IGA1IMUX7DUPM8OSP8TA,3PJ71Z61R8II15NHN8YJDZUBARX915,7,8
65,2,object_10,object_03,844.5,4,1,453.80000000075,0.6666666666666666,2,object_04,5,796,0,1,6,forest_1,2,memory-2step-stake-s,555,1835293,0.0-19.0-0.0-0.65,A3NKZMF7M4X0ZP,371DNNCG57IGA1IMUX7DUPM8OSP8TA,3PJ71Z61R8II15NHN8YJDZUBARX915,4,3
66,2,object_03,object_10,974.0,4,2,1044.2999999989,0.7777777777777778,2,object_04,5,831,0,0,7,forest_1,2,memory-2step-stake-s,556,1844313,0.0-19.0-0.0-0.66,A3NKZMF7M4X0ZP,371DNNCG57IGA1IMUX7DUPM8OSP8TA,3PJ71Z61R8II15NHN8YJDZUBARX915,3,4
67,2,object_03,object_10,677.80000000075,3,1,467.0,0.1111111111111111,1,object_05,5,836,0,1,7,forest_1,2,memory-2step-stake-s,557,1852148,0.0-19.0-0.0-0.67,A3NKZMF7M4X0ZP,371DNNCG57IGA1IMUX7DUPM8OSP8TA,3PJ71Z61R8II15NHN8YJDZUBARX915,3,4
68,4,object_02,object_09,439.69999999925,8,2,484.0,0.7777777777777778,2,object_04,1,843,0,3,7,restaurant_7,2,memory-2step-stake-s,558,1860616,0.0-19.0-0.0-0.68,A3NKZMF7M4X0ZP,371DNNCG57IGA1IMUX7DUPM8OSP8TA,3PJ71Z61R8II15NHN8YJDZUBARX915,7,8
69,2,object_10,object_03,931.5,4,1,417.70000000112,0.5555555555555556,2,object_04,5,868,0,3,5,forest_1,2,memory-2step-stake-s,559,1868789,0.0-19.0-0.0-0.69,A3NKZMF7M4X0ZP,371DNNCG57IGA1IMUX7DUPM8OSP8TA,3PJ71Z61R8II15NHN8YJDZUBARX915,4,3
70,1,object_07,object_08,846.39999999851,1,1,202.0,0.3333333333333333,1,object_05,5,883,0,3,1,desert_3,2,memory-2step-stake-s,560,1876549,0.0-19.0-0.0-0.70,A3NKZMF7M4X0ZP,371DNNCG57IGA1IMUX7DUPM8OSP8TA,3PJ71Z61R8II15NHN8YJDZUBARX915,1,2
71,3,object_01,object_06,873.80000000075,5,1,345.10000000149,0.2222222222222222,1,object_05,1,885,0,2,1,library_6,2,memory-2step-stake-s,561,1884348,0.0-19.0-0.0-0.71,A3NKZMF7M4X0ZP,371DNNCG57IGA1IMUX7DUPM8OSP8TA,3PJ71Z61R8II15NHN8YJDZUBARX915,5,6
72,4,object_02,object_09,747.69999999925,7,1,776.90000000037,0.4444444444444444,1,object_05,1,889,0,4,1,restaurant_3,2,memory-2step-stake-s,562,1892774,0.0-19.0-0.0-0.72,A3NKZMF7M4X0ZP,371DNNCG57IGA1IMUX7DUPM8OSP8TA,3PJ71Z61R8II15NHN8YJDZUBARX915,7,8
73,1,object_07,object_08,1187.2000000011,1,1,848.69999999925,0.5555555555555556,1,object_05,5,914,0,5,3,desert_3,2,memory-2step-stake-s,563,1901395,0.0-19.0-0.0-0.73,A3NKZMF7M4X0ZP,371DNNCG57IGA1IMUX7DUPM8OSP8TA,3PJ71Z61R8II15NHN8YJDZUBARX915,1,2
74,4,object_09,object_02,846.69999999925,7,2,205.39999999851,1.0,1,object_05,1,923,0,9,1,restaurant_1,2,memory-2step-stake-s,564,1909775,0.0-19.0-0.0-0.74,A3NKZMF7M4X0ZP,371DNNCG57IGA1IMUX7DUPM8OSP8TA,3PJ71Z61R8II15NHN8YJDZUBARX915,8,7
75,1,object_08,object_07,871.40000000037,1,2,721.20000000112,0.7777777777777778,1,object_05,1,930,0,7,3,desert_6,2,memory-2step-stake-s,565,1918475,0.0-19.0-0.0-0.75,A3NKZMF7M4X0ZP,371DNNCG57IGA1IMUX7DUPM8OSP8TA,3PJ71Z61R8II15NHN8YJDZUBARX915,2,1
76,3,object_01,object_06,447.0,6,2,179.60000000149,0.5555555555555556,2,object_04,1,935,0,7,5,library_7,2,memory-2step-stake-s,566,1926408,0.0-19.0-0.0-0.76,A3NKZMF7M4X0ZP,371DNNCG57IGA1IMUX7DUPM8OSP8TA,3PJ71Z61R8II15NHN8YJDZUBARX915,5,6
77,4,object_02,object_09,851.5,8,2,753.0,0.4444444444444444,2,object_04,1,939,0,3,4,restaurant_8,2,memory-2step-stake-s,567,1934849,0.0-19.0-0.0-0.77,A3NKZMF7M4X0ZP,371DNNCG57IGA1IMUX7DUPM8OSP8TA,3PJ71Z61R8II15NHN8YJDZUBARX915,7,8
78,4,object_09,object_02,455.19999999925,8,1,474.69999999925,0.5555555555555556,2,object_04,1,944,0,3,5,restaurant_7,2,memory-2step-stake-s,568,1943122,0.0-19.0-0.0-0.78,A3NKZMF7M4X0ZP,371DNNCG57IGA1IMUX7DUPM8OSP8TA,3PJ71Z61R8II15NHN8YJDZUBARX915,8,7
79,2,object_03,object_10,611.79999999888,4,2,783.90000000037,0.5555555555555556,2,object_04,5,969,0,3,5,forest_1,2,memory-2step-stake-s,569,1951679,0.0-19.0-0.0-0.79,A3NKZMF7M4X0ZP,371DNNCG57IGA1IMUX7DUPM8OSP8TA,3PJ71Z61R8II15NHN8YJDZUBARX915,3,4
80,3,object_06,object_01,340.0,6,1,149.5,0.5555555555555556,2,object_04,5,994,0,1,5,library_7,2,memory-2step-stake-s,570,1959605,0.0-19.0-0.0-0.80,A3NKZMF7M4X0ZP,371DNNCG57IGA1IMUX7DUPM8OSP8TA,3PJ71Z61R8II15NHN8YJDZUBARX915,6,5
81,3,object_06,object_01,471.80000000075,5,2,9.2000000011176,0.0,1,object_05,1,994,0,0,4,library_7,2,memory-2step-stake-s,571,1966861,0.0-19.0-0.0-0.81,A3NKZMF7M4X0ZP,371DNNCG57IGA1IMUX7DUPM8OSP8TA,3PJ71Z61R8II15NHN8YJDZUBARX915,6,5
82,4,object_02,object_09,474.60000000149,7,1,368.89999999851,0.2222222222222222,1,object_05,1,996,0,2,6,restaurant_8,2,memory-2step-stake-s,572,1974725,0.0-19.0-0.0-0.82,A3NKZMF7M4X0ZP,371DNNCG57IGA1IMUX7DUPM8OSP8TA,3PJ71Z61R8II15NHN8YJDZUBARX915,7,8
83,4,object_02,object_09,755.19999999925,8,2,430.5,0.6666666666666666,2,object_04,1,1002,0,4,6,restaurant_8,2,memory-2step-stake-s,573,1983061,0.0-19.0-0.0-0.83,A3NKZMF7M4X0ZP,371DNNCG57IGA1IMUX7DUPM8OSP8TA,3PJ71Z61R8II15NHN8YJDZUBARX915,7,8
84,2,object_10,object_03,889.5,3,2,484.19999999925,0.3333333333333333,1,object_05,1,1005,0,3,6,forest_2,2,memory-2step-stake-s,574,1991116,0.0-19.0-0.0-0.84,A3NKZMF7M4X0ZP,371DNNCG57IGA1IMUX7DUPM8OSP8TA,3PJ71Z61R8II15NHN8YJDZUBARX915,4,3
85,3,object_06,object_01,648.30000000075,6,1,415.40000000037,0.5555555555555556,2,object_04,1,1010,0,5,5,library_7,2,memory-2step-stake-s,575,1999302,0.0-19.0-0.0-0.85,A3NKZMF7M4X0ZP,371DNNCG57IGA1IMUX7DUPM8OSP8TA,3PJ71Z61R8II15NHN8YJDZUBARX915,6,5
86,4,object_09,object_02,433.80000000075,7,2,783.80000000075,0.4444444444444444,1,object_05,1,1014,0,4,3,restaurant_8,2,memory-2step-stake-s,576,2007749,0.0-19.0-0.0-0.86,A3NKZMF7M4X0ZP,371DNNCG57IGA1IMUX7DUPM8OSP8TA,3PJ71Z61R8II15NHN8YJDZUBARX915,8,7
87,1,object_08,object_07,583.0,2,1,329.90000000037,0.5555555555555556,2,object_04,5,1039,0,5,5,desert_4,2,memory-2step-stake-s,577,2015857,0.0-19.0-0.0-0.87,A3NKZMF7M4X0ZP,371DNNCG57IGA1IMUX7DUPM8OSP8TA,3PJ71Z61R8II15NHN8YJDZUBARX915,2,1
88,1,object_07,object_08,792.79999999888,1,1,219.30000000075,0.5555555555555556,1,object_05,5,1064,0,5,5,desert_3,2,memory-2step-stake-s,578,2023864,0.0-19.0-0.0-0.88,A3NKZMF7M4X0ZP,371DNNCG57IGA1IMUX7DUPM8OSP8TA,3PJ71Z61R8II15NHN8YJDZUBARX915,1,2
89,4,object_02,object_09,364.59999999963,7,1,365.59999999963,0.8888888888888888,1,object_05,1,1072,0,8,8,restaurant_1,2,memory-2step-stake-s,579,2032302,0.0-19.0-0.0-0.89,A3NKZMF7M4X0ZP,371DNNCG57IGA1IMUX7DUPM8OSP8TA,3PJ71Z61R8II15NHN8YJDZUBARX915,7,8
90,3,object_06,object_01,1005.4000000004,5,2,545.89999999851,0.4444444444444444,1,object_05,1,1076,0,4,8,library_2,2,memory-2step-stake-s,580,2040496,0.0-19.0-0.0-0.90,A3NKZMF7M4X0ZP,371DNNCG57IGA1IMUX7DUPM8OSP8TA,3PJ71Z61R8II15NHN8YJDZUBARX915,6,5
91,3,object_01,object_06,485.80000000075,5,1,500.20000000112,0.3333333333333333,1,object_05,1,1079,0,3,7,library_5,2,memory-2step-stake-s,581,2048580,0.0-19.0-0.0-0.91,A3NKZMF7M4X0ZP,371DNNCG57IGA1IMUX7DUPM8OSP8TA,3PJ71Z61R8II15NHN8YJDZUBARX915,5,6
92,3,object_06,object_01,401.90000000037,6,1,375.29999999888,0.8888888888888888,2,object_04,1,1087,0,1,8,library_2,2,memory-2step-stake-s,582,2057062,0.0-19.0-0.0-0.92,A3NKZMF7M4X0ZP,371DNNCG57IGA1IMUX7DUPM8OSP8TA,3PJ71Z61R8II15NHN8YJDZUBARX915,6,5
93,1,object_07,object_08,358.39999999851,2,2,86.799999998882,0.7777777777777778,2,object_04,1,1094,0,2,7,desert_3,2,memory-2step-stake-s,583,2065133,0.0-19.0-0.0-0.93,A3NKZMF7M4X0ZP,371DNNCG57IGA1IMUX7DUPM8OSP8TA,3PJ71Z61R8II15NHN8YJDZUBARX915,1,2
94,3,object_01,object_06,831.5,5,1,681.59999999963,0.2222222222222222,1,object_05,5,1104,0,2,3,library_7,2,memory-2step-stake-s,584,2073263,0.0-19.0-0.0-0.94,A3NKZMF7M4X0ZP,371DNNCG57IGA1IMUX7DUPM8OSP8TA,3PJ71Z61R8II15NHN8YJDZUBARX915,5,6
95,3,object_01,object_06,1003.5999999996,6,2,899.29999999888,0.2222222222222222,2,object_04,1,1106,0,1,2,library_2,2,memory-2step-stake-s,585,2081624,0.0-19.0-0.0-0.95,A3NKZMF7M4X0ZP,371DNNCG57IGA1IMUX7DUPM8OSP8TA,3PJ71Z61R8II15NHN8YJDZUBARX915,5,6
96,3,object_06,object_01,595.0,5,2,777.40000000037,0.1111111111111111,1,object_05,1,1107,0,1,3,library_2,2,memory-2step-stake-s,586,2089765,0.0-19.0-0.0-0.96,A3NKZMF7M4X0ZP,371DNNCG57IGA1IMUX7DUPM8OSP8TA,3PJ71Z61R8II15NHN8YJDZUBARX915,6,5
97,2,object_03,object_10,589.80000000075,4,2,947.30000000075,0.5555555555555556,2,object_04,1,1112,0,1,5,forest_1,2,memory-2step-stake-s,587,2098484,0.0-19.0-0.0-0.97,A3NKZMF7M4X0ZP,371DNNCG57IGA1IMUX7DUPM8OSP8TA,3PJ71Z61R8II15NHN8YJDZUBARX915,3,4
98,1,object_08,object_07,641.09999999963,2,1,642.70000000112,0.5555555555555556,2,object_04,5,1137,0,0,5,desert_4,2,memory-2step-stake-s,588,2106919,0.0-19.0-0.0-0.98,A3NKZMF7M4X0ZP,371DNNCG57IGA1IMUX7DUPM8OSP8TA,3PJ71Z61R8II15NHN8YJDZUBARX915,2,1
99,3,object_01,object_06,728.30000000075,5,1,734.80000000075,0.1111111111111111,1,object_05,5,1142,0,1,9,library_5,2,memory-2step-stake-s,589,2115008,0.0-19.0-0.0-0.99,A3NKZMF7M4X0ZP,371DNNCG57IGA1IMUX7DUPM8OSP8TA,3PJ71Z61R8II15NHN8YJDZUBARX915,5,6
100,1,object_08,object_07,432.5,1,2,370.80000000075,0.2222222222222222,1,object_05,5,1152,0,2,9,desert_6,2,memory-2step-stake-s,590,2122846,0.0-19.0-0.0-0.100,A3NKZMF7M4X0ZP,371DNNCG57IGA1IMUX7DUPM8OSP8TA,3PJ71Z61R8II15NHN8YJDZUBARX915,2,1
101,4,object_09,object_02,1359.1999999993,8,1,522.80000000075,0.8888888888888888,2,object_04,1,1160,0,3,8,restaurant_1,2,memory-2step-stake-s,591,2131448,0.0-19.0-0.0-0.101,A3NKZMF7M4X0ZP,371DNNCG57IGA1IMUX7DUPM8OSP8TA,3PJ71Z61R8II15NHN8YJDZUBARX915,8,7
102,3,object_01,object_06,1065.6000000015,6,2,551.0,0.7777777777777778,2,object_04,1,1167,0,3,7,library_2,2,memory-2step-stake-s,592,2139981,0.0-19.0-0.0-0.102,A3NKZMF7M4X0ZP,371DNNCG57IGA1IMUX7DUPM8OSP8TA,3PJ71Z61R8II15NHN8YJDZUBARX915,5,6
103,2,object_03,object_10,430.80000000075,3,1,617.0,0.2222222222222222,1,object_05,1,1169,0,2,6,forest_5,2,memory-2step-stake-s,593,2148055,0.0-19.0-0.0-0.103,A3NKZMF7M4X0ZP,371DNNCG57IGA1IMUX7DUPM8OSP8TA,3PJ71Z61R8II15NHN8YJDZUBARX915,3,4
104,1,object_08,object_07,491.0,1,2,641.09999999963,0.4444444444444444,1,object_05,5,1189,0,4,6,desert_4,2,memory-2step-stake-s,594,2156367,0.0-19.0-0.0-0.104,A3NKZMF7M4X0ZP,371DNNCG57IGA1IMUX7DUPM8OSP8TA,3PJ71Z61R8II15NHN8YJDZUBARX915,2,1
105,1,object_08,object_07,498.30000000075,2,1,369.59999999963,0.8888888888888888,2,object_04,5,1229,0,5,8,desert_3,2,memory-2step-stake-s,595,2164821,0.0-19.0-0.0-0.105,A3NKZMF7M4X0ZP,371DNNCG57IGA1IMUX7DUPM8OSP8TA,3PJ71Z61R8II15NHN8YJDZUBARX915,2,1
106,4,object_02,object_09,964.69999999925,8,2,457.59999999963,0.4444444444444444,2,object_04,1,1233,0,3,4,restaurant_1,2,memory-2step-stake-s,596,2172939,0.0-19.0-0.0-0.106,A3NKZMF7M4X0ZP,371DNNCG57IGA1IMUX7DUPM8OSP8TA,3PJ71Z61R8II15NHN8YJDZUBARX915,7,8
107,3,object_01,object_06,547.5,5,1,472.09999999963,0.4444444444444444,1,object_05,5,1253,0,4,2,library_6,2,memory-2step-stake-s,597,2181058,0.0-19.0-0.0-0.107,A3NKZMF7M4X0ZP,371DNNCG57IGA1IMUX7DUPM8OSP8TA,3PJ71Z61R8II15NHN8YJDZUBARX915,5,6
108,2,object_03,object_10,729.0,3,1,490.5,0.5555555555555556,1,object_05,5,1278,0,5,2,forest_2,2,memory-2step-stake-s,598,2189323,0.0-19.0-0.0-0.108,A3NKZMF7M4X0ZP,371DNNCG57IGA1IMUX7DUPM8OSP8TA,3PJ71Z61R8II15NHN8YJDZUBARX915,3,4
109,1,object_07,object_08,1021.5999999996,1,1,1044.2000000011,0.5555555555555556,1,object_05,5,1303,0,5,5,desert_4,2,memory-2step-stake-s,599,2198122,0.0-19.0-0.0-0.109,A3NKZMF7M4X0ZP,371DNNCG57IGA1IMUX7DUPM8OSP8TA,3PJ71Z61R8II15NHN8YJDZUBARX915,1,2
110,1,object_08,object_07,1254.9000000004,2,1,628.20000000112,1.0,2,object_04,5,1348,0,1,9,desert_7,2,memory-2step-stake-s,600,2206914,0.0-19.0-0.0-0.110,A3NKZMF7M4X0ZP,371DNNCG57IGA1IMUX7DUPM8OSP8TA,3PJ71Z61R8II15NHN8YJDZUBARX915,2,1
111,4,object_09,object_02,1069.5,8,1,780.5,0.8888888888888888,2,object_04,1,1356,0,1,8,restaurant_3,2,memory-2step-stake-s,601,2215803,0.0-19.0-0.0-0.111,A3NKZMF7M4X0ZP,371DNNCG57IGA1IMUX7DUPM8OSP8TA,3PJ71Z61R8II15NHN8YJDZUBARX915,8,7
112,1,object_07,object_08,1185.0999999996,2,2,550.10000000149,0.6666666666666666,2,object_04,5,1386,0,3,6,desert_6,2,memory-2step-stake-s,602,2224230,0.0-19.0-0.0-0.112,A3NKZMF7M4X0ZP,371DNNCG57IGA1IMUX7DUPM8OSP8TA,3PJ71Z61R8II15NHN8YJDZUBARX915,1,2
113,2,object_03,object_10,901.5,4,2,524.29999999888,0.7777777777777778,2,object_04,5,1421,0,0,7,forest_1,2,memory-2step-stake-s,603,2232735,0.0-19.0-0.0-0.113,A3NKZMF7M4X0ZP,371DNNCG57IGA1IMUX7DUPM8OSP8TA,3PJ71Z61R8II15NHN8YJDZUBARX915,3,4
114,1,object_08,object_07,742.69999999925,2,1,320.80000000075,0.7777777777777778,2,object_04,1,1428,0,2,7,desert_3,2,memory-2step-stake-s,604,2241008,0.0-19.0-0.0-0.114,A3NKZMF7M4X0ZP,371DNNCG57IGA1IMUX7DUPM8OSP8TA,3PJ71Z61R8II15NHN8YJDZUBARX915,2,1
115,2,object_03,object_10,586.09999999963,4,2,1136.0,0.8888888888888888,2,object_04,5,1468,0,5,8,forest_2,2,memory-2step-stake-s,605,2250203,0.0-19.0-0.0-0.115,A3NKZMF7M4X0ZP,371DNNCG57IGA1IMUX7DUPM8OSP8TA,3PJ71Z61R8II15NHN8YJDZUBARX915,3,4
116,1,object_08,object_07,769.19999999925,1,2,1199.4000000004,0.4444444444444444,1,object_05,1,1472,0,4,7,desert_4,2,memory-2step-stake-s,606,2259042,0.0-19.0-0.0-0.116,A3NKZMF7M4X0ZP,371DNNCG57IGA1IMUX7DUPM8OSP8TA,3PJ71Z61R8II15NHN8YJDZUBARX915,2,1
117,2,object_10,object_03,465.0,4,1,525.5,0.6666666666666666,2,object_04,1,1478,0,3,6,forest_2,2,memory-2step-stake-s,607,2267440,0.0-19.0-0.0-0.117,A3NKZMF7M4X0ZP,371DNNCG57IGA1IMUX7DUPM8OSP8TA,3PJ71Z61R8II15NHN8YJDZUBARX915,4,3
118,3,object_01,object_06,252.40000000037,6,2,411.39999999851,0.7777777777777778,2,object_04,5,1513,0,0,7,library_6,2,memory-2step-stake-s,608,2275814,0.0-19.0-0.0-0.118,A3NKZMF7M4X0ZP,371DNNCG57IGA1IMUX7DUPM8OSP8TA,3PJ71Z61R8II15NHN8YJDZUBARX915,5,6
119,3,object_06,object_01,664.69999999925,6,1,742.20000000112,0.8888888888888888,2,object_04,1,1521,0,4,8,library_7,2,memory-2step-stake-s,609,2284665,0.0-19.0-0.0-0.119,A3NKZMF7M4X0ZP,371DNNCG57IGA1IMUX7DUPM8OSP8TA,3PJ71Z61R8II15NHN8YJDZUBARX915,6,5
120,4,object_09,object_02,481.5,8,1,684.20000000112,0.8888888888888888,2,object_04,1,1529,0,5,8,restaurant_3,2,memory-2step-stake-s,610,2293433,0.0-19.0-0.0-0.120,A3NKZMF7M4X0ZP,371DNNCG57IGA1IMUX7DUPM8OSP8TA,3PJ71Z61R8II15NHN8YJDZUBARX915,8,7
121,1,object_07,object_08,1009.6000000015,2,2,669.10000000149,0.6666666666666666,2,object_04,5,1559,0,6,6,desert_4,2,memory-2step-stake-s,611,2301965,0.0-19.0-0.0-0.121,A3NKZMF7M4X0ZP,371DNNCG57IGA1IMUX7DUPM8OSP8TA,3PJ71Z61R8II15NHN8YJDZUBARX915,1,2
122,3,object_01,object_06,487.80000000075,5,1,726.69999999925,0.7777777777777778,1,object_05,1,1566,0,7,7,library_5,2,memory-2step-stake-s,612,2310678,0.0-19.0-0.0-0.122,A3NKZMF7M4X0ZP,371DNNCG57IGA1IMUX7DUPM8OSP8TA,3PJ71Z61R8II15NHN8YJDZUBARX915,5,6
123,3,object_06,object_01,391.09999999963,6,1,610.69999999925,0.6666666666666666,2,object_04,1,1572,0,8,6,library_6,2,memory-2step-stake-s,613,2319168,0.0-19.0-0.0-0.123,A3NKZMF7M4X0ZP,371DNNCG57IGA1IMUX7DUPM8OSP8TA,3PJ71Z61R8II15NHN8YJDZUBARX915,6,5
124,1,object_07,object_08,816.59999999963,1,1,984.70000000112,0.6666666666666666,1,object_05,5,1602,0,6,8,desert_6,2,memory-2step-stake-s,614,2328048,0.0-19.0-0.0-0.124,A3NKZMF7M4X0ZP,371DNNCG57IGA1IMUX7DUPM8OSP8TA,3PJ71Z61R8II15NHN8YJDZUBARX915,1,2
125,2,object_10,object_03,647.5,3,2,501.20000000112,0.7777777777777778,1,object_05,1,1609,0,7,8,forest_2,2,memory-2step-stake-s,615,2336549,0.0-19.0-0.0-0.125,A3NKZMF7M4X0ZP,371DNNCG57IGA1IMUX7DUPM8OSP8TA,3PJ71Z61R8II15NHN8YJDZUBARX915,4,3
126,4,object_09,object_02,428.90000000037,8,1,488.20000000112,0.8888888888888888,2,object_04,1,1617,0,7,8,restaurant_1,2,memory-2step-stake-s,616,2345109,0.0-19.0-0.0-0.126,A3NKZMF7M4X0ZP,371DNNCG57IGA1IMUX7DUPM8OSP8TA,3PJ71Z61R8II15NHN8YJDZUBARX915,8,7
127,4,object_09,object_02,592.5,8,1,672.59999999963,0.6666666666666666,2,object_04,1,1623,0,6,6,restaurant_3,2,memory-2step-stake-s,617,2353671,0.0-19.0-0.0-0.127,A3NKZMF7M4X0ZP,371DNNCG57IGA1IMUX7DUPM8OSP8TA,3PJ71Z61R8II15NHN8YJDZUBARX915,8,7
128,4,object_09,object_02,402.5,7,2,598.10000000149,0.6666666666666666,1,object_05,5,1653,0,6,6,restaurant_8,2,memory-2step-stake-s,619,2365184,0.0-19.0-0.1-0.128,A3NKZMF7M4X0ZP,371DNNCG57IGA1IMUX7DUPM8OSP8TA,3PJ71Z61R8II15NHN8YJDZUBARX915,8,7
129,4,object_09,object_02,684.5,7,2,495.0,0.4444444444444444,1,object_05,1,1657,0,4,4,restaurant_7,2,memory-2step-stake-s,620,2373374,0.0-19.0-0.1-0.129,A3NKZMF7M4X0ZP,371DNNCG57IGA1IMUX7DUPM8OSP8TA,3PJ71Z61R8II15NHN8YJDZUBARX915,8,7
130,1,object_07,object_08,569.19999999925,2,2,487.20000000112,0.2222222222222222,2,object_04,5,1667,0,3,2,desert_7,2,memory-2step-stake-s,621,2381338,0.0-19.0-0.1-0.130,A3NKZMF7M4X0ZP,371DNNCG57IGA1IMUX7DUPM8OSP8TA,3PJ71Z61R8II15NHN8YJDZUBARX915,1,2
131,1,object_08,object_07,467.5,1,2,419.59999999963,0.5555555555555556,1,object_05,5,1692,0,5,2,desert_6,2,memory-2step-stake-s,622,2389546,0.0-19.0-0.1-0.131,A3NKZMF7M4X0ZP,371DNNCG57IGA1IMUX7DUPM8OSP8TA,3PJ71Z61R8II15NHN8YJDZUBARX915,2,1
132,1,object_08,object_07,918.19999999925,1,2,502.09999999963,0.4444444444444444,1,object_05,1,1696,0,4,2,desert_4,2,memory-2step-stake-s,623,2397707,0.0-19.0-0.1-0.132,A3NKZMF7M4X0ZP,371DNNCG57IGA1IMUX7DUPM8OSP8TA,3PJ71Z61R8II15NHN8YJDZUBARX915,2,1
133,1,object_08,object_07,358.0,2,1,703.5,0.2222222222222222,2,object_04,5,1706,0,3,2,desert_7,2,memory-2step-stake-s,624,2405862,0.0-19.0-0.1-0.133,A3NKZMF7M4X0ZP,371DNNCG57IGA1IMUX7DUPM8OSP8TA,3PJ71Z61R8II15NHN8YJDZUBARX915,2,1
134,2,object_10,object_03,327.69999999925,4,1,1319.9000000004,0.3333333333333333,2,object_04,5,1721,0,3,3,forest_1,2,memory-2step-stake-s,625,2414743,0.0-19.0-0.1-0.134,A3NKZMF7M4X0ZP,371DNNCG57IGA1IMUX7DUPM8OSP8TA,3PJ71Z61R8II15NHN8YJDZUBARX915,4,3
135,2,object_10,object_03,803.30000000075,3,2,969.69999999925,0.4444444444444444,1,object_05,5,1741,0,4,3,forest_3,2,memory-2step-stake-s,626,2423402,0.0-19.0-0.1-0.135,A3NKZMF7M4X0ZP,371DNNCG57IGA1IMUX7DUPM8OSP8TA,3PJ71Z61R8II15NHN8YJDZUBARX915,4,3
136,4,object_09,object_02,21.599999999627,8,1,539.59999999963,0.7777777777777778,2,object_04,1,1748,0,6,7,restaurant_3,2,memory-2step-stake-s,627,2431928,0.0-19.0-0.1-0.136,A3NKZMF7M4X0ZP,371DNNCG57IGA1IMUX7DUPM8OSP8TA,3PJ71Z61R8II15NHN8YJDZUBARX915,8,7
137,3,object_06,object_01,667.0,6,1,596.09999999963,0.4444444444444444,2,object_04,1,1752,0,4,4,library_5,2,memory-2step-stake-s,628,2440197,0.0-19.0-0.1-0.137,A3NKZMF7M4X0ZP,371DNNCG57IGA1IMUX7DUPM8OSP8TA,3PJ71Z61R8II15NHN8YJDZUBARX915,6,5
138,1,object_07,object_08,425.40000000037,1,1,780.5,0.4444444444444444,1,object_05,5,1772,0,4,7,desert_3,2,memory-2step-stake-s,629,2448651,0.0-19.0-0.1-0.138,A3NKZMF7M4X0ZP,371DNNCG57IGA1IMUX7DUPM8OSP8TA,3PJ71Z61R8II15NHN8YJDZUBARX915,1,2
139,4,object_02,object_09,395.90000000037,8,2,396.80000000075,0.7777777777777778,2,object_04,5,1807,0,4,7,restaurant_8,2,memory-2step-stake-s,630,2457044,0.0-19.0-0.1-0.139,A3NKZMF7M4X0ZP,371DNNCG57IGA1IMUX7DUPM8OSP8TA,3PJ71Z61R8II15NHN8YJDZUBARX915,7,8
140,4,object_02,object_09,655.59999999963,7,1,761.20000000112,0.5555555555555556,1,object_05,1,1812,0,5,8,restaurant_8,2,memory-2step-stake-s,631,2465551,0.0-19.0-0.1-0.140,A3NKZMF7M4X0ZP,371DNNCG57IGA1IMUX7DUPM8OSP8TA,3PJ71Z61R8II15NHN8YJDZUBARX915,7,8
141,4,object_02,object_09,1190.7000000011,8,2,522.69999999925,0.5555555555555556,2,object_04,1,1817,0,7,5,restaurant_1,2,memory-2step-stake-s,632,2473807,0.0-19.0-0.1-0.141,A3NKZMF7M4X0ZP,371DNNCG57IGA1IMUX7DUPM8OSP8TA,3PJ71Z61R8II15NHN8YJDZUBARX915,7,8
142,2,object_03,object_10,589.5,4,2,909.5,0.5555555555555556,2,object_04,5,1842,0,5,5,forest_1,2,memory-2step-stake-s,633,2482493,0.0-19.0-0.1-0.142,A3NKZMF7M4X0ZP,371DNNCG57IGA1IMUX7DUPM8OSP8TA,3PJ71Z61R8II15NHN8YJDZUBARX915,3,4
143,2,object_03,object_10,838.80000000075,4,2,762.70000000112,0.8888888888888888,2,object_04,5,1882,0,6,8,forest_3,2,memory-2step-stake-s,634,2491325,0.0-19.0-0.1-0.143,A3NKZMF7M4X0ZP,371DNNCG57IGA1IMUX7DUPM8OSP8TA,3PJ71Z61R8II15NHN8YJDZUBARX915,3,4
144,4,object_09,object_02,390.19999999925,8,1,546.89999999851,0.8888888888888888,2,object_04,1,1890,0,6,8,restaurant_7,2,memory-2step-stake-s,635,2499950,0.0-19.0-0.1-0.144,A3NKZMF7M4X0ZP,371DNNCG57IGA1IMUX7DUPM8OSP8TA,3PJ71Z61R8II15NHN8YJDZUBARX915,8,7
145,2,object_10,object_03,-1.0,-1,-1,-1.0,0.0,-,0,5,1890,0,6,7,forest_1,2,memory-2step-stake-s,636,2506506,0.0-19.0-0.1-0.145,A3NKZMF7M4X0ZP,371DNNCG57IGA1IMUX7DUPM8OSP8TA,3PJ71Z61R8II15NHN8YJDZUBARX915,4,3
146,3,object_01,object_06,765.69999999925,5,1,806.09999999963,0.4444444444444444,1,object_05,1,1894,0,4,8,library_2,2,memory-2step-stake-s,637,2514985,0.0-19.0-0.1-0.146,A3NKZMF7M4X0ZP,371DNNCG57IGA1IMUX7DUPM8OSP8TA,3PJ71Z61R8II15NHN8YJDZUBARX915,5,6
147,3,object_01,object_06,481.90000000037,6,2,416.09999999963,0.6666666666666666,2,object_04,1,1900,0,5,6,library_5,2,memory-2step-stake-s,638,2523273,0.0-19.0-0.1-0.147,A3NKZMF7M4X0ZP,371DNNCG57IGA1IMUX7DUPM8OSP8TA,3PJ71Z61R8II15NHN8YJDZUBARX915,5,6
148,1,object_08,object_07,1099.8000000007,2,1,901.5,0.5555555555555556,2,object_04,1,1905,0,6,5,desert_4,2,memory-2step-stake-s,639,2531955,0.0-19.0-0.1-0.148,A3NKZMF7M4X0ZP,371DNNCG57IGA1IMUX7DUPM8OSP8TA,3PJ71Z61R8II15NHN8YJDZUBARX915,2,1
149,3,object_01,object_06,559.59999999963,6,2,606.90000000037,0.4444444444444444,2,object_04,1,1909,0,9,4,library_7,2,memory-2step-stake-s,640,2540224,0.0-19.0-0.1-0.149,A3NKZMF7M4X0ZP,371DNNCG57IGA1IMUX7DUPM8OSP8TA,3PJ71Z61R8II15NHN8YJDZUBARX915,5,6
150,2,object_03,object_10,674.40000000037,3,1,1229.8000000007,0.6666666666666666,1,object_05,1,1915,0,6,5,forest_1,2,memory-2step-stake-s,641,2549342,0.0-19.0-0.1-0.150,A3NKZMF7M4X0ZP,371DNNCG57IGA1IMUX7DUPM8OSP8TA,3PJ71Z61R8II15NHN8YJDZUBARX915,3,4
151,4,object_09,object_02,348.59999999963,7,2,587.0,0.4444444444444444,1,object_05,1,1919,0,4,8,restaurant_3,2,memory-2step-stake-s,642,2557594,0.0-19.0-0.1-0.151,A3NKZMF7M4X0ZP,371DNNCG57IGA1IMUX7DUPM8OSP8TA,3PJ71Z61R8II15NHN8YJDZUBARX915,8,7
152,3,object_06,object_01,831.30000000075,5,2,492.09999999963,0.4444444444444444,1,object_05,1,1923,0,4,5,library_7,2,memory-2step-stake-s,643,2565771,0.0-19.0-0.1-0.152,A3NKZMF7M4X0ZP,371DNNCG57IGA1IMUX7DUPM8OSP8TA,3PJ71Z61R8II15NHN8YJDZUBARX915,6,5
153,3,object_06,object_01,491.40000000037,6,1,594.79999999888,0.6666666666666666,2,object_04,1,1929,0,8,6,library_6,2,memory-2step-stake-s,644,2574244,0.0-19.0-0.1-0.153,A3NKZMF7M4X0ZP,371DNNCG57IGA1IMUX7DUPM8OSP8TA,3PJ71Z61R8II15NHN8YJDZUBARX915,6,5
154,1,object_07,object_08,326.59999999963,2,2,450.09999999963,0.6666666666666666,2,object_04,5,1959,0,9,6,desert_3,2,memory-2step-stake-s,645,2582550,0.0-19.0-0.1-0.154,A3NKZMF7M4X0ZP,371DNNCG57IGA1IMUX7DUPM8OSP8TA,3PJ71Z61R8II15NHN8YJDZUBARX915,1,2
155,3,object_06,object_01,358.89999999851,6,1,543.5,0.1111111111111111,2,object_04,1,1960,0,8,1,library_6,2,memory-2step-stake-s,646,2590468,0.0-19.0-0.1-0.155,A3NKZMF7M4X0ZP,371DNNCG57IGA1IMUX7DUPM8OSP8TA,3PJ71Z61R8II15NHN8YJDZUBARX915,6,5
156,2,object_10,object_03,515.39999999851,3,2,555.90000000037,0.6666666666666666,1,object_05,1,1966,0,6,2,forest_3,2,memory-2step-stake-s,647,2598904,0.0-19.0-0.1-0.156,A3NKZMF7M4X0ZP,371DNNCG57IGA1IMUX7DUPM8OSP8TA,3PJ71Z61R8II15NHN8YJDZUBARX915,4,3
157,4,object_09,object_02,1192.7999999989,8,1,488.09999999963,0.1111111111111111,2,object_04,1,1967,0,5,1,restaurant_8,2,memory-2step-stake-s,648,2606737,0.0-19.0-0.1-0.157,A3NKZMF7M4X0ZP,371DNNCG57IGA1IMUX7DUPM8OSP8TA,3PJ71Z61R8II15NHN8YJDZUBARX915,8,7
158,4,object_02,object_09,631.5,8,2,722.0,0.0,2,object_04,1,1967,0,3,0,restaurant_1,2,memory-2step-stake-s,649,2614727,0.0-19.0-0.1-0.158,A3NKZMF7M4X0ZP,371DNNCG57IGA1IMUX7DUPM8OSP8TA,3PJ71Z61R8II15NHN8YJDZUBARX915,7,8
159,2,object_03,object_10,740.10000000149,3,1,751.80000000075,0.5555555555555556,1,object_05,5,1992,0,5,1,forest_3,2,memory-2step-stake-s,650,2623272,0.0-19.0-0.1-0.159,A3NKZMF7M4X0ZP,371DNNCG57IGA1IMUX7DUPM8OSP8TA,3PJ71Z61R8II15NHN8YJDZUBARX915,3,4
160,1,object_08,object_07,1198.2999999989,2,1,290.19999999925,0.0,2,object_04,1,1992,0,8,0,desert_7,2,memory-2step-stake-s,651,2630804,0.0-19.0-0.1-0.160,A3NKZMF7M4X0ZP,371DNNCG57IGA1IMUX7DUPM8OSP8TA,3PJ71Z61R8II15NHN8YJDZUBARX915,2,1
161,2,object_10,object_03,526.80000000075,3,2,571.20000000112,0.6666666666666666,1,object_05,5,2022,0,6,0,forest_3,2,memory-2step-stake-s,652,2639247,0.0-19.0-0.1-0.161,A3NKZMF7M4X0ZP,371DNNCG57IGA1IMUX7DUPM8OSP8TA,3PJ71Z61R8II15NHN8YJDZUBARX915,4,3
162,3,object_01,object_06,656.30000000075,5,1,854.89999999851,0.8888888888888888,1,object_05,1,2030,0,8,3,library_5,2,memory-2step-stake-s,653,2648180,0.0-19.0-0.1-0.162,A3NKZMF7M4X0ZP,371DNNCG57IGA1IMUX7DUPM8OSP8TA,3PJ71Z61R8II15NHN8YJDZUBARX915,5,6
163,1,object_07,object_08,707.0,2,2,833.19999999925,0.2222222222222222,2,object_04,1,2032,0,6,2,desert_6,2,memory-2step-stake-s,654,2656504,0.0-19.0-0.1-0.163,A3NKZMF7M4X0ZP,371DNNCG57IGA1IMUX7DUPM8OSP8TA,3PJ71Z61R8II15NHN8YJDZUBARX915,1,2
164,1,object_07,object_08,783.69999999925,1,1,709.29999999888,0.6666666666666666,1,object_05,1,2038,0,6,4,desert_6,2,memory-2step-stake-s,655,2665137,0.0-19.0-0.1-0.164,A3NKZMF7M4X0ZP,371DNNCG57IGA1IMUX7DUPM8OSP8TA,3PJ71Z61R8II15NHN8YJDZUBARX915,1,2
165,2,object_10,object_03,604.19999999925,4,1,776.5,0.3333333333333333,2,object_04,5,2053,0,7,3,forest_2,2,memory-2step-stake-s,656,2673484,0.0-19.0-0.1-0.165,A3NKZMF7M4X0ZP,371DNNCG57IGA1IMUX7DUPM8OSP8TA,3PJ71Z61R8II15NHN8YJDZUBARX915,4,3
166,3,object_01,object_06,624.5,6,2,919.10000000149,0.3333333333333333,2,object_04,1,2056,0,6,3,library_2,2,memory-2step-stake-s,657,2681974,0.0-19.0-0.1-0.166,A3NKZMF7M4X0ZP,371DNNCG57IGA1IMUX7DUPM8OSP8TA,3PJ71Z61R8II15NHN8YJDZUBARX915,5,6
167,4,object_02,object_09,521.40000000037,7,1,531.90000000037,0.8888888888888888,1,object_05,1,2064,0,8,3,restaurant_1,2,memory-2step-stake-s,658,2690570,0.0-19.0-0.1-0.167,A3NKZMF7M4X0ZP,371DNNCG57IGA1IMUX7DUPM8OSP8TA,3PJ71Z61R8II15NHN8YJDZUBARX915,7,8
168,3,object_01,object_06,444.0,6,2,1075.8000000007,0.5555555555555556,2,object_04,1,2069,0,7,5,library_7,2,memory-2step-stake-s,659,2699429,0.0-19.0-0.1-0.168,A3NKZMF7M4X0ZP,371DNNCG57IGA1IMUX7DUPM8OSP8TA,3PJ71Z61R8II15NHN8YJDZUBARX915,5,6
169,2,object_03,object_10,1010.2000000011,3,1,1086.6000000015,0.5555555555555556,1,object_05,5,2094,0,5,7,forest_3,2,memory-2step-stake-s,660,2708306,0.0-19.0-0.1-0.169,A3NKZMF7M4X0ZP,371DNNCG57IGA1IMUX7DUPM8OSP8TA,3PJ71Z61R8II15NHN8YJDZUBARX915,3,4
170,2,object_03,object_10,744.90000000037,3,1,1103.5999999996,0.2222222222222222,1,object_05,5,2104,0,2,8,forest_5,2,memory-2step-stake-s,661,2716877,0.0-19.0-0.1-0.170,A3NKZMF7M4X0ZP,371DNNCG57IGA1IMUX7DUPM8OSP8TA,3PJ71Z61R8II15NHN8YJDZUBARX915,3,4
171,2,object_03,object_10,635.40000000037,3,1,839.80000000075,0.3333333333333333,1,object_05,5,2119,0,3,7,forest_3,2,memory-2step-stake-s,662,2725275,0.0-19.0-0.1-0.171,A3NKZMF7M4X0ZP,371DNNCG57IGA1IMUX7DUPM8OSP8TA,3PJ71Z61R8II15NHN8YJDZUBARX915,3,4
172,3,object_01,object_06,697.20000000112,6,2,583.09999999963,1.0,2,object_04,1,2128,0,5,9,library_5,2,memory-2step-stake-s,663,2734030,0.0-19.0-0.1-0.172,A3NKZMF7M4X0ZP,371DNNCG57IGA1IMUX7DUPM8OSP8TA,3PJ71Z61R8II15NHN8YJDZUBARX915,5,6
173,1,object_07,object_08,510.60000000149,1,1,546.40000000037,0.8888888888888888,1,object_05,5,2168,0,8,8,desert_7,2,memory-2step-stake-s,664,2742627,0.0-19.0-0.1-0.173,A3NKZMF7M4X0ZP,371DNNCG57IGA1IMUX7DUPM8OSP8TA,3PJ71Z61R8II15NHN8YJDZUBARX915,1,2
174,2,object_10,object_03,528.20000000112,3,2,733.0,0.8888888888888888,1,object_05,5,2208,0,8,7,forest_1,2,memory-2step-stake-s,665,2751459,0.0-19.0-0.1-0.174,A3NKZMF7M4X0ZP,371DNNCG57IGA1IMUX7DUPM8OSP8TA,3PJ71Z61R8II15NHN8YJDZUBARX915,4,3
175,3,object_01,object_06,474.89999999851,5,1,943.0,0.6666666666666666,1,object_05,1,2214,0,6,4,library_5,2,memory-2step-stake-s,666,2760293,0.0-19.0-0.1-0.175,A3NKZMF7M4X0ZP,371DNNCG57IGA1IMUX7DUPM8OSP8TA,3PJ71Z61R8II15NHN8YJDZUBARX915,5,6
176,4,object_09,object_02,772.59999999963,8,1,1263.4000000004,0.3333333333333333,2,object_04,1,2217,0,9,3,restaurant_8,2,memory-2step-stake-s,667,2769121,0.0-19.0-0.1-0.176,A3NKZMF7M4X0ZP,371DNNCG57IGA1IMUX7DUPM8OSP8TA,3PJ71Z61R8II15NHN8YJDZUBARX915,8,7
177,1,object_07,object_08,616.5,1,1,750.29999999888,0.5555555555555556,1,object_05,5,2242,0,5,2,desert_7,2,memory-2step-stake-s,668,2777628,0.0-19.0-0.1-0.177,A3NKZMF7M4X0ZP,371DNNCG57IGA1IMUX7DUPM8OSP8TA,3PJ71Z61R8II15NHN8YJDZUBARX915,1,2
178,1,object_08,object_07,752.29999999888,1,2,1041.7000000011,0.4444444444444444,1,object_05,1,2246,0,4,4,desert_4,2,memory-2step-stake-s,669,2786352,0.0-19.0-0.1-0.178,A3NKZMF7M4X0ZP,371DNNCG57IGA1IMUX7DUPM8OSP8TA,3PJ71Z61R8II15NHN8YJDZUBARX915,2,1
179,1,object_08,object_07,843.09999999963,1,2,576.0,0.4444444444444444,1,object_05,1,2250,0,4,5,desert_6,2,memory-2step-stake-s,670,2794590,0.0-19.0-0.1-0.179,A3NKZMF7M4X0ZP,371DNNCG57IGA1IMUX7DUPM8OSP8TA,3PJ71Z61R8II15NHN8YJDZUBARX915,2,1
180,4,object_02,object_09,1108.0999999996,7,1,507.10000000149,0.4444444444444444,1,object_05,1,2254,0,4,7,restaurant_3,2,memory-2step-stake-s,671,2802768,0.0-19.0-0.1-0.180,A3NKZMF7M4X0ZP,371DNNCG57IGA1IMUX7DUPM8OSP8TA,3PJ71Z61R8II15NHN8YJDZUBARX915,7,8
181,4,object_02,object_09,718.29999999888,8,2,518.29999999888,1.0,2,object_04,1,2263,0,6,9,restaurant_7,2,memory-2step-stake-s,672,2811470,0.0-19.0-0.1-0.181,A3NKZMF7M4X0ZP,371DNNCG57IGA1IMUX7DUPM8OSP8TA,3PJ71Z61R8II15NHN8YJDZUBARX915,7,8
182,3,object_06,object_01,552.09999999963,5,2,539.09999999963,0.6666666666666666,1,object_05,5,2293,0,6,8,library_2,2,memory-2step-stake-s,673,2819891,0.0-19.0-0.1-0.182,A3NKZMF7M4X0ZP,371DNNCG57IGA1IMUX7DUPM8OSP8TA,3PJ71Z61R8II15NHN8YJDZUBARX915,6,5
183,3,object_06,object_01,834.59999999963,6,1,1279.5,0.8888888888888888,2,object_04,1,2301,0,6,8,library_6,2,memory-2step-stake-s,674,2829245,0.0-19.0-0.1-0.183,A3NKZMF7M4X0ZP,371DNNCG57IGA1IMUX7DUPM8OSP8TA,3PJ71Z61R8II15NHN8YJDZUBARX915,6,5
184,4,object_02,object_09,475.09999999963,7,1,1042.7999999989,0.3333333333333333,1,object_05,1,2304,0,3,8,restaurant_3,2,memory-2step-stake-s,675,2837847,0.0-19.0-0.1-0.184,A3NKZMF7M4X0ZP,371DNNCG57IGA1IMUX7DUPM8OSP8TA,3PJ71Z61R8II15NHN8YJDZUBARX915,7,8
185,1,object_08,object_07,384.09999999963,1,2,523.90000000037,0.3333333333333333,1,object_05,1,2307,0,3,7,desert_3,2,memory-2step-stake-s,676,2845955,0.0-19.0-0.1-0.185,A3NKZMF7M4X0ZP,371DNNCG57IGA1IMUX7DUPM8OSP8TA,3PJ71Z61R8II15NHN8YJDZUBARX915,2,1
186,1,object_07,object_08,290.69999999925,1,1,1048.7999999989,0.3333333333333333,1,object_05,5,2322,0,3,9,desert_7,2,memory-2step-stake-s,677,2854570,0.0-19.0-0.1-0.186,A3NKZMF7M4X0ZP,371DNNCG57IGA1IMUX7DUPM8OSP8TA,3PJ71Z61R8II15NHN8YJDZUBARX915,1,2
187,4,object_09,object_02,688.69999999925,7,2,676.0,0.2222222222222222,1,object_05,1,2324,0,2,8,restaurant_1,2,memory-2step-stake-s,678,2862718,0.0-19.0-0.1-0.187,A3NKZMF7M4X0ZP,371DNNCG57IGA1IMUX7DUPM8OSP8TA,3PJ71Z61R8II15NHN8YJDZUBARX915,8,7
188,2,object_10,object_03,1177.3000000007,4,1,602.59999999963,0.7777777777777778,2,object_04,5,2359,0,4,7,forest_3,2,memory-2step-stake-s,679,2871290,0.0-19.0-0.1-0.188,A3NKZMF7M4X0ZP,371DNNCG57IGA1IMUX7DUPM8OSP8TA,3PJ71Z61R8II15NHN8YJDZUBARX915,4,3
189,3,object_06,object_01,797.30000000075,6,1,884.30000000075,0.5555555555555556,2,object_04,1,2364,0,4,5,library_6,2,memory-2step-stake-s,680,2879942,0.0-19.0-0.1-0.189,A3NKZMF7M4X0ZP,371DNNCG57IGA1IMUX7DUPM8OSP8TA,3PJ71Z61R8II15NHN8YJDZUBARX915,6,5
190,2,object_03,object_10,352.20000000112,3,1,576.09999999963,0.0,1,object_05,1,2364,0,0,7,forest_3,2,memory-2step-stake-s,681,2887763,0.0-19.0-0.1-0.190,A3NKZMF7M4X0ZP,371DNNCG57IGA1IMUX7DUPM8OSP8TA,3PJ71Z61R8II15NHN8YJDZUBARX915,3,4
191,4,object_09,object_02,978.89999999851,8,1,759.70000000112,0.4444444444444444,2,object_04,1,2368,0,5,4,restaurant_7,2,memory-2step-stake-s,682,2896168,0.0-19.0-0.1-0.191,A3NKZMF7M4X0ZP,371DNNCG57IGA1IMUX7DUPM8OSP8TA,3PJ71Z61R8II15NHN8YJDZUBARX915,8,7
192,4,object_02,object_09,1105.7999999989,7,1,1223.5,0.6666666666666666,1,object_05,1,2374,0,6,6,restaurant_7,2,memory-2step-stake-s,683,2905284,0.0-19.0-0.1-0.192,A3NKZMF7M4X0ZP,371DNNCG57IGA1IMUX7DUPM8OSP8TA,3PJ71Z61R8II15NHN8YJDZUBARX915,7,8
193,3,object_01,object_06,796.90000000037,5,1,1279.0,0.6666666666666666,1,object_05,1,2380,0,6,5,library_2,2,memory-2step-stake-s,684,2914443,0.0-19.0-0.1-0.193,A3NKZMF7M4X0ZP,371DNNCG57IGA1IMUX7DUPM8OSP8TA,3PJ71Z61R8II15NHN8YJDZUBARX915,5,6
194,2,object_10,object_03,725.39999999851,4,1,580.0,0.1111111111111111,2,object_04,5,2385,0,6,1,forest_3,2,memory-2step-stake-s,685,2922391,0.0-19.0-0.1-0.194,A3NKZMF7M4X0ZP,371DNNCG57IGA1IMUX7DUPM8OSP8TA,3PJ71Z61R8II15NHN8YJDZUBARX915,4,3
195,3,object_06,object_01,1048.7000000011,6,1,-1.0,0.0,2,object_04,1,2385,0,4,3,library_6,2,memory-2step-stake-s,686,2930962,0.0-19.0-0.1-0.195,A3NKZMF7M4X0ZP,371DNNCG57IGA1IMUX7DUPM8OSP8TA,3PJ71Z61R8II15NHN8YJDZUBARX915,6,5
196,1,object_07,object_08,635.39999999851,1,1,668.09999999963,0.2222222222222222,1,object_05,5,2395,0,2,3,desert_6,2,memory-2step-stake-s,687,2939068,0.0-19.0-0.1-0.196,A3NKZMF7M4X0ZP,371DNNCG57IGA1IMUX7DUPM8OSP8TA,3PJ71Z61R8II15NHN8YJDZUBARX915,1,2
197,4,object_09,object_02,608.59999999963,8,1,876.09999999963,0.3333333333333333,2,object_04,1,2398,0,1,3,restaurant_7,2,memory-2step-stake-s,688,2947533,0.0-19.0-0.1-0.197,A3NKZMF7M4X0ZP,371DNNCG57IGA1IMUX7DUPM8OSP8TA,3PJ71Z61R8II15NHN8YJDZUBARX915,8,7
198,3,object_06,object_01,1070.7000000011,6,1,727.79999999888,0.4444444444444444,2,object_04,1,2402,0,1,4,library_7,2,memory-2step-stake-s,689,2955954,0.0-19.0-0.1-0.198,A3NKZMF7M4X0ZP,371DNNCG57IGA1IMUX7DUPM8OSP8TA,3PJ71Z61R8II15NHN8YJDZUBARX915,6,5
199,1,object_08,object_07,431.5,2,1,768.40000000037,0.5555555555555556,2,object_04,5,2427,0,3,5,desert_7,2,memory-2step-stake-s,690,2964503,0.0-19.0-0.1-0.199,A3NKZMF7M4X0ZP,371DNNCG57IGA1IMUX7DUPM8OSP8TA,3PJ71Z61R8II15NHN8YJDZUBARX915,2,1
200,1,object_08,object_07,817.5,2,1,522.90000000037,0.3333333333333333,2,object_04,1,2430,0,0,3,desert_4,2,memory-2step-stake-s,691,2972591,0.0-19.0-0.1-0.200,A3NKZMF7M4X0ZP,371DNNCG57IGA1IMUX7DUPM8OSP8TA,3PJ71Z61R8II15NHN8YJDZUBARX915,2,1
201,2,object_10,object_03,645.40000000037,3,2,941.09999999963,0.1111111111111111,1,object_05,5,2435,0,1,3,forest_5,2,memory-2step-stake-s,692,2980880,0.0-19.0-0.1-0.201,A3NKZMF7M4X0ZP,371DNNCG57IGA1IMUX7DUPM8OSP8TA,3PJ71Z61R8II15NHN8YJDZUBARX915,4,3
202,4,object_09,object_02,93.099999999627,8,1,758.79999999888,0.3333333333333333,2,object_04,1,2438,0,5,3,restaurant_3,2,memory-2step-stake-s,693,2989221,0.0-19.0-0.1-0.202,A3NKZMF7M4X0ZP,371DNNCG57IGA1IMUX7DUPM8OSP8TA,3PJ71Z61R8II15NHN8YJDZUBARX915,8,7
203,1,object_07,object_08,991.69999999925,1,1,-1.0,0.0,1,object_05,5,2438,0,8,0,desert_6,2,memory-2step-stake-s,694,2997764,0.0-19.0-0.1-0.203,A3NKZMF7M4X0ZP,371DNNCG57IGA1IMUX7DUPM8OSP8TA,3PJ71Z61R8II15NHN8YJDZUBARX915,1,2
204,1,object_07,object_08,1043.0999999996,1,1,710.0,0.4444444444444444,1,object_05,5,2458,0,4,0,desert_4,2,memory-2step-stake-s,695,3006140,0.0-19.0-0.1-0.204,A3NKZMF7M4X0ZP,371DNNCG57IGA1IMUX7DUPM8OSP8TA,3PJ71Z61R8II15NHN8YJDZUBARX915,1,2
205,2,object_03,object_10,826.20000000112,3,1,828.09999999963,0.5555555555555556,1,object_05,5,2483,0,5,0,forest_1,2,memory-2step-stake-s,696,3014737,0.0-19.0-0.1-0.205,A3NKZMF7M4X0ZP,371DNNCG57IGA1IMUX7DUPM8OSP8TA,3PJ71Z61R8II15NHN8YJDZUBARX915,3,4
206,1,object_07,object_08,446.10000000149,2,2,741.59999999963,0.3333333333333333,2,object_04,5,2498,0,7,3,desert_7,2,memory-2step-stake-s,697,3023050,0.0-19.0-0.1-0.206,A3NKZMF7M4X0ZP,371DNNCG57IGA1IMUX7DUPM8OSP8TA,3PJ71Z61R8II15NHN8YJDZUBARX915,1,2
207,2,object_10,object_03,732.0,4,1,-1.0,0.0,2,object_04,5,2498,0,6,5,forest_5,2,memory-2step-stake-s,698,3031604,0.0-19.0-0.1-0.207,A3NKZMF7M4X0ZP,371DNNCG57IGA1IMUX7DUPM8OSP8TA,3PJ71Z61R8II15NHN8YJDZUBARX915,4,3
208,4,object_09,object_02,716.09999999963,8,1,687.09999999963,0.7777777777777778,2,object_04,1,2505,0,3,7,restaurant_1,2,memory-2step-stake-s,699,3040286,0.0-19.0-0.1-0.208,A3NKZMF7M4X0ZP,371DNNCG57IGA1IMUX7DUPM8OSP8TA,3PJ71Z61R8II15NHN8YJDZUBARX915,8,7
209,4,object_02,object_09,787.60000000149,7,1,-1.0,0.0,1,object_05,1,2505,0,6,6,restaurant_8,2,memory-2step-stake-s,700,3048856,0.0-19.0-0.1-0.209,A3NKZMF7M4X0ZP,371DNNCG57IGA1IMUX7DUPM8OSP8TA,3PJ71Z61R8II15NHN8YJDZUBARX915,7,8
210,4,object_09,object_02,739.90000000037,8,1,1325.6999999993,0.6666666666666666,2,object_04,1,2511,0,3,6,restaurant_3,2,memory-2step-stake-s,701,3058050,0.0-19.0-0.1-0.210,A3NKZMF7M4X0ZP,371DNNCG57IGA1IMUX7DUPM8OSP8TA,3PJ71Z61R8II15NHN8YJDZUBARX915,8,7
211,4,object_02,object_09,492.30000000075,8,2,464.59999999963,0.5555555555555556,2,object_04,1,2516,0,2,5,restaurant_8,2,memory-2step-stake-s,702,3066291,0.0-19.0-0.1-0.211,A3NKZMF7M4X0ZP,371DNNCG57IGA1IMUX7DUPM8OSP8TA,3PJ71Z61R8II15NHN8YJDZUBARX915,7,8
212,4,object_02,object_09,335.59999999963,7,1,607.0,0.2222222222222222,1,object_05,1,2518,0,2,7,restaurant_8,2,memory-2step-stake-s,703,3074382,0.0-19.0-0.1-0.212,A3NKZMF7M4X0ZP,371DNNCG57IGA1IMUX7DUPM8OSP8TA,3PJ71Z61R8II15NHN8YJDZUBARX915,7,8
213,1,object_08,object_07,584.59999999963,2,1,528.59999999963,0.7777777777777778,2,object_04,5,2553,0,2,7,desert_3,2,memory-2step-stake-s,704,3082878,0.0-19.0-0.1-0.213,A3NKZMF7M4X0ZP,371DNNCG57IGA1IMUX7DUPM8OSP8TA,3PJ71Z61R8II15NHN8YJDZUBARX915,2,1
214,2,object_10,object_03,649.70000000112,4,1,680.59999999963,1.0,2,object_04,5,2598,0,0,9,forest_1,2,memory-2step-stake-s,705,3091752,0.0-19.0-0.1-0.214,A3NKZMF7M4X0ZP,371DNNCG57IGA1IMUX7DUPM8OSP8TA,3PJ71Z61R8II15NHN8YJDZUBARX915,4,3
215,3,object_01,object_06,540.5,5,1,1252.4000000004,0.2222222222222222,1,object_05,5,2608,0,2,6,library_2,2,memory-2step-stake-s,706,3100486,0.0-19.0-0.1-0.215,A3NKZMF7M4X0ZP,371DNNCG57IGA1IMUX7DUPM8OSP8TA,3PJ71Z61R8II15NHN8YJDZUBARX915,5,6
216,3,object_01,object_06,592.19999999925,5,1,796.70000000112,0.2222222222222222,1,object_05,1,2610,0,2,5,library_5,2,memory-2step-stake-s,707,3108739,0.0-19.0-0.1-0.216,A3NKZMF7M4X0ZP,371DNNCG57IGA1IMUX7DUPM8OSP8TA,3PJ71Z61R8II15NHN8YJDZUBARX915,5,6
217,4,object_02,object_09,476.69999999925,7,1,589.90000000037,0.5555555555555556,1,object_05,1,2615,0,5,6,restaurant_7,2,memory-2step-stake-s,708,3117106,0.0-19.0-0.1-0.217,A3NKZMF7M4X0ZP,371DNNCG57IGA1IMUX7DUPM8OSP8TA,3PJ71Z61R8II15NHN8YJDZUBARX915,7,8
218,1,object_08,object_07,269.80000000075,2,1,562.40000000037,0.3333333333333333,2,object_04,5,2630,0,6,3,desert_6,2,memory-2step-stake-s,709,3125251,0.0-19.0-0.1-0.218,A3NKZMF7M4X0ZP,371DNNCG57IGA1IMUX7DUPM8OSP8TA,3PJ71Z61R8II15NHN8YJDZUBARX915,2,1
219,1,object_07,object_08,1001.8999999985,1,1,1261.7000000011,0.6666666666666666,1,object_05,1,2636,0,6,1,desert_7,2,memory-2step-stake-s,710,3134390,0.0-19.0-0.1-0.219,A3NKZMF7M4X0ZP,371DNNCG57IGA1IMUX7DUPM8OSP8TA,3PJ71Z61R8II15NHN8YJDZUBARX915,1,2
220,2,object_10,object_03,479.30000000075,4,1,750.40000000037,0.1111111111111111,2,object_04,5,2641,0,4,1,forest_5,2,memory-2step-stake-s,711,3142499,0.0-19.0-0.1-0.220,A3NKZMF7M4X0ZP,371DNNCG57IGA1IMUX7DUPM8OSP8TA,3PJ71Z61R8II15NHN8YJDZUBARX915,4,3
221,1,object_07,object_08,861.40000000037,2,2,744.30000000075,0.2222222222222222,2,object_04,5,2651,0,6,2,desert_4,2,memory-2step-stake-s,712,3150716,0.0-19.0-0.1-0.221,A3NKZMF7M4X0ZP,371DNNCG57IGA1IMUX7DUPM8OSP8TA,3PJ71Z61R8II15NHN8YJDZUBARX915,1,2
222,1,object_07,object_08,652.0,1,1,1075.3000000007,0.8888888888888888,1,object_05,5,2691,0,8,3,desert_3,2,memory-2step-stake-s,713,3159892,0.0-19.0-0.1-0.222,A3NKZMF7M4X0ZP,371DNNCG57IGA1IMUX7DUPM8OSP8TA,3PJ71Z61R8II15NHN8YJDZUBARX915,1,2
223,2,object_10,object_03,792.80000000075,4,1,771.59999999963,0.4444444444444444,2,object_04,5,2711,0,8,4,forest_3,2,memory-2step-stake-s,714,3168336,0.0-19.0-0.1-0.223,A3NKZMF7M4X0ZP,371DNNCG57IGA1IMUX7DUPM8OSP8TA,3PJ71Z61R8II15NHN8YJDZUBARX915,4,3
224,3,object_01,object_06,765.09999999963,5,1,725.0,0.7777777777777778,1,object_05,1,2718,0,7,3,library_6,2,memory-2step-stake-s,715,3177043,0.0-19.0-0.1-0.224,A3NKZMF7M4X0ZP,371DNNCG57IGA1IMUX7DUPM8OSP8TA,3PJ71Z61R8II15NHN8YJDZUBARX915,5,6
225,2,object_10,object_03,877.20000000112,4,1,827.30000000075,0.4444444444444444,2,object_04,5,2738,0,5,4,forest_3,2,memory-2step-stake-s,716,3185532,0.0-19.0-0.1-0.225,A3NKZMF7M4X0ZP,371DNNCG57IGA1IMUX7DUPM8OSP8TA,3PJ71Z61R8II15NHN8YJDZUBARX915,4,3
226,4,object_02,object_09,-1.0,-1,-1,-1.0,0.0,-,0,1,2738,0,8,3,restaurant_3,2,memory-2step-stake-s,717,3192088,0.0-19.0-0.1-0.226,A3NKZMF7M4X0ZP,371DNNCG57IGA1IMUX7DUPM8OSP8TA,3PJ71Z61R8II15NHN8YJDZUBARX915,7,8
227,3,object_06,object_01,891.69999999925,6,1,882.0,0.5555555555555556,2,object_04,1,2743,0,6,5,library_5,2,memory-2step-stake-s,718,3200735,0.0-19.0-0.1-0.227,A3NKZMF7M4X0ZP,371DNNCG57IGA1IMUX7DUPM8OSP8TA,3PJ71Z61R8II15NHN8YJDZUBARX915,6,5
228,4,object_02,object_09,765.30000000075,8,2,1084.5,0.7777777777777778,2,object_04,1,2750,0,5,7,restaurant_8,2,memory-2step-stake-s,719,3209783,0.0-19.0-0.1-0.228,A3NKZMF7M4X0ZP,371DNNCG57IGA1IMUX7DUPM8OSP8TA,3PJ71Z61R8II15NHN8YJDZUBARX915,7,8
229,1,object_07,object_08,724.80000000075,1,1,1034.8999999985,0.5555555555555556,1,object_05,5,2775,0,5,7,desert_3,2,memory-2step-stake-s,720,3218584,0.0-19.0-0.1-0.229,A3NKZMF7M4X0ZP,371DNNCG57IGA1IMUX7DUPM8OSP8TA,3PJ71Z61R8II15NHN8YJDZUBARX915,1,2
230,2,object_10,object_03,784.0,3,2,627.0,1.0,1,object_05,5,2820,0,9,9,forest_3,2,memory-2step-stake-s,721,3227375,0.0-19.0-0.1-0.230,A3NKZMF7M4X0ZP,371DNNCG57IGA1IMUX7DUPM8OSP8TA,3PJ71Z61R8II15NHN8YJDZUBARX915,4,3
231,2,object_03,object_10,810.0,4,2,750.70000000112,0.7777777777777778,2,object_04,5,2855,0,9,7,forest_5,2,memory-2step-stake-s,722,3236084,0.0-19.0-0.1-0.231,A3NKZMF7M4X0ZP,371DNNCG57IGA1IMUX7DUPM8OSP8TA,3PJ71Z61R8II15NHN8YJDZUBARX915,3,4
232,4,object_02,object_09,281.40000000037,7,1,1127.6999999993,0.8888888888888888,1,object_05,5,2895,0,8,6,restaurant_1,2,memory-2step-stake-s,723,3245293,0.0-19.0-0.1-0.232,A3NKZMF7M4X0ZP,371DNNCG57IGA1IMUX7DUPM8OSP8TA,3PJ71Z61R8II15NHN8YJDZUBARX915,7,8
233,1,object_07,object_08,540.69999999925,1,1,511.5,0.8888888888888888,1,object_05,1,2903,0,8,2,desert_4,2,memory-2step-stake-s,724,3253867,0.0-19.0-0.1-0.233,A3NKZMF7M4X0ZP,371DNNCG57IGA1IMUX7DUPM8OSP8TA,3PJ71Z61R8II15NHN8YJDZUBARX915,1,2
234,3,object_06,object_01,731.0,5,2,1338.7999999989,0.8888888888888888,1,object_05,1,2911,0,8,1,library_2,2,memory-2step-stake-s,725,3263293,0.0-19.0-0.1-0.234,A3NKZMF7M4X0ZP,371DNNCG57IGA1IMUX7DUPM8OSP8TA,3PJ71Z61R8II15NHN8YJDZUBARX915,6,5
235,3,object_06,object_01,652.90000000037,5,2,-1.0,0.0,1,object_05,1,2911,0,6,1,library_5,2,memory-2step-stake-s,726,3271863,0.0-19.0-0.1-0.235,A3NKZMF7M4X0ZP,371DNNCG57IGA1IMUX7DUPM8OSP8TA,3PJ71Z61R8II15NHN8YJDZUBARX915,6,5
236,1,object_07,object_08,764.59999999963,2,2,1314.5999999996,0.0,2,object_04,5,2911,0,7,0,desert_7,2,memory-2step-stake-s,727,3280420,0.0-19.0-0.1-0.236,A3NKZMF7M4X0ZP,371DNNCG57IGA1IMUX7DUPM8OSP8TA,3PJ71Z61R8II15NHN8YJDZUBARX915,1,2
237,1,object_07,object_08,613.0,1,1,934.10000000149,0.8888888888888888,1,object_05,5,2951,0,8,0,desert_6,2,memory-2step-stake-s,728,3289423,0.0-19.0-0.1-0.237,A3NKZMF7M4X0ZP,371DNNCG57IGA1IMUX7DUPM8OSP8TA,3PJ71Z61R8II15NHN8YJDZUBARX915,1,2
238,2,object_03,object_10,656.0,3,1,735.0,0.8888888888888888,1,object_05,5,2991,0,8,2,forest_3,2,memory-2step-stake-s,729,3298225,0.0-19.0-0.1-0.238,A3NKZMF7M4X0ZP,371DNNCG57IGA1IMUX7DUPM8OSP8TA,3PJ71Z61R8II15NHN8YJDZUBARX915,3,4
239,2,object_03,object_10,421.19999999925,4,2,621.59999999963,0.3333333333333333,2,object_04,5,3006,0,8,3,forest_2,2,memory-2step-stake-s,730,3306391,0.0-19.0-0.1-0.239,A3NKZMF7M4X0ZP,371DNNCG57IGA1IMUX7DUPM8OSP8TA,3PJ71Z61R8II15NHN8YJDZUBARX915,3,4
240,3,object_01,object_06,840.80000000075,5,1,1341.3000000007,0.6666666666666666,1,object_05,5,3036,0,6,1,library_7,2,memory-2step-stake-s,731,3315611,0.0-19.0-0.1-0.240,A3NKZMF7M4X0ZP,371DNNCG57IGA1IMUX7DUPM8OSP8TA,3PJ71Z61R8II15NHN8YJDZUBARX915,5,6
241,4,object_09,object_02,423.29999999888,7,2,578.69999999925,0.4444444444444444,1,object_05,5,3056,0,4,6,restaurant_1,2,memory-2step-stake-s,732,3323858,0.0-19.0-0.1-0.241,A3NKZMF7M4X0ZP,371DNNCG57IGA1IMUX7DUPM8OSP8TA,3PJ71Z61R8II15NHN8YJDZUBARX915,8,7
242,2,object_10,object_03,1420.8000000007,4,1,760.89999999851,0.4444444444444444,2,object_04,5,3076,0,5,4,forest_3,2,memory-2step-stake-s,733,3332300,0.0-19.0-0.1-0.242,A3NKZMF7M4X0ZP,371DNNCG57IGA1IMUX7DUPM8OSP8TA,3PJ71Z61R8II15NHN8YJDZUBARX915,4,3
243,3,object_06,object_01,651.0,6,1,915.69999999925,0.6666666666666666,2,object_04,1,3082,0,2,6,library_6,2,memory-2step-stake-s,734,3341089,0.0-19.0-0.1-0.243,A3NKZMF7M4X0ZP,371DNNCG57IGA1IMUX7DUPM8OSP8TA,3PJ71Z61R8II15NHN8YJDZUBARX915,6,5
244,1,object_08,object_07,447.30000000075,2,1,1413.4000000004,0.8888888888888888,2,object_04,5,3122,0,1,8,desert_3,2,memory-2step-stake-s,735,3350600,0.0-19.0-0.1-0.244,A3NKZMF7M4X0ZP,371DNNCG57IGA1IMUX7DUPM8OSP8TA,3PJ71Z61R8II15NHN8YJDZUBARX915,2,1
245,1,object_07,object_08,475.19999999925,2,2,690.89999999851,0.7777777777777778,2,object_04,5,3157,0,3,7,desert_4,2,memory-2step-stake-s,736,3359272,0.0-19.0-0.1-0.245,A3NKZMF7M4X0ZP,371DNNCG57IGA1IMUX7DUPM8OSP8TA,3PJ71Z61R8II15NHN8YJDZUBARX915,1,2
246,3,object_06,object_01,562.5,6,1,1435.4000000004,0.6666666666666666,2,object_04,5,3187,0,3,6,library_2,2,memory-2step-stake-s,737,3368602,0.0-19.0-0.1-0.246,A3NKZMF7M4X0ZP,371DNNCG57IGA1IMUX7DUPM8OSP8TA,3PJ71Z61R8II15NHN8YJDZUBARX915,6,5
247,3,object_06,object_01,459.69999999925,6,1,661.0,0.6666666666666666,2,object_04,5,3217,0,4,6,library_5,2,memory-2step-stake-s,738,3377171,0.0-19.0-0.1-0.247,A3NKZMF7M4X0ZP,371DNNCG57IGA1IMUX7DUPM8OSP8TA,3PJ71Z61R8II15NHN8YJDZUBARX915,6,5
248,3,object_01,object_06,1209.9000000004,5,1,760.80000000075,0.2222222222222222,1,object_05,1,3219,0,2,6,library_2,2,memory-2step-stake-s,739,3385392,0.0-19.0-0.1-0.248,A3NKZMF7M4X0ZP,371DNNCG57IGA1IMUX7DUPM8OSP8TA,3PJ71Z61R8II15NHN8YJDZUBARX915,5,6
249,3,object_06,object_01,251.29999999888,6,1,233.80000000075,0.6666666666666666,2,object_04,1,3225,0,1,6,library_7,2,memory-2step-stake-s,740,3393502,0.0-19.0-0.1-0.249,A3NKZMF7M4X0ZP,371DNNCG57IGA1IMUX7DUPM8OSP8TA,3PJ71Z61R8II15NHN8YJDZUBARX915,6,5
250,3,object_01,object_06,1320.4000000004,5,1,1283.0999999996,0.2222222222222222,1,object_05,1,3227,0,2,8,library_7,2,memory-2step-stake-s,741,3402260,0.0-19.0-0.1-0.250,A3NKZMF7M4X0ZP,371DNNCG57IGA1IMUX7DUPM8OSP8TA,3PJ71Z61R8II15NHN8YJDZUBARX915,5,6
251,3,object_06,object_01,703.19999999925,6,1,741.10000000149,1.0,2,object_04,1,3236,0,5,9,library_7,2,memory-2step-stake-s,742,3411190,0.0-19.0-0.1-0.251,A3NKZMF7M4X0ZP,371DNNCG57IGA1IMUX7DUPM8OSP8TA,3PJ71Z61R8II15NHN8YJDZUBARX915,6,5
252,4,object_02,object_09,633.79999999888,7,1,745.19999999925,0.4444444444444444,1,object_05,5,3256,0,4,9,restaurant_1,2,memory-2step-stake-s,743,3419611,0.0-19.0-0.1-0.252,A3NKZMF7M4X0ZP,371DNNCG57IGA1IMUX7DUPM8OSP8TA,3PJ71Z61R8II15NHN8YJDZUBARX915,7,8
253,1,object_07,object_08,300.5,1,1,738.29999999888,0.5555555555555556,1,object_05,5,3281,0,5,6,desert_3,2,memory-2step-stake-s,744,3428142,0.0-19.0-0.1-0.253,A3NKZMF7M4X0ZP,371DNNCG57IGA1IMUX7DUPM8OSP8TA,3PJ71Z61R8II15NHN8YJDZUBARX915,1,2
254,1,object_08,object_07,926.70000000112,2,1,793.5,0.5555555555555556,2,object_04,5,3306,0,5,5,desert_3,2,memory-2step-stake-s,745,3436706,0.0-19.0-0.1-0.254,A3NKZMF7M4X0ZP,371DNNCG57IGA1IMUX7DUPM8OSP8TA,3PJ71Z61R8II15NHN8YJDZUBARX915,2,1
255,1,object_08,object_07,711.89999999851,2,1,1209.2000000011,1.0,2,object_04,5,3351,0,5,9,desert_3,2,memory-2step-stake-s,746,3446091,0.0-19.0-0.1-0.255,A3NKZMF7M4X0ZP,371DNNCG57IGA1IMUX7DUPM8OSP8TA,3PJ71Z61R8II15NHN8YJDZUBARX915,2,1
