,state1,stim_left,stim_right,rt_1,choice1,response1,rt_2,points,state2,stim_state2,stake,score,practice,rews1,rews2,background,high_arm,trial_type,trial_index,time_elapsed,internal_node_id,subid,hitid,assignmentid,stim_left_num,stim_right_num
0,2,object_09,object_06,417.00000001583,3,1,-1.0,0.0,1,object_02,1,0,0,6,0,forest_5,1,memory-2step-stake-s,540,3068628,0.0-19.0-0.0-0.0,A2EGOCAO0VL2S8,31KPKEKW5DTYWQJ2Z73D1GA4ZNDB00,3R08VXYT7GB7ONFR5ZPKSTTZBEDW7A,3,4
1,1,object_01,object_04,716.0000000149,2,1,809.99999993946,0.1111111111111111,2,object_07,1,1,0,2,1,desert_6,1,memory-2step-stake-s,541,3076746,0.0-19.0-0.0-0.1,A2EGOCAO0VL2S8,31KPKEKW5DTYWQJ2Z73D1GA4ZNDB00,3R08VXYT7GB7ONFR5ZPKSTTZBEDW7A,2,1
2,2,object_09,object_06,677.00000002515,4,2,511.99999998789,0.2222222222222222,2,object_07,1,3,0,1,2,forest_4,1,memory-2step-stake-s,542,3084702,0.0-19.0-0.0-0.2,A2EGOCAO0VL2S8,31KPKEKW5DTYWQJ2Z73D1GA4ZNDB00,3R08VXYT7GB7ONFR5ZPKSTTZBEDW7A,3,4
3,3,object_03,object_05,560.00000005588,5,1,28.999999980442,0.1111111111111111,1,object_02,1,4,0,1,0,library_5,1,memory-2step-stake-s,543,3092041,0.0-19.0-0.0-0.3,A2EGOCAO0VL2S8,31KPKEKW5DTYWQJ2Z73D1GA4ZNDB00,3R08VXYT7GB7ONFR5ZPKSTTZBEDW7A,5,6
4,4,object_10,object_08,709.99999996275,7,1,817.9999999702,0.3333333333333333,1,object_02,1,7,0,3,0,restaurant_2,1,memory-2step-stake-s,544,3100372,0.0-19.0-0.0-0.4,A2EGOCAO0VL2S8,31KPKEKW5DTYWQJ2Z73D1GA4ZNDB00,3R08VXYT7GB7ONFR5ZPKSTTZBEDW7A,7,8
5,3,object_03,object_05,815.00000006054,5,1,786.00000008009,0.4444444444444444,1,object_02,5,27,0,4,2,library_7,1,memory-2step-stake-s,545,3108773,0.0-19.0-0.0-0.5,A2EGOCAO0VL2S8,31KPKEKW5DTYWQJ2Z73D1GA4ZNDB00,3R08VXYT7GB7ONFR5ZPKSTTZBEDW7A,5,6
6,4,object_10,object_08,77.999999979511,7,1,1266.9999999925,0.5555555555555556,1,object_02,5,52,0,5,3,restaurant_3,1,memory-2step-stake-s,546,3117759,0.0-19.0-0.0-0.6,A2EGOCAO0VL2S8,31KPKEKW5DTYWQJ2Z73D1GA4ZNDB00,3R08VXYT7GB7ONFR5ZPKSTTZBEDW7A,7,8
7,1,object_04,object_01,7.9999999143183,1,1,564.99999994412,0.5555555555555556,1,object_02,1,57,0,5,3,desert_2,1,memory-2step-stake-s,547,3126068,0.0-19.0-0.0-0.7,A2EGOCAO0VL2S8,31KPKEKW5DTYWQJ2Z73D1GA4ZNDB00,3R08VXYT7GB7ONFR5ZPKSTTZBEDW7A,1,2
8,2,object_09,object_06,864.99999999069,3,1,859.99999998603,0.1111111111111111,1,object_02,5,62,0,1,6,forest_3,1,memory-2step-stake-s,548,3134238,0.0-19.0-0.0-0.8,A2EGOCAO0VL2S8,31KPKEKW5DTYWQJ2Z73D1GA4ZNDB00,3R08VXYT7GB7ONFR5ZPKSTTZBEDW7A,3,4
9,3,object_05,object_03,382.99999991432,6,1,788.00000005867,0.8888888888888888,2,object_07,5,102,0,2,8,library_7,1,memory-2step-stake-s,549,3143048,0.0-19.0-0.0-0.9,A2EGOCAO0VL2S8,31KPKEKW5DTYWQJ2Z73D1GA4ZNDB00,3R08VXYT7GB7ONFR5ZPKSTTZBEDW7A,6,5
10,3,object_03,object_05,253.99999995716,6,2,266.99999999255,1.0,2,object_07,5,147,0,3,9,library_7,1,memory-2step-stake-s,550,3151444,0.0-19.0-0.0-0.10,A2EGOCAO0VL2S8,31KPKEKW5DTYWQJ2Z73D1GA4ZNDB00,3R08VXYT7GB7ONFR5ZPKSTTZBEDW7A,5,6
11,2,object_09,object_06,219.00000004098,3,1,680.9999999823,0.2222222222222222,1,object_02,5,157,0,2,7,forest_5,1,memory-2step-stake-s,551,3159533,0.0-19.0-0.0-0.11,A2EGOCAO0VL2S8,31KPKEKW5DTYWQJ2Z73D1GA4ZNDB00,3R08VXYT7GB7ONFR5ZPKSTTZBEDW7A,3,4
12,4,object_10,object_08,682.0000000298,8,2,724.99999997672,0.8888888888888888,2,object_07,1,165,0,4,8,restaurant_2,1,memory-2step-stake-s,552,3168274,0.0-19.0-0.0-0.12,A2EGOCAO0VL2S8,31KPKEKW5DTYWQJ2Z73D1GA4ZNDB00,3R08VXYT7GB7ONFR5ZPKSTTZBEDW7A,7,8
13,4,object_08,object_10,594.99999997206,8,1,94.99999997206,0.8888888888888888,2,object_07,5,205,0,5,8,restaurant_1,1,memory-2step-stake-s,553,3176385,0.0-19.0-0.0-0.13,A2EGOCAO0VL2S8,31KPKEKW5DTYWQJ2Z73D1GA4ZNDB00,3R08VXYT7GB7ONFR5ZPKSTTZBEDW7A,8,7
14,1,object_04,object_01,711.00000001024,1,1,882.00000009965,0.3333333333333333,1,object_02,1,208,0,3,6,desert_5,1,memory-2step-stake-s,554,3184778,0.0-19.0-0.0-0.14,A2EGOCAO0VL2S8,31KPKEKW5DTYWQJ2Z73D1GA4ZNDB00,3R08VXYT7GB7ONFR5ZPKSTTZBEDW7A,1,2
15,3,object_05,object_03,594.99999997206,5,2,192.00000003912,0.1111111111111111,1,object_02,5,213,0,1,7,library_5,1,memory-2step-stake-s,555,3192281,0.0-19.0-0.0-0.15,A2EGOCAO0VL2S8,31KPKEKW5DTYWQJ2Z73D1GA4ZNDB00,3R08VXYT7GB7ONFR5ZPKSTTZBEDW7A,6,5
16,3,object_03,object_05,523.99999997579,5,1,184.00000000838,0.4444444444444444,1,object_02,5,233,0,4,5,library_8,1,memory-2step-stake-s,556,3200079,0.0-19.0-0.0-0.16,A2EGOCAO0VL2S8,31KPKEKW5DTYWQJ2Z73D1GA4ZNDB00,3R08VXYT7GB7ONFR5ZPKSTTZBEDW7A,5,6
17,2,object_09,object_06,750.0,4,2,25.000000023283,0.8888888888888888,2,object_07,1,241,0,1,8,forest_4,1,memory-2step-stake-s,557,3208119,0.0-19.0-0.0-0.17,A2EGOCAO0VL2S8,31KPKEKW5DTYWQJ2Z73D1GA4ZNDB00,3R08VXYT7GB7ONFR5ZPKSTTZBEDW7A,3,4
18,4,object_08,object_10,677.99999995623,7,2,370.99999992643,0.2222222222222222,1,object_02,5,251,0,2,6,restaurant_2,1,memory-2step-stake-s,558,3215901,0.0-19.0-0.0-0.18,A2EGOCAO0VL2S8,31KPKEKW5DTYWQJ2Z73D1GA4ZNDB00,3R08VXYT7GB7ONFR5ZPKSTTZBEDW7A,8,7
19,3,object_05,object_03,707.00000005309,6,1,1070.0000000652,0.7777777777777778,2,object_07,5,286,0,8,7,library_3,1,memory-2step-stake-s,559,3224900,0.0-19.0-0.0-0.19,A2EGOCAO0VL2S8,31KPKEKW5DTYWQJ2Z73D1GA4ZNDB00,3R08VXYT7GB7ONFR5ZPKSTTZBEDW7A,6,5
20,2,object_06,object_09,104.99999998137,3,2,123.9999999525,1.0,1,object_02,1,295,0,9,8,forest_3,1,memory-2step-stake-s,560,3233140,0.0-19.0-0.0-0.20,A2EGOCAO0VL2S8,31KPKEKW5DTYWQJ2Z73D1GA4ZNDB00,3R08VXYT7GB7ONFR5ZPKSTTZBEDW7A,4,3
21,1,object_04,object_01,473.99999992922,2,2,599.99999997672,0.7777777777777778,2,object_07,1,302,0,8,7,desert_2,1,memory-2step-stake-s,561,3241667,0.0-19.0-0.0-0.21,A2EGOCAO0VL2S8,31KPKEKW5DTYWQJ2Z73D1GA4ZNDB00,3R08VXYT7GB7ONFR5ZPKSTTZBEDW7A,1,2
22,4,object_10,object_08,1165.0000000373,7,1,403.00000004936,0.6666666666666666,1,object_02,5,332,0,6,6,restaurant_3,1,memory-2step-stake-s,562,3249880,0.0-19.0-0.0-0.22,A2EGOCAO0VL2S8,31KPKEKW5DTYWQJ2Z73D1GA4ZNDB00,3R08VXYT7GB7ONFR5ZPKSTTZBEDW7A,7,8
23,4,object_10,object_08,702.00000004843,8,2,145.99999994971,0.7777777777777778,2,object_07,5,367,0,6,7,restaurant_2,1,memory-2step-stake-s,563,3257940,0.0-19.0-0.0-0.23,A2EGOCAO0VL2S8,31KPKEKW5DTYWQJ2Z73D1GA4ZNDB00,3R08VXYT7GB7ONFR5ZPKSTTZBEDW7A,7,8
24,3,object_05,object_03,691.9999999227,6,1,126.99999997858,0.2222222222222222,2,object_07,5,377,0,8,2,library_7,1,memory-2step-stake-s,564,3265477,0.0-19.0-0.0-0.24,A2EGOCAO0VL2S8,31KPKEKW5DTYWQJ2Z73D1GA4ZNDB00,3R08VXYT7GB7ONFR5ZPKSTTZBEDW7A,6,5
25,2,object_06,object_09,159.99999991618,4,1,36.000000080094,0.3333333333333333,2,object_07,1,380,0,8,3,forest_3,1,memory-2step-stake-s,565,3273028,0.0-19.0-0.0-0.25,A2EGOCAO0VL2S8,31KPKEKW5DTYWQJ2Z73D1GA4ZNDB00,3R08VXYT7GB7ONFR5ZPKSTTZBEDW7A,4,3
26,1,object_01,object_04,687.00000003446,2,1,128.00000002608,0.2222222222222222,2,object_07,1,382,0,9,2,desert_1,1,memory-2step-stake-s,566,3280571,0.0-19.0-0.0-0.26,A2EGOCAO0VL2S8,31KPKEKW5DTYWQJ2Z73D1GA4ZNDB00,3R08VXYT7GB7ONFR5ZPKSTTZBEDW7A,2,1
27,4,object_08,object_10,347.00000006706,8,1,43.00000006333,0.2222222222222222,2,object_07,1,384,0,8,2,restaurant_1,1,memory-2step-stake-s,567,3288027,0.0-19.0-0.0-0.27,A2EGOCAO0VL2S8,31KPKEKW5DTYWQJ2Z73D1GA4ZNDB00,3R08VXYT7GB7ONFR5ZPKSTTZBEDW7A,8,7
28,3,object_03,object_05,1027.9999999329,5,1,758.99999996182,1.0,1,object_02,5,429,0,9,2,library_8,1,memory-2step-stake-s,568,3296908,0.0-19.0-0.0-0.28,A2EGOCAO0VL2S8,31KPKEKW5DTYWQJ2Z73D1GA4ZNDB00,3R08VXYT7GB7ONFR5ZPKSTTZBEDW7A,5,6
29,1,object_04,object_01,913.00000005867,1,1,863.99999994319,0.8888888888888888,1,object_02,1,437,0,8,5,desert_5,1,memory-2step-stake-s,569,3305813,0.0-19.0-0.0-0.29,A2EGOCAO0VL2S8,31KPKEKW5DTYWQJ2Z73D1GA4ZNDB00,3R08VXYT7GB7ONFR5ZPKSTTZBEDW7A,1,2
30,4,object_08,object_10,865.99999992177,7,2,92.999999993481,0.8888888888888888,1,object_02,1,445,0,8,1,restaurant_3,1,memory-2step-stake-s,570,3313919,0.0-19.0-0.0-0.30,A2EGOCAO0VL2S8,31KPKEKW5DTYWQJ2Z73D1GA4ZNDB00,3R08VXYT7GB7ONFR5ZPKSTTZBEDW7A,8,7
31,2,object_09,object_06,634.00000007823,4,2,54.000000003725,0.0,2,object_07,1,445,0,6,0,forest_5,1,memory-2step-stake-s,571,3321190,0.0-19.0-0.0-0.31,A2EGOCAO0VL2S8,31KPKEKW5DTYWQJ2Z73D1GA4ZNDB00,3R08VXYT7GB7ONFR5ZPKSTTZBEDW7A,3,4
32,4,object_10,object_08,613.00000001211,7,1,357.00000007637,0.4444444444444444,1,object_02,5,465,0,4,0,restaurant_3,1,memory-2step-stake-s,572,3329165,0.0-19.0-0.0-0.32,A2EGOCAO0VL2S8,31KPKEKW5DTYWQJ2Z73D1GA4ZNDB00,3R08VXYT7GB7ONFR5ZPKSTTZBEDW7A,7,8
33,4,object_10,object_08,711.99999994133,7,1,712.99999998882,0.4444444444444444,1,object_02,5,485,0,4,3,restaurant_4,1,memory-2step-stake-s,573,3337567,0.0-19.0-0.0-0.33,A2EGOCAO0VL2S8,31KPKEKW5DTYWQJ2Z73D1GA4ZNDB00,3R08VXYT7GB7ONFR5ZPKSTTZBEDW7A,7,8
34,1,object_01,object_04,734.99999998603,1,2,803.00000007264,0.7777777777777778,1,object_02,1,492,0,7,0,desert_6,1,memory-2step-stake-s,574,3346283,0.0-19.0-0.0-0.34,A2EGOCAO0VL2S8,31KPKEKW5DTYWQJ2Z73D1GA4ZNDB00,3R08VXYT7GB7ONFR5ZPKSTTZBEDW7A,2,1
35,3,object_05,object_03,746.99999997392,6,1,1471.9999999506,0.2222222222222222,2,object_07,5,502,0,9,2,library_5,1,memory-2step-stake-s,575,3355176,0.0-19.0-0.0-0.35,A2EGOCAO0VL2S8,31KPKEKW5DTYWQJ2Z73D1GA4ZNDB00,3R08VXYT7GB7ONFR5ZPKSTTZBEDW7A,6,5
36,3,object_03,object_05,1047.9999999516,5,1,777.99999993294,1.0,1,object_02,5,547,0,9,4,library_5,1,memory-2step-stake-s,576,3364071,0.0-19.0-0.0-0.36,A2EGOCAO0VL2S8,31KPKEKW5DTYWQJ2Z73D1GA4ZNDB00,3R08VXYT7GB7ONFR5ZPKSTTZBEDW7A,5,6
37,4,object_10,object_08,785.0000000326,7,1,1119.9999999953,1.0,1,object_02,5,592,0,9,4,restaurant_4,1,memory-2step-stake-s,577,3373300,0.0-19.0-0.0-0.37,A2EGOCAO0VL2S8,31KPKEKW5DTYWQJ2Z73D1GA4ZNDB00,3R08VXYT7GB7ONFR5ZPKSTTZBEDW7A,7,8
38,1,object_01,object_04,1378.0000000261,1,2,32.000000006519,0.8888888888888888,1,object_02,1,600,0,8,7,desert_5,1,memory-2step-stake-s,578,3381431,0.0-19.0-0.0-0.38,A2EGOCAO0VL2S8,31KPKEKW5DTYWQJ2Z73D1GA4ZNDB00,3R08VXYT7GB7ONFR5ZPKSTTZBEDW7A,2,1
39,2,object_09,object_06,0.0,4,2,108.99999993853,0.8888888888888888,2,object_07,5,640,0,8,8,forest_5,1,memory-2step-stake-s,579,3389614,0.0-19.0-0.0-0.39,A2EGOCAO0VL2S8,31KPKEKW5DTYWQJ2Z73D1GA4ZNDB00,3R08VXYT7GB7ONFR5ZPKSTTZBEDW7A,3,4
40,4,object_08,object_10,1095.0000000885,8,1,733.00000000745,0.8888888888888888,2,object_07,5,680,0,9,8,restaurant_4,1,memory-2step-stake-s,580,3398360,0.0-19.0-0.0-0.40,A2EGOCAO0VL2S8,31KPKEKW5DTYWQJ2Z73D1GA4ZNDB00,3R08VXYT7GB7ONFR5ZPKSTTZBEDW7A,8,7
41,2,object_09,object_06,494.99999999534,3,1,81.000000005588,0.6666666666666666,1,object_02,1,686,0,6,6,forest_3,1,memory-2step-stake-s,581,3406256,0.0-19.0-0.0-0.41,A2EGOCAO0VL2S8,31KPKEKW5DTYWQJ2Z73D1GA4ZNDB00,3R08VXYT7GB7ONFR5ZPKSTTZBEDW7A,3,4
42,4,object_08,object_10,656.00000007544,7,2,92.999999993481,0.3333333333333333,1,object_02,5,701,0,3,7,restaurant_3,1,memory-2step-stake-s,582,3413857,0.0-19.0-0.0-0.42,A2EGOCAO0VL2S8,31KPKEKW5DTYWQJ2Z73D1GA4ZNDB00,3R08VXYT7GB7ONFR5ZPKSTTZBEDW7A,8,7
43,4,object_10,object_08,645.00000001863,7,1,707.99999998417,0.7777777777777778,1,object_02,5,736,0,7,6,restaurant_4,1,memory-2step-stake-s,583,3422475,0.0-19.0-0.0-0.43,A2EGOCAO0VL2S8,31KPKEKW5DTYWQJ2Z73D1GA4ZNDB00,3R08VXYT7GB7ONFR5ZPKSTTZBEDW7A,7,8
44,3,object_03,object_05,790.00000003725,5,1,33.000000054017,0.6666666666666666,1,object_02,5,766,0,6,5,library_5,1,memory-2step-stake-s,584,3430321,0.0-19.0-0.0-0.44,A2EGOCAO0VL2S8,31KPKEKW5DTYWQJ2Z73D1GA4ZNDB00,3R08VXYT7GB7ONFR5ZPKSTTZBEDW7A,5,6
45,1,object_04,object_01,727.00000007171,1,1,1.9999999785796,0.8888888888888888,1,object_02,1,774,0,8,6,desert_2,1,memory-2step-stake-s,585,3438352,0.0-19.0-0.0-0.45,A2EGOCAO0VL2S8,31KPKEKW5DTYWQJ2Z73D1GA4ZNDB00,3R08VXYT7GB7ONFR5ZPKSTTZBEDW7A,1,2
46,1,object_04,object_01,724.99999997672,2,2,108.99999993853,0.8888888888888888,2,object_07,1,782,0,7,8,desert_6,1,memory-2step-stake-s,586,3446485,0.0-19.0-0.0-0.46,A2EGOCAO0VL2S8,31KPKEKW5DTYWQJ2Z73D1GA4ZNDB00,3R08VXYT7GB7ONFR5ZPKSTTZBEDW7A,1,2
47,4,object_10,object_08,90.000000083819,7,1,5.9999999357387,0.6666666666666666,1,object_02,5,812,0,6,8,restaurant_2,1,memory-2step-stake-s,587,3454303,0.0-19.0-0.0-0.47,A2EGOCAO0VL2S8,31KPKEKW5DTYWQJ2Z73D1GA4ZNDB00,3R08VXYT7GB7ONFR5ZPKSTTZBEDW7A,7,8
48,3,object_03,object_05,875.0,6,2,220.00000008848,1.0,2,object_07,5,857,0,5,9,library_8,1,memory-2step-stake-s,588,3462671,0.0-19.0-0.0-0.48,A2EGOCAO0VL2S8,31KPKEKW5DTYWQJ2Z73D1GA4ZNDB00,3R08VXYT7GB7ONFR5ZPKSTTZBEDW7A,5,6
49,1,object_04,object_01,619.99999999534,1,1,458.99999991525,0.7777777777777778,1,object_02,5,892,0,7,7,desert_5,1,memory-2step-stake-s,589,3471053,0.0-19.0-0.0-0.49,A2EGOCAO0VL2S8,31KPKEKW5DTYWQJ2Z73D1GA4ZNDB00,3R08VXYT7GB7ONFR5ZPKSTTZBEDW7A,1,2
50,1,object_01,object_04,400.00000002328,2,1,164.99999992084,0.7777777777777778,2,object_07,1,899,0,9,7,desert_6,1,memory-2step-stake-s,590,3479130,0.0-19.0-0.0-0.50,A2EGOCAO0VL2S8,31KPKEKW5DTYWQJ2Z73D1GA4ZNDB00,3R08VXYT7GB7ONFR5ZPKSTTZBEDW7A,2,1
51,2,object_09,object_06,712.99999998882,4,2,172.99999995157,0.8888888888888888,2,object_07,1,907,0,8,8,forest_5,1,memory-2step-stake-s,591,3487336,0.0-19.0-0.0-0.51,A2EGOCAO0VL2S8,31KPKEKW5DTYWQJ2Z73D1GA4ZNDB00,3R08VXYT7GB7ONFR5ZPKSTTZBEDW7A,3,4
52,3,object_05,object_03,631.00000005215,5,2,194.99999994878,1.0,1,object_02,5,952,0,9,6,library_3,1,memory-2step-stake-s,592,3495661,0.0-19.0-0.0-0.52,A2EGOCAO0VL2S8,31KPKEKW5DTYWQJ2Z73D1GA4ZNDB00,3R08VXYT7GB7ONFR5ZPKSTTZBEDW7A,6,5
53,2,object_06,object_09,927.00000002515,4,1,81.000000005588,0.3333333333333333,2,object_07,1,955,0,8,3,forest_3,1,memory-2step-stake-s,593,3503262,0.0-19.0-0.0-0.53,A2EGOCAO0VL2S8,31KPKEKW5DTYWQJ2Z73D1GA4ZNDB00,3R08VXYT7GB7ONFR5ZPKSTTZBEDW7A,4,3
54,2,object_06,object_09,716.99999994598,4,1,57.999999960884,0.2222222222222222,2,object_07,1,957,0,7,2,forest_4,1,memory-2step-stake-s,594,3510732,0.0-19.0-0.0-0.54,A2EGOCAO0VL2S8,31KPKEKW5DTYWQJ2Z73D1GA4ZNDB00,3R08VXYT7GB7ONFR5ZPKSTTZBEDW7A,4,3
55,4,object_10,object_08,866.99999996927,7,1,181.99999991339,0.5555555555555556,1,object_02,1,962,0,5,1,restaurant_1,1,memory-2step-stake-s,595,3518628,0.0-19.0-0.0-0.55,A2EGOCAO0VL2S8,31KPKEKW5DTYWQJ2Z73D1GA4ZNDB00,3R08VXYT7GB7ONFR5ZPKSTTZBEDW7A,7,8
56,1,object_04,object_01,660.0000000326,2,2,626.99999997858,0.1111111111111111,2,object_07,1,963,0,4,1,desert_6,1,memory-2step-stake-s,596,3526578,0.0-19.0-0.0-0.56,A2EGOCAO0VL2S8,31KPKEKW5DTYWQJ2Z73D1GA4ZNDB00,3R08VXYT7GB7ONFR5ZPKSTTZBEDW7A,1,2
57,1,object_04,object_01,581.00000000559,1,1,170.00000004191,0.3333333333333333,1,object_02,1,966,0,3,1,desert_1,1,memory-2step-stake-s,597,3534259,0.0-19.0-0.0-0.57,A2EGOCAO0VL2S8,31KPKEKW5DTYWQJ2Z73D1GA4ZNDB00,3R08VXYT7GB7ONFR5ZPKSTTZBEDW7A,1,2
58,3,object_05,object_03,836.99999994133,5,2,96.000000019558,0.5555555555555556,1,object_02,5,991,0,5,0,library_8,1,memory-2step-stake-s,598,3542070,0.0-19.0-0.0-0.58,A2EGOCAO0VL2S8,31KPKEKW5DTYWQJ2Z73D1GA4ZNDB00,3R08VXYT7GB7ONFR5ZPKSTTZBEDW7A,6,5
59,1,object_04,object_01,777.00000000186,2,2,62.000000034459,0.1111111111111111,2,object_07,5,996,0,3,1,desert_6,1,memory-2step-stake-s,599,3549447,0.0-19.0-0.0-0.59,A2EGOCAO0VL2S8,31KPKEKW5DTYWQJ2Z73D1GA4ZNDB00,3R08VXYT7GB7ONFR5ZPKSTTZBEDW7A,1,2
60,4,object_08,object_10,-1.0,-1,-1,-1.0,0.0,-,0,5,996,0,7,2,restaurant_4,1,memory-2step-stake-s,600,3555955,0.0-19.0-0.0-0.60,A2EGOCAO0VL2S8,31KPKEKW5DTYWQJ2Z73D1GA4ZNDB00,3R08VXYT7GB7ONFR5ZPKSTTZBEDW7A,8,7
61,1,object_04,object_01,1141.9999999925,1,1,138.00000003539,0.8888888888888888,1,object_02,1,1004,0,8,3,desert_6,1,memory-2step-stake-s,601,3564103,0.0-19.0-0.0-0.61,A2EGOCAO0VL2S8,31KPKEKW5DTYWQJ2Z73D1GA4ZNDB00,3R08VXYT7GB7ONFR5ZPKSTTZBEDW7A,1,2
62,2,object_09,object_06,695.00000006519,4,2,59.000000008382,0.4444444444444444,2,object_07,5,1024,0,9,4,forest_4,1,memory-2step-stake-s,602,3571783,0.0-19.0-0.0-0.62,A2EGOCAO0VL2S8,31KPKEKW5DTYWQJ2Z73D1GA4ZNDB00,3R08VXYT7GB7ONFR5ZPKSTTZBEDW7A,3,4
63,1,object_04,object_01,717.99999999348,2,2,89.000000036322,0.6666666666666666,2,object_07,1,1030,0,7,6,desert_6,1,memory-2step-stake-s,603,3579760,0.0-19.0-0.0-0.63,A2EGOCAO0VL2S8,31KPKEKW5DTYWQJ2Z73D1GA4ZNDB00,3R08VXYT7GB7ONFR5ZPKSTTZBEDW7A,1,2
64,1,object_01,object_04,704.00000002701,1,2,859.99999998603,0.8888888888888888,1,object_02,1,1038,0,8,5,desert_1,1,memory-2step-stake-s,604,3588633,0.0-19.0-0.0-0.64,A2EGOCAO0VL2S8,31KPKEKW5DTYWQJ2Z73D1GA4ZNDB00,3R08VXYT7GB7ONFR5ZPKSTTZBEDW7A,2,1
65,2,object_06,object_09,635.9999999404,3,2,126.99999997858,0.7777777777777778,1,object_02,1,1045,0,7,6,forest_6,1,memory-2step-stake-s,605,3596678,0.0-19.0-0.0-0.65,A2EGOCAO0VL2S8,31KPKEKW5DTYWQJ2Z73D1GA4ZNDB00,3R08VXYT7GB7ONFR5ZPKSTTZBEDW7A,4,3
66,1,object_04,object_01,621.00000004284,2,2,19.000000087544,0.7777777777777778,2,object_07,5,1080,0,6,7,desert_2,1,memory-2step-stake-s,606,3604640,0.0-19.0-0.0-0.66,A2EGOCAO0VL2S8,31KPKEKW5DTYWQJ2Z73D1GA4ZNDB00,3R08VXYT7GB7ONFR5ZPKSTTZBEDW7A,1,2
67,1,object_04,object_01,729.99999998137,1,1,734.99999998603,0.5555555555555556,1,object_02,1,1085,0,5,9,desert_5,1,memory-2step-stake-s,607,3613086,0.0-19.0-0.0-0.67,A2EGOCAO0VL2S8,31KPKEKW5DTYWQJ2Z73D1GA4ZNDB00,3R08VXYT7GB7ONFR5ZPKSTTZBEDW7A,1,2
68,4,object_08,object_10,969.99999997206,8,1,178.00000007264,0.4444444444444444,2,object_07,5,1105,0,7,4,restaurant_1,1,memory-2step-stake-s,608,3620880,0.0-19.0-0.0-0.68,A2EGOCAO0VL2S8,31KPKEKW5DTYWQJ2Z73D1GA4ZNDB00,3R08VXYT7GB7ONFR5ZPKSTTZBEDW7A,8,7
69,2,object_09,object_06,688.00000008196,3,1,4.9999998882413,0.8888888888888888,1,object_02,1,1113,0,8,7,forest_6,1,memory-2step-stake-s,609,3628896,0.0-19.0-0.0-0.69,A2EGOCAO0VL2S8,31KPKEKW5DTYWQJ2Z73D1GA4ZNDB00,3R08VXYT7GB7ONFR5ZPKSTTZBEDW7A,3,4
70,1,object_04,object_01,711.99999994133,1,1,13.00000003539,0.5555555555555556,1,object_02,1,1118,0,5,6,desert_2,1,memory-2step-stake-s,610,3636620,0.0-19.0-0.0-0.70,A2EGOCAO0VL2S8,31KPKEKW5DTYWQJ2Z73D1GA4ZNDB00,3R08VXYT7GB7ONFR5ZPKSTTZBEDW7A,1,2
71,3,object_05,object_03,665.99999996834,5,2,163.99999998976,0.2222222222222222,1,object_02,1,1120,0,2,8,library_8,1,memory-2step-stake-s,611,3644197,0.0-19.0-0.0-0.71,A2EGOCAO0VL2S8,31KPKEKW5DTYWQJ2Z73D1GA4ZNDB00,3R08VXYT7GB7ONFR5ZPKSTTZBEDW7A,6,5
72,1,object_04,object_01,755.00000000466,1,1,910.0000000326,0.2222222222222222,1,object_02,1,1122,0,2,8,desert_6,1,memory-2step-stake-s,612,3652519,0.0-19.0-0.0-0.72,A2EGOCAO0VL2S8,31KPKEKW5DTYWQJ2Z73D1GA4ZNDB00,3R08VXYT7GB7ONFR5ZPKSTTZBEDW7A,1,2
73,2,object_09,object_06,618.99999994785,4,2,407.00000000652,0.6666666666666666,2,object_07,1,1128,0,2,6,forest_4,1,memory-2step-stake-s,613,3660736,0.0-19.0-0.0-0.73,A2EGOCAO0VL2S8,31KPKEKW5DTYWQJ2Z73D1GA4ZNDB00,3R08VXYT7GB7ONFR5ZPKSTTZBEDW7A,3,4
74,1,object_04,object_01,606.00000002887,1,1,146.99999999721,0.1111111111111111,1,object_02,1,1129,0,1,7,desert_2,1,memory-2step-stake-s,614,3668201,0.0-19.0-0.0-0.74,A2EGOCAO0VL2S8,31KPKEKW5DTYWQJ2Z73D1GA4ZNDB00,3R08VXYT7GB7ONFR5ZPKSTTZBEDW7A,1,2
75,3,object_05,object_03,841.0000000149,6,1,32.999999937601,0.7777777777777778,2,object_07,5,1164,0,2,7,library_5,1,memory-2step-stake-s,615,3676157,0.0-19.0-0.0-0.75,A2EGOCAO0VL2S8,31KPKEKW5DTYWQJ2Z73D1GA4ZNDB00,3R08VXYT7GB7ONFR5ZPKSTTZBEDW7A,6,5
76,1,object_01,object_04,596.00000001956,2,1,792.99999994691,0.8888888888888888,2,object_07,1,1172,0,2,8,desert_5,1,memory-2step-stake-s,616,3684970,0.0-19.0-0.0-0.76,A2EGOCAO0VL2S8,31KPKEKW5DTYWQJ2Z73D1GA4ZNDB00,3R08VXYT7GB7ONFR5ZPKSTTZBEDW7A,2,1
77,3,object_03,object_05,736.99999996461,6,2,167.00000001583,1.0,2,object_07,5,1217,0,3,9,library_3,1,memory-2step-stake-s,617,3693257,0.0-19.0-0.0-0.77,A2EGOCAO0VL2S8,31KPKEKW5DTYWQJ2Z73D1GA4ZNDB00,3R08VXYT7GB7ONFR5ZPKSTTZBEDW7A,5,6
78,2,object_09,object_06,634.9999998929,3,1,779.00000009686,0.4444444444444444,1,object_02,1,1221,0,4,7,forest_3,1,memory-2step-stake-s,618,3701655,0.0-19.0-0.0-0.78,A2EGOCAO0VL2S8,31KPKEKW5DTYWQJ2Z73D1GA4ZNDB00,3R08VXYT7GB7ONFR5ZPKSTTZBEDW7A,3,4
79,4,object_10,object_08,1234.999999986,8,2,871.00000004284,0.6666666666666666,2,object_07,5,1251,0,6,6,restaurant_3,1,memory-2step-stake-s,619,3710343,0.0-19.0-0.0-0.79,A2EGOCAO0VL2S8,31KPKEKW5DTYWQJ2Z73D1GA4ZNDB00,3R08VXYT7GB7ONFR5ZPKSTTZBEDW7A,7,8
80,4,object_10,object_08,586.99999994133,8,2,121.99999997392,0.4444444444444444,2,object_07,1,1255,0,8,4,restaurant_2,1,memory-2step-stake-s,620,3718085,0.0-19.0-0.0-0.80,A2EGOCAO0VL2S8,31KPKEKW5DTYWQJ2Z73D1GA4ZNDB00,3R08VXYT7GB7ONFR5ZPKSTTZBEDW7A,7,8
81,2,object_06,object_09,316.9999999227,4,1,863.00000001211,0.7777777777777778,2,object_07,1,1262,0,6,7,forest_4,1,memory-2step-stake-s,621,3726863,0.0-19.0-0.0-0.81,A2EGOCAO0VL2S8,31KPKEKW5DTYWQJ2Z73D1GA4ZNDB00,3R08VXYT7GB7ONFR5ZPKSTTZBEDW7A,4,3
82,4,object_10,object_08,918.99999999441,7,1,947.00000004377,0.7777777777777778,1,object_02,5,1297,0,7,6,restaurant_3,1,memory-2step-stake-s,622,3735749,0.0-19.0-0.0-0.82,A2EGOCAO0VL2S8,31KPKEKW5DTYWQJ2Z73D1GA4ZNDB00,3R08VXYT7GB7ONFR5ZPKSTTZBEDW7A,7,8
83,1,object_04,object_01,555.00000005122,2,2,530.99999995902,0.8888888888888888,2,object_07,5,1337,0,8,8,desert_2,1,memory-2step-stake-s,623,3744307,0.0-19.0-0.0-0.83,A2EGOCAO0VL2S8,31KPKEKW5DTYWQJ2Z73D1GA4ZNDB00,3R08VXYT7GB7ONFR5ZPKSTTZBEDW7A,1,2
84,2,object_06,object_09,787.99999994226,3,2,711.00000001024,0.8888888888888888,1,object_02,5,1377,0,8,5,forest_4,1,memory-2step-stake-s,624,3753033,0.0-19.0-0.0-0.84,A2EGOCAO0VL2S8,31KPKEKW5DTYWQJ2Z73D1GA4ZNDB00,3R08VXYT7GB7ONFR5ZPKSTTZBEDW7A,4,3
85,1,object_01,object_04,935.00000005588,2,1,837.00000005774,0.6666666666666666,2,object_07,1,1383,0,8,6,desert_1,1,memory-2step-stake-s,625,3761685,0.0-19.0-0.0-0.85,A2EGOCAO0VL2S8,31KPKEKW5DTYWQJ2Z73D1GA4ZNDB00,3R08VXYT7GB7ONFR5ZPKSTTZBEDW7A,2,1
86,1,object_01,object_04,756.00000005215,1,2,586.00000001024,0.5555555555555556,1,object_02,1,1388,0,5,9,desert_2,1,memory-2step-stake-s,626,3769983,0.0-19.0-0.0-0.86,A2EGOCAO0VL2S8,31KPKEKW5DTYWQJ2Z73D1GA4ZNDB00,3R08VXYT7GB7ONFR5ZPKSTTZBEDW7A,2,1
87,3,object_03,object_05,781.00000007544,6,2,883.99999996182,1.0,2,object_07,5,1433,0,4,9,library_8,1,memory-2step-stake-s,627,3778984,0.0-19.0-0.0-0.87,A2EGOCAO0VL2S8,31KPKEKW5DTYWQJ2Z73D1GA4ZNDB00,3R08VXYT7GB7ONFR5ZPKSTTZBEDW7A,5,6
88,2,object_06,object_09,829.00000002701,4,1,778.99999998044,0.7777777777777778,2,object_07,1,1440,0,6,7,forest_5,1,memory-2step-stake-s,628,3787677,0.0-19.0-0.0-0.88,A2EGOCAO0VL2S8,31KPKEKW5DTYWQJ2Z73D1GA4ZNDB00,3R08VXYT7GB7ONFR5ZPKSTTZBEDW7A,4,3
89,2,object_09,object_06,733.00000000745,4,2,778.99999998044,0.8888888888888888,2,object_07,1,1448,0,9,8,forest_3,1,memory-2step-stake-s,629,3796531,0.0-19.0-0.0-0.89,A2EGOCAO0VL2S8,31KPKEKW5DTYWQJ2Z73D1GA4ZNDB00,3R08VXYT7GB7ONFR5ZPKSTTZBEDW7A,3,4
90,4,object_10,object_08,798.00000006799,7,1,891.00000006147,0.6666666666666666,1,object_02,5,1478,0,6,9,restaurant_3,1,memory-2step-stake-s,630,3805245,0.0-19.0-0.0-0.90,A2EGOCAO0VL2S8,31KPKEKW5DTYWQJ2Z73D1GA4ZNDB00,3R08VXYT7GB7ONFR5ZPKSTTZBEDW7A,7,8
91,3,object_03,object_05,785.99999996368,6,2,565.00000006054,1.0,2,object_07,5,1523,0,6,9,library_8,1,memory-2step-stake-s,631,3813929,0.0-19.0-0.0-0.91,A2EGOCAO0VL2S8,31KPKEKW5DTYWQJ2Z73D1GA4ZNDB00,3R08VXYT7GB7ONFR5ZPKSTTZBEDW7A,5,6
92,1,object_01,object_04,790.99999996834,2,1,489.99999999069,1.0,2,object_07,1,1532,0,8,9,desert_2,1,memory-2step-stake-s,632,3822554,0.0-19.0-0.0-0.92,A2EGOCAO0VL2S8,31KPKEKW5DTYWQJ2Z73D1GA4ZNDB00,3R08VXYT7GB7ONFR5ZPKSTTZBEDW7A,2,1
93,3,object_05,object_03,709.99999996275,5,2,273.99999997579,1.0,1,object_02,1,1541,0,9,8,library_5,1,memory-2step-stake-s,633,3830954,0.0-19.0-0.0-0.93,A2EGOCAO0VL2S8,31KPKEKW5DTYWQJ2Z73D1GA4ZNDB00,3R08VXYT7GB7ONFR5ZPKSTTZBEDW7A,6,5
94,3,object_05,object_03,631.99999998324,5,2,1020.9999999497,0.8888888888888888,1,object_02,1,1549,0,8,7,library_5,1,memory-2step-stake-s,634,3840030,0.0-19.0-0.0-0.94,A2EGOCAO0VL2S8,31KPKEKW5DTYWQJ2Z73D1GA4ZNDB00,3R08VXYT7GB7ONFR5ZPKSTTZBEDW7A,6,5
95,3,object_03,object_05,586.00000001024,6,2,260.00000000931,0.6666666666666666,2,object_07,5,1579,0,7,6,library_7,1,memory-2step-stake-s,635,3848110,0.0-19.0-0.0-0.95,A2EGOCAO0VL2S8,31KPKEKW5DTYWQJ2Z73D1GA4ZNDB00,3R08VXYT7GB7ONFR5ZPKSTTZBEDW7A,5,6
96,4,object_10,object_08,795.00000004191,7,1,149.99999990687,0.7777777777777778,1,object_02,5,1614,0,7,7,restaurant_3,1,memory-2step-stake-s,636,3856316,0.0-19.0-0.0-0.96,A2EGOCAO0VL2S8,31KPKEKW5DTYWQJ2Z73D1GA4ZNDB00,3R08VXYT7GB7ONFR5ZPKSTTZBEDW7A,7,8
97,3,object_03,object_05,764.00000008289,6,2,826.00000000093,0.4444444444444444,2,object_07,5,1634,0,7,4,library_3,1,memory-2step-stake-s,637,3864762,0.0-19.0-0.0-0.97,A2EGOCAO0VL2S8,31KPKEKW5DTYWQJ2Z73D1GA4ZNDB00,3R08VXYT7GB7ONFR5ZPKSTTZBEDW7A,5,6
98,3,object_05,object_03,1382.9999999143,6,1,204.99999995809,0.7777777777777778,2,object_07,5,1669,0,6,7,library_7,1,memory-2step-stake-s,638,3872876,0.0-19.0-0.0-0.98,A2EGOCAO0VL2S8,31KPKEKW5DTYWQJ2Z73D1GA4ZNDB00,3R08VXYT7GB7ONFR5ZPKSTTZBEDW7A,6,5
99,4,object_10,object_08,659.99999991618,8,2,181.99999991339,0.8888888888888888,2,object_07,5,1709,0,6,8,restaurant_4,1,memory-2step-stake-s,639,3881076,0.0-19.0-0.0-0.99,A2EGOCAO0VL2S8,31KPKEKW5DTYWQJ2Z73D1GA4ZNDB00,3R08VXYT7GB7ONFR5ZPKSTTZBEDW7A,7,8
100,2,object_09,object_06,814.00000001304,4,2,756.00000005215,0.7777777777777778,2,object_07,1,1716,0,7,7,forest_3,1,memory-2step-stake-s,640,3889747,0.0-19.0-0.0-0.100,A2EGOCAO0VL2S8,31KPKEKW5DTYWQJ2Z73D1GA4ZNDB00,3R08VXYT7GB7ONFR5ZPKSTTZBEDW7A,3,4
101,4,object_08,object_10,670.99999997299,8,1,167.99999994691,0.4444444444444444,2,object_07,5,1736,0,6,4,restaurant_1,1,memory-2step-stake-s,641,3897529,0.0-19.0-0.0-0.101,A2EGOCAO0VL2S8,31KPKEKW5DTYWQJ2Z73D1GA4ZNDB00,3R08VXYT7GB7ONFR5ZPKSTTZBEDW7A,8,7
102,2,object_09,object_06,798.99999999907,4,2,937.00000003446,0.3333333333333333,2,object_07,1,1739,0,5,3,forest_4,1,memory-2step-stake-s,642,3905984,0.0-19.0-0.0-0.102,A2EGOCAO0VL2S8,31KPKEKW5DTYWQJ2Z73D1GA4ZNDB00,3R08VXYT7GB7ONFR5ZPKSTTZBEDW7A,3,4
103,1,object_01,object_04,730.00000009779,1,2,760.00000000931,0.6666666666666666,1,object_02,1,1745,0,6,7,desert_6,1,memory-2step-stake-s,643,3914618,0.0-19.0-0.0-0.103,A2EGOCAO0VL2S8,31KPKEKW5DTYWQJ2Z73D1GA4ZNDB00,3R08VXYT7GB7ONFR5ZPKSTTZBEDW7A,2,1
104,1,object_01,object_04,623.9999999525,2,1,731.00000002887,0.7777777777777778,2,object_07,1,1752,0,9,7,desert_6,1,memory-2step-stake-s,644,3923263,0.0-19.0-0.0-0.104,A2EGOCAO0VL2S8,31KPKEKW5DTYWQJ2Z73D1GA4ZNDB00,3R08VXYT7GB7ONFR5ZPKSTTZBEDW7A,2,1
105,1,object_04,object_01,594.99999997206,2,2,575.00000006985,0.8888888888888888,2,object_07,1,1760,0,8,8,desert_6,1,memory-2step-stake-s,645,3931855,0.0-19.0-0.0-0.105,A2EGOCAO0VL2S8,31KPKEKW5DTYWQJ2Z73D1GA4ZNDB00,3R08VXYT7GB7ONFR5ZPKSTTZBEDW7A,1,2
106,4,object_08,object_10,738.99999994319,7,2,663.99999998976,1.0,1,object_02,5,1805,0,9,7,restaurant_1,1,memory-2step-stake-s,646,3940650,0.0-19.0-0.0-0.106,A2EGOCAO0VL2S8,31KPKEKW5DTYWQJ2Z73D1GA4ZNDB00,3R08VXYT7GB7ONFR5ZPKSTTZBEDW7A,8,7
107,4,object_08,object_10,934.00000000838,7,2,529.99999991152,0.7777777777777778,1,object_02,5,1840,0,7,8,restaurant_2,1,memory-2step-stake-s,647,3949097,0.0-19.0-0.0-0.107,A2EGOCAO0VL2S8,31KPKEKW5DTYWQJ2Z73D1GA4ZNDB00,3R08VXYT7GB7ONFR5ZPKSTTZBEDW7A,8,7
108,1,object_01,object_04,592.0000000624,2,1,565.00000006054,0.7777777777777778,2,object_07,1,1847,0,7,7,desert_2,1,memory-2step-stake-s,648,3957573,0.0-19.0-0.0-0.108,A2EGOCAO0VL2S8,31KPKEKW5DTYWQJ2Z73D1GA4ZNDB00,3R08VXYT7GB7ONFR5ZPKSTTZBEDW7A,2,1
109,3,object_03,object_05,644.99999990221,6,2,1.0000000474975,0.6666666666666666,2,object_07,1,1853,0,8,6,library_3,1,memory-2step-stake-s,649,3965386,0.0-19.0-0.0-0.109,A2EGOCAO0VL2S8,31KPKEKW5DTYWQJ2Z73D1GA4ZNDB00,3R08VXYT7GB7ONFR5ZPKSTTZBEDW7A,5,6
110,2,object_06,object_09,543.00000006333,3,2,322.00000004377,0.8888888888888888,1,object_02,1,1861,0,8,7,forest_6,1,memory-2step-stake-s,650,3973723,0.0-19.0-0.0-0.110,A2EGOCAO0VL2S8,31KPKEKW5DTYWQJ2Z73D1GA4ZNDB00,3R08VXYT7GB7ONFR5ZPKSTTZBEDW7A,4,3
111,2,object_06,object_09,567.00000003912,3,2,229.00000005029,0.7777777777777778,1,object_02,1,1868,0,7,8,forest_3,1,memory-2step-stake-s,651,3981864,0.0-19.0-0.0-0.111,A2EGOCAO0VL2S8,31KPKEKW5DTYWQJ2Z73D1GA4ZNDB00,3R08VXYT7GB7ONFR5ZPKSTTZBEDW7A,4,3
112,1,object_04,object_01,642.00000010896,1,1,780.99999995902,0.4444444444444444,1,object_02,1,1872,0,4,9,desert_2,1,memory-2step-stake-s,652,3990263,0.0-19.0-0.0-0.112,A2EGOCAO0VL2S8,31KPKEKW5DTYWQJ2Z73D1GA4ZNDB00,3R08VXYT7GB7ONFR5ZPKSTTZBEDW7A,1,2
113,4,object_10,object_08,787.00000001118,7,1,133.99999996182,0.7777777777777778,1,object_02,5,1907,0,7,5,restaurant_3,1,memory-2step-stake-s,653,3998369,0.0-19.0-0.0-0.113,A2EGOCAO0VL2S8,31KPKEKW5DTYWQJ2Z73D1GA4ZNDB00,3R08VXYT7GB7ONFR5ZPKSTTZBEDW7A,7,8
114,2,object_06,object_09,664.99999992084,3,2,103.00000000279,0.8888888888888888,1,object_02,1,1915,0,8,4,forest_6,1,memory-2step-stake-s,654,4006529,0.0-19.0-0.0-0.114,A2EGOCAO0VL2S8,31KPKEKW5DTYWQJ2Z73D1GA4ZNDB00,3R08VXYT7GB7ONFR5ZPKSTTZBEDW7A,4,3
115,3,object_03,object_05,761.99999998789,5,1,121.00000004284,0.7777777777777778,1,object_02,5,1950,0,7,3,library_5,1,memory-2step-stake-s,655,4014567,0.0-19.0-0.0-0.115,A2EGOCAO0VL2S8,31KPKEKW5DTYWQJ2Z73D1GA4ZNDB00,3R08VXYT7GB7ONFR5ZPKSTTZBEDW7A,5,6
116,3,object_05,object_03,698.99999990594,5,2,484.99999998603,0.8888888888888888,1,object_02,1,1958,0,8,2,library_7,1,memory-2step-stake-s,656,4023067,0.0-19.0-0.0-0.116,A2EGOCAO0VL2S8,31KPKEKW5DTYWQJ2Z73D1GA4ZNDB00,3R08VXYT7GB7ONFR5ZPKSTTZBEDW7A,6,5
117,4,object_08,object_10,606.99999995995,8,1,297.99999995157,0.2222222222222222,2,object_07,5,1968,0,9,2,restaurant_2,1,memory-2step-stake-s,657,4030778,0.0-19.0-0.0-0.117,A2EGOCAO0VL2S8,31KPKEKW5DTYWQJ2Z73D1GA4ZNDB00,3R08VXYT7GB7ONFR5ZPKSTTZBEDW7A,8,7
118,3,object_03,object_05,738.99999994319,5,1,135.9999999404,0.6666666666666666,1,object_02,5,1998,0,6,0,library_3,1,memory-2step-stake-s,658,4038741,0.0-19.0-0.0-0.118,A2EGOCAO0VL2S8,31KPKEKW5DTYWQJ2Z73D1GA4ZNDB00,3R08VXYT7GB7ONFR5ZPKSTTZBEDW7A,5,6
119,3,object_03,object_05,702.00000004843,5,1,374.00000006892,0.3333333333333333,1,object_02,5,2013,0,3,2,library_3,1,memory-2step-stake-s,659,4046636,0.0-19.0-0.0-0.119,A2EGOCAO0VL2S8,31KPKEKW5DTYWQJ2Z73D1GA4ZNDB00,3R08VXYT7GB7ONFR5ZPKSTTZBEDW7A,5,6
120,4,object_10,object_08,695.00000006519,8,2,192.9999999702,0.0,2,object_07,5,2013,0,3,0,restaurant_1,1,memory-2step-stake-s,660,4054042,0.0-19.0-0.0-0.120,A2EGOCAO0VL2S8,31KPKEKW5DTYWQJ2Z73D1GA4ZNDB00,3R08VXYT7GB7ONFR5ZPKSTTZBEDW7A,7,8
121,1,object_01,object_04,719.99999997206,2,1,127.00000009499,0.3333333333333333,2,object_07,1,2016,0,4,3,desert_5,1,memory-2step-stake-s,661,4061730,0.0-19.0-0.0-0.121,A2EGOCAO0VL2S8,31KPKEKW5DTYWQJ2Z73D1GA4ZNDB00,3R08VXYT7GB7ONFR5ZPKSTTZBEDW7A,2,1
122,4,object_08,object_10,780.99999995902,8,1,7.0000000996515,0.4444444444444444,2,object_07,5,2036,0,4,4,restaurant_3,1,memory-2step-stake-s,662,4069355,0.0-19.0-0.0-0.122,A2EGOCAO0VL2S8,31KPKEKW5DTYWQJ2Z73D1GA4ZNDB00,3R08VXYT7GB7ONFR5ZPKSTTZBEDW7A,8,7
123,3,object_05,object_03,793.99999999441,5,2,251.99999997858,0.1111111111111111,1,object_02,5,2041,0,1,5,library_5,1,memory-2step-stake-s,663,4076917,0.0-19.0-0.0-0.123,A2EGOCAO0VL2S8,31KPKEKW5DTYWQJ2Z73D1GA4ZNDB00,3R08VXYT7GB7ONFR5ZPKSTTZBEDW7A,6,5
124,3,object_03,object_05,895.99999994971,6,2,68.000000086613,0.8888888888888888,2,object_07,5,2081,0,2,8,library_5,1,memory-2step-stake-s,664,4084998,0.0-19.0-0.0-0.124,A2EGOCAO0VL2S8,31KPKEKW5DTYWQJ2Z73D1GA4ZNDB00,3R08VXYT7GB7ONFR5ZPKSTTZBEDW7A,5,6
125,2,object_06,object_09,-1.0,-1,-1,-1.0,0.0,-,0,1,2081,0,4,4,forest_5,1,memory-2step-stake-s,665,4091501,0.0-19.0-0.0-0.125,A2EGOCAO0VL2S8,31KPKEKW5DTYWQJ2Z73D1GA4ZNDB00,3R08VXYT7GB7ONFR5ZPKSTTZBEDW7A,4,3
126,3,object_05,object_03,782.9999999376,5,2,240.99999992177,0.4444444444444444,1,object_02,5,2101,0,4,5,library_8,1,memory-2step-stake-s,666,4099356,0.0-19.0-0.0-0.126,A2EGOCAO0VL2S8,31KPKEKW5DTYWQJ2Z73D1GA4ZNDB00,3R08VXYT7GB7ONFR5ZPKSTTZBEDW7A,6,5
127,2,object_06,object_09,738.00000001211,3,2,165.00000003725,0.6666666666666666,1,object_02,1,2107,0,6,2,forest_4,1,memory-2step-stake-s,667,4107330,0.0-19.0-0.0-0.127,A2EGOCAO0VL2S8,31KPKEKW5DTYWQJ2Z73D1GA4ZNDB00,3R08VXYT7GB7ONFR5ZPKSTTZBEDW7A,4,3
128,4,object_08,object_10,800.00000004657,7,2,667.00000001583,0.6666666666666666,1,object_02,5,2137,0,6,1,restaurant_4,1,memory-2step-stake-s,669,4195168,0.0-19.0-0.1-0.128,A2EGOCAO0VL2S8,31KPKEKW5DTYWQJ2Z73D1GA4ZNDB00,3R08VXYT7GB7ONFR5ZPKSTTZBEDW7A,8,7
129,4,object_10,object_08,719.99999997206,8,2,108.99999993853,0.0,2,object_07,1,2137,0,1,0,restaurant_3,1,memory-2step-stake-s,670,4202484,0.0-19.0-0.1-0.129,A2EGOCAO0VL2S8,31KPKEKW5DTYWQJ2Z73D1GA4ZNDB00,3R08VXYT7GB7ONFR5ZPKSTTZBEDW7A,7,8
130,1,object_01,object_04,562.00000003446,2,1,117.00000008568,0.0,2,object_07,1,2137,0,1,0,desert_1,1,memory-2step-stake-s,671,4209812,0.0-19.0-0.1-0.130,A2EGOCAO0VL2S8,31KPKEKW5DTYWQJ2Z73D1GA4ZNDB00,3R08VXYT7GB7ONFR5ZPKSTTZBEDW7A,2,1
131,4,object_08,object_10,586.00000001024,7,2,542.99999994691,0.5555555555555556,1,object_02,5,2162,0,5,2,restaurant_4,1,memory-2step-stake-s,672,4218069,0.0-19.0-0.1-0.131,A2EGOCAO0VL2S8,31KPKEKW5DTYWQJ2Z73D1GA4ZNDB00,3R08VXYT7GB7ONFR5ZPKSTTZBEDW7A,8,7
132,2,object_09,object_06,945.99999999627,4,2,636.00000005681,0.0,2,object_07,5,2162,0,7,0,forest_4,1,memory-2step-stake-s,673,4225936,0.0-19.0-0.1-0.132,A2EGOCAO0VL2S8,31KPKEKW5DTYWQJ2Z73D1GA4ZNDB00,3R08VXYT7GB7ONFR5ZPKSTTZBEDW7A,3,4
133,3,object_03,object_05,1169.9999999255,6,2,76.000000000931,0.1111111111111111,2,object_07,5,2167,0,6,1,library_3,1,memory-2step-stake-s,674,4233328,0.0-19.0-0.1-0.133,A2EGOCAO0VL2S8,31KPKEKW5DTYWQJ2Z73D1GA4ZNDB00,3R08VXYT7GB7ONFR5ZPKSTTZBEDW7A,5,6
134,2,object_09,object_06,847.00000006706,4,2,734.99999998603,0.7777777777777778,2,object_07,1,2174,0,6,7,forest_5,1,memory-2step-stake-s,675,4242018,0.0-19.0-0.1-0.134,A2EGOCAO0VL2S8,31KPKEKW5DTYWQJ2Z73D1GA4ZNDB00,3R08VXYT7GB7ONFR5ZPKSTTZBEDW7A,3,4
135,4,object_08,object_10,801.99999990873,7,2,52.000000025146,0.7777777777777778,1,object_02,5,2209,0,7,8,restaurant_1,1,memory-2step-stake-s,676,4249988,0.0-19.0-0.1-0.135,A2EGOCAO0VL2S8,31KPKEKW5DTYWQJ2Z73D1GA4ZNDB00,3R08VXYT7GB7ONFR5ZPKSTTZBEDW7A,8,7
136,1,object_04,object_01,775.00000002328,2,2,19.000000087544,1.0,2,object_07,5,2254,0,9,9,desert_1,1,memory-2step-stake-s,677,4258229,0.0-19.0-0.1-0.136,A2EGOCAO0VL2S8,31KPKEKW5DTYWQJ2Z73D1GA4ZNDB00,3R08VXYT7GB7ONFR5ZPKSTTZBEDW7A,1,2
137,4,object_10,object_08,649.0000000922,8,2,118.00000001676,0.5555555555555556,2,object_07,1,2259,0,8,5,restaurant_2,1,memory-2step-stake-s,678,4266078,0.0-19.0-0.1-0.137,A2EGOCAO0VL2S8,31KPKEKW5DTYWQJ2Z73D1GA4ZNDB00,3R08VXYT7GB7ONFR5ZPKSTTZBEDW7A,7,8
138,3,object_05,object_03,618.00000001676,6,1,64.000000013039,0.5555555555555556,2,object_07,5,2284,0,7,5,library_3,1,memory-2step-stake-s,679,4273848,0.0-19.0-0.1-0.138,A2EGOCAO0VL2S8,31KPKEKW5DTYWQJ2Z73D1GA4ZNDB00,3R08VXYT7GB7ONFR5ZPKSTTZBEDW7A,6,5
139,4,object_08,object_10,741.00000003818,8,1,74.999999953434,0.3333333333333333,2,object_07,5,2299,0,6,3,restaurant_4,1,memory-2step-stake-s,680,4281500,0.0-19.0-0.1-0.139,A2EGOCAO0VL2S8,31KPKEKW5DTYWQJ2Z73D1GA4ZNDB00,3R08VXYT7GB7ONFR5ZPKSTTZBEDW7A,8,7
140,2,object_06,object_09,656.00000007544,3,2,13.999999966472,0.7777777777777778,1,object_02,1,2306,0,7,2,forest_3,1,memory-2step-stake-s,681,4289437,0.0-19.0-0.1-0.140,A2EGOCAO0VL2S8,31KPKEKW5DTYWQJ2Z73D1GA4ZNDB00,3R08VXYT7GB7ONFR5ZPKSTTZBEDW7A,4,3
141,4,object_08,object_10,626.0000000475,8,1,67.000000039116,0.4444444444444444,2,object_07,1,2310,0,8,4,restaurant_1,1,memory-2step-stake-s,682,4297119,0.0-19.0-0.1-0.141,A2EGOCAO0VL2S8,31KPKEKW5DTYWQJ2Z73D1GA4ZNDB00,3R08VXYT7GB7ONFR5ZPKSTTZBEDW7A,8,7
142,1,object_04,object_01,587.00000005774,2,2,126.99999997858,0.3333333333333333,2,object_07,1,2313,0,8,3,desert_1,1,memory-2step-stake-s,683,4304752,0.0-19.0-0.1-0.142,A2EGOCAO0VL2S8,31KPKEKW5DTYWQJ2Z73D1GA4ZNDB00,3R08VXYT7GB7ONFR5ZPKSTTZBEDW7A,1,2
143,2,object_09,object_06,626.0000000475,3,1,6.0000000521541,0.7777777777777778,1,object_02,1,2320,0,7,4,forest_5,1,memory-2step-stake-s,684,4312671,0.0-19.0-0.1-0.143,A2EGOCAO0VL2S8,31KPKEKW5DTYWQJ2Z73D1GA4ZNDB00,3R08VXYT7GB7ONFR5ZPKSTTZBEDW7A,3,4
144,3,object_03,object_05,658.9999999851,6,2,500.99999993108,0.8888888888888888,2,object_07,1,2328,0,5,8,library_5,1,memory-2step-stake-s,685,4321187,0.0-19.0-0.1-0.144,A2EGOCAO0VL2S8,31KPKEKW5DTYWQJ2Z73D1GA4ZNDB00,3R08VXYT7GB7ONFR5ZPKSTTZBEDW7A,5,6
145,4,object_08,object_10,694.0000000177,7,2,171.00000008941,0.2222222222222222,1,object_02,1,2330,0,2,7,restaurant_2,1,memory-2step-stake-s,686,4328765,0.0-19.0-0.1-0.145,A2EGOCAO0VL2S8,31KPKEKW5DTYWQJ2Z73D1GA4ZNDB00,3R08VXYT7GB7ONFR5ZPKSTTZBEDW7A,8,7
146,4,object_10,object_08,732.00000007637,7,1,153.99999998044,0.0,1,object_02,5,2330,0,0,8,restaurant_2,1,memory-2step-stake-s,687,4336125,0.0-19.0-0.1-0.146,A2EGOCAO0VL2S8,31KPKEKW5DTYWQJ2Z73D1GA4ZNDB00,3R08VXYT7GB7ONFR5ZPKSTTZBEDW7A,7,8
147,3,object_05,object_03,634.00000007823,5,2,37.999999942258,0.1111111111111111,1,object_02,5,2335,0,1,8,library_3,1,memory-2step-stake-s,688,4343473,0.0-19.0-0.1-0.147,A2EGOCAO0VL2S8,31KPKEKW5DTYWQJ2Z73D1GA4ZNDB00,3R08VXYT7GB7ONFR5ZPKSTTZBEDW7A,6,5
148,2,object_06,object_09,750.0,4,1,111.99999996461,0.8888888888888888,2,object_07,1,2343,0,2,8,forest_6,1,memory-2step-stake-s,689,4351600,0.0-19.0-0.1-0.148,A2EGOCAO0VL2S8,31KPKEKW5DTYWQJ2Z73D1GA4ZNDB00,3R08VXYT7GB7ONFR5ZPKSTTZBEDW7A,4,3
149,4,object_10,object_08,927.00000002515,7,1,76.000000000931,0.3333333333333333,1,object_02,5,2358,0,3,8,restaurant_4,1,memory-2step-stake-s,690,4359185,0.0-19.0-0.1-0.149,A2EGOCAO0VL2S8,31KPKEKW5DTYWQJ2Z73D1GA4ZNDB00,3R08VXYT7GB7ONFR5ZPKSTTZBEDW7A,7,8
150,3,object_03,object_05,656.9999998901,6,2,131.99999998324,0.6666666666666666,2,object_07,5,2388,0,3,6,library_3,1,memory-2step-stake-s,691,4367124,0.0-19.0-0.1-0.150,A2EGOCAO0VL2S8,31KPKEKW5DTYWQJ2Z73D1GA4ZNDB00,3R08VXYT7GB7ONFR5ZPKSTTZBEDW7A,5,6
151,3,object_03,object_05,797.00000002049,6,2,130.00000000466,0.4444444444444444,2,object_07,5,2408,0,3,4,library_7,1,memory-2step-stake-s,692,4374869,0.0-19.0-0.1-0.151,A2EGOCAO0VL2S8,31KPKEKW5DTYWQJ2Z73D1GA4ZNDB00,3R08VXYT7GB7ONFR5ZPKSTTZBEDW7A,5,6
152,1,object_04,object_01,619.99999999534,1,1,79.000000027008,0.6666666666666666,1,object_02,1,2414,0,6,2,desert_6,1,memory-2step-stake-s,693,4382760,0.0-19.0-0.1-0.152,A2EGOCAO0VL2S8,31KPKEKW5DTYWQJ2Z73D1GA4ZNDB00,3R08VXYT7GB7ONFR5ZPKSTTZBEDW7A,1,2
153,4,object_08,object_10,680.9999999823,7,2,261.99999998789,0.4444444444444444,1,object_02,5,2434,0,4,1,restaurant_1,1,memory-2step-stake-s,694,4390711,0.0-19.0-0.1-0.153,A2EGOCAO0VL2S8,31KPKEKW5DTYWQJ2Z73D1GA4ZNDB00,3R08VXYT7GB7ONFR5ZPKSTTZBEDW7A,8,7
154,4,object_10,object_08,859.00000005495,7,1,680.00000005122,0.3333333333333333,1,object_02,5,2449,0,3,0,restaurant_4,1,memory-2step-stake-s,695,4398901,0.0-19.0-0.1-0.154,A2EGOCAO0VL2S8,31KPKEKW5DTYWQJ2Z73D1GA4ZNDB00,3R08VXYT7GB7ONFR5ZPKSTTZBEDW7A,7,8
155,1,object_01,object_04,844.00000004098,1,2,826.00000000093,0.0,1,object_02,1,2449,0,0,2,desert_1,1,memory-2step-stake-s,696,4406932,0.0-19.0-0.1-0.155,A2EGOCAO0VL2S8,31KPKEKW5DTYWQJ2Z73D1GA4ZNDB00,3R08VXYT7GB7ONFR5ZPKSTTZBEDW7A,2,1
156,4,object_08,object_10,748.00000002142,7,2,64.000000013039,0.6666666666666666,1,object_02,5,2479,0,6,2,restaurant_1,1,memory-2step-stake-s,697,4414811,0.0-19.0-0.1-0.156,A2EGOCAO0VL2S8,31KPKEKW5DTYWQJ2Z73D1GA4ZNDB00,3R08VXYT7GB7ONFR5ZPKSTTZBEDW7A,8,7
157,4,object_08,object_10,812.00000003446,7,2,136.00000005681,0.6666666666666666,1,object_02,5,2509,0,6,0,restaurant_4,1,memory-2step-stake-s,698,4422760,0.0-19.0-0.1-0.157,A2EGOCAO0VL2S8,31KPKEKW5DTYWQJ2Z73D1GA4ZNDB00,3R08VXYT7GB7ONFR5ZPKSTTZBEDW7A,8,7
158,1,object_04,object_01,1015.000000014,2,2,108.00000000745,0.4444444444444444,2,object_07,1,2513,0,7,4,desert_2,1,memory-2step-stake-s,699,4430478,0.0-19.0-0.1-0.158,A2EGOCAO0VL2S8,31KPKEKW5DTYWQJ2Z73D1GA4ZNDB00,3R08VXYT7GB7ONFR5ZPKSTTZBEDW7A,1,2
159,1,object_04,object_01,786.99999989476,2,2,107.00000007637,0.2222222222222222,2,object_07,1,2515,0,8,2,desert_5,1,memory-2step-stake-s,700,4438005,0.0-19.0-0.1-0.159,A2EGOCAO0VL2S8,31KPKEKW5DTYWQJ2Z73D1GA4ZNDB00,3R08VXYT7GB7ONFR5ZPKSTTZBEDW7A,1,2
160,1,object_04,object_01,391.99999999255,2,2,98.999999929219,0.1111111111111111,2,object_07,1,2516,0,7,1,desert_1,1,memory-2step-stake-s,701,4445420,0.0-19.0-0.1-0.160,A2EGOCAO0VL2S8,31KPKEKW5DTYWQJ2Z73D1GA4ZNDB00,3R08VXYT7GB7ONFR5ZPKSTTZBEDW7A,1,2
161,4,object_08,object_10,614.99999999069,8,1,154.00000009686,0.3333333333333333,2,object_07,5,2531,0,9,3,restaurant_2,1,memory-2step-stake-s,702,4453086,0.0-19.0-0.1-0.161,A2EGOCAO0VL2S8,31KPKEKW5DTYWQJ2Z73D1GA4ZNDB00,3R08VXYT7GB7ONFR5ZPKSTTZBEDW7A,8,7
162,3,object_03,object_05,675.00000004657,6,2,28.999999980442,0.4444444444444444,2,object_07,5,2551,0,9,4,library_3,1,memory-2step-stake-s,703,4460728,0.0-19.0-0.1-0.162,A2EGOCAO0VL2S8,31KPKEKW5DTYWQJ2Z73D1GA4ZNDB00,3R08VXYT7GB7ONFR5ZPKSTTZBEDW7A,5,6
163,1,object_04,object_01,819.0000000177,2,2,937.00000003446,0.6666666666666666,2,object_07,5,2581,0,7,6,desert_1,1,memory-2step-stake-s,704,4469484,0.0-19.0-0.1-0.163,A2EGOCAO0VL2S8,31KPKEKW5DTYWQJ2Z73D1GA4ZNDB00,3R08VXYT7GB7ONFR5ZPKSTTZBEDW7A,1,2
164,2,object_09,object_06,614.0000000596,4,2,159.99999991618,0.5555555555555556,2,object_07,1,2586,0,8,5,forest_3,1,memory-2step-stake-s,705,4477358,0.0-19.0-0.1-0.164,A2EGOCAO0VL2S8,31KPKEKW5DTYWQJ2Z73D1GA4ZNDB00,3R08VXYT7GB7ONFR5ZPKSTTZBEDW7A,3,4
165,3,object_03,object_05,691.9999999227,6,2,135.00000000931,0.5555555555555556,2,object_07,1,2591,0,8,5,library_8,1,memory-2step-stake-s,706,4485206,0.0-19.0-0.1-0.165,A2EGOCAO0VL2S8,31KPKEKW5DTYWQJ2Z73D1GA4ZNDB00,3R08VXYT7GB7ONFR5ZPKSTTZBEDW7A,5,6
166,2,object_06,object_09,834.99999996275,3,2,119.00000006426,0.8888888888888888,1,object_02,1,2599,0,8,5,forest_3,1,memory-2step-stake-s,707,4493484,0.0-19.0-0.1-0.166,A2EGOCAO0VL2S8,31KPKEKW5DTYWQJ2Z73D1GA4ZNDB00,3R08VXYT7GB7ONFR5ZPKSTTZBEDW7A,4,3
167,4,object_10,object_08,589.9999999674,8,2,96.99999995064,0.4444444444444444,2,object_07,5,2619,0,7,4,restaurant_2,1,memory-2step-stake-s,708,4501224,0.0-19.0-0.1-0.167,A2EGOCAO0VL2S8,31KPKEKW5DTYWQJ2Z73D1GA4ZNDB00,3R08VXYT7GB7ONFR5ZPKSTTZBEDW7A,7,8
168,3,object_05,object_03,780.99999995902,6,1,159.00000010151,0.5555555555555556,2,object_07,5,2644,0,5,5,library_5,1,memory-2step-stake-s,709,4509196,0.0-19.0-0.1-0.168,A2EGOCAO0VL2S8,31KPKEKW5DTYWQJ2Z73D1GA4ZNDB00,3R08VXYT7GB7ONFR5ZPKSTTZBEDW7A,6,5
169,3,object_05,object_03,716.99999994598,6,1,135.00000000931,0.4444444444444444,2,object_07,5,2664,0,8,4,library_7,1,memory-2step-stake-s,710,4516946,0.0-19.0-0.1-0.169,A2EGOCAO0VL2S8,31KPKEKW5DTYWQJ2Z73D1GA4ZNDB00,3R08VXYT7GB7ONFR5ZPKSTTZBEDW7A,6,5
170,3,object_03,object_05,719.00000004098,6,2,170.99999997299,0.4444444444444444,2,object_07,5,2684,0,7,4,library_5,1,memory-2step-stake-s,711,4524728,0.0-19.0-0.1-0.170,A2EGOCAO0VL2S8,31KPKEKW5DTYWQJ2Z73D1GA4ZNDB00,3R08VXYT7GB7ONFR5ZPKSTTZBEDW7A,5,6
171,2,object_06,object_09,648.99999997579,4,1,106.99999995995,0.2222222222222222,2,object_07,1,2686,0,7,2,forest_6,1,memory-2step-stake-s,712,4532250,0.0-19.0-0.1-0.171,A2EGOCAO0VL2S8,31KPKEKW5DTYWQJ2Z73D1GA4ZNDB00,3R08VXYT7GB7ONFR5ZPKSTTZBEDW7A,4,3
172,1,object_01,object_04,592.99999999348,1,2,116.00000003818,0.6666666666666666,1,object_02,1,2692,0,6,1,desert_5,1,memory-2step-stake-s,713,4540180,0.0-19.0-0.1-0.172,A2EGOCAO0VL2S8,31KPKEKW5DTYWQJ2Z73D1GA4ZNDB00,3R08VXYT7GB7ONFR5ZPKSTTZBEDW7A,2,1
173,4,object_10,object_08,694.99999994878,7,1,385.9999999404,0.6666666666666666,1,object_02,5,2722,0,6,2,restaurant_4,1,memory-2step-stake-s,714,4548378,0.0-19.0-0.1-0.173,A2EGOCAO0VL2S8,31KPKEKW5DTYWQJ2Z73D1GA4ZNDB00,3R08VXYT7GB7ONFR5ZPKSTTZBEDW7A,7,8
174,2,object_09,object_06,616.99999996927,4,2,141.00000006147,0.3333333333333333,2,object_07,5,2737,0,9,3,forest_6,1,memory-2step-stake-s,715,4556032,0.0-19.0-0.1-0.174,A2EGOCAO0VL2S8,31KPKEKW5DTYWQJ2Z73D1GA4ZNDB00,3R08VXYT7GB7ONFR5ZPKSTTZBEDW7A,3,4
175,4,object_10,object_08,682.99999996088,8,2,45.00000004191,0.2222222222222222,2,object_07,5,2747,0,8,2,restaurant_2,1,memory-2step-stake-s,716,4563494,0.0-19.0-0.1-0.175,A2EGOCAO0VL2S8,31KPKEKW5DTYWQJ2Z73D1GA4ZNDB00,3R08VXYT7GB7ONFR5ZPKSTTZBEDW7A,7,8
176,1,object_01,object_04,654.00000009686,1,2,192.9999999702,0.7777777777777778,1,object_02,1,2754,0,7,2,desert_1,1,memory-2step-stake-s,717,4571605,0.0-19.0-0.1-0.176,A2EGOCAO0VL2S8,31KPKEKW5DTYWQJ2Z73D1GA4ZNDB00,3R08VXYT7GB7ONFR5ZPKSTTZBEDW7A,2,1
177,2,object_06,object_09,684.00000000838,3,2,79.99999995809,0.6666666666666666,1,object_02,1,2760,0,6,0,forest_4,1,memory-2step-stake-s,718,4579595,0.0-19.0-0.1-0.177,A2EGOCAO0VL2S8,31KPKEKW5DTYWQJ2Z73D1GA4ZNDB00,3R08VXYT7GB7ONFR5ZPKSTTZBEDW7A,4,3
178,2,object_09,object_06,687.00000003446,4,2,187.00000003446,0.1111111111111111,2,object_07,1,2761,0,6,1,forest_5,1,memory-2step-stake-s,719,4587091,0.0-19.0-0.1-0.178,A2EGOCAO0VL2S8,31KPKEKW5DTYWQJ2Z73D1GA4ZNDB00,3R08VXYT7GB7ONFR5ZPKSTTZBEDW7A,3,4
179,2,object_09,object_06,658.9999999851,4,2,10.999999940395,0.3333333333333333,2,object_07,1,2764,0,6,3,forest_6,1,memory-2step-stake-s,720,4594651,0.0-19.0-0.1-0.179,A2EGOCAO0VL2S8,31KPKEKW5DTYWQJ2Z73D1GA4ZNDB00,3R08VXYT7GB7ONFR5ZPKSTTZBEDW7A,3,4
180,4,object_08,object_10,670.99999997299,8,1,117.99999990035,0.3333333333333333,2,object_07,1,2767,0,5,3,restaurant_1,1,memory-2step-stake-s,721,4602316,0.0-19.0-0.1-0.180,A2EGOCAO0VL2S8,31KPKEKW5DTYWQJ2Z73D1GA4ZNDB00,3R08VXYT7GB7ONFR5ZPKSTTZBEDW7A,8,7
181,3,object_05,object_03,592.0000000624,5,2,84.999999962747,0.6666666666666666,1,object_02,5,2797,0,6,3,library_3,1,memory-2step-stake-s,722,4610239,0.0-19.0-0.1-0.181,A2EGOCAO0VL2S8,31KPKEKW5DTYWQJ2Z73D1GA4ZNDB00,3R08VXYT7GB7ONFR5ZPKSTTZBEDW7A,6,5
182,2,object_09,object_06,668.00000006333,4,2,48.000000067987,0.1111111111111111,2,object_07,1,2798,0,9,1,forest_6,1,memory-2step-stake-s,723,4617598,0.0-19.0-0.1-0.182,A2EGOCAO0VL2S8,31KPKEKW5DTYWQJ2Z73D1GA4ZNDB00,3R08VXYT7GB7ONFR5ZPKSTTZBEDW7A,3,4
183,3,object_03,object_05,703.00000009593,6,2,89.999999967404,0.1111111111111111,2,object_07,1,2799,0,7,1,library_7,1,memory-2step-stake-s,724,4625016,0.0-19.0-0.1-0.183,A2EGOCAO0VL2S8,31KPKEKW5DTYWQJ2Z73D1GA4ZNDB00,3R08VXYT7GB7ONFR5ZPKSTTZBEDW7A,5,6
184,3,object_05,object_03,743.00000001676,6,1,547.00000002049,0.2222222222222222,2,object_07,5,2809,0,7,2,library_8,1,memory-2step-stake-s,725,4633082,0.0-19.0-0.1-0.184,A2EGOCAO0VL2S8,31KPKEKW5DTYWQJ2Z73D1GA4ZNDB00,3R08VXYT7GB7ONFR5ZPKSTTZBEDW7A,6,5
185,3,object_03,object_05,913.99999998976,6,2,300.99999997765,0.2222222222222222,2,object_07,5,2819,0,7,2,library_8,1,memory-2step-stake-s,726,4640806,0.0-19.0-0.1-0.185,A2EGOCAO0VL2S8,31KPKEKW5DTYWQJ2Z73D1GA4ZNDB00,3R08VXYT7GB7ONFR5ZPKSTTZBEDW7A,5,6
186,4,object_08,object_10,780.99999995902,7,2,351.9999999553,0.5555555555555556,1,object_02,5,2844,0,5,3,restaurant_4,1,memory-2step-stake-s,727,4648876,0.0-19.0-0.1-0.186,A2EGOCAO0VL2S8,31KPKEKW5DTYWQJ2Z73D1GA4ZNDB00,3R08VXYT7GB7ONFR5ZPKSTTZBEDW7A,8,7
187,1,object_01,object_04,679.00000000373,1,2,106.99999995995,0.7777777777777778,1,object_02,1,2851,0,7,2,desert_1,1,memory-2step-stake-s,728,4656897,0.0-19.0-0.1-0.187,A2EGOCAO0VL2S8,31KPKEKW5DTYWQJ2Z73D1GA4ZNDB00,3R08VXYT7GB7ONFR5ZPKSTTZBEDW7A,2,1
188,1,object_04,object_01,657.00000000652,1,1,13.00000003539,0.6666666666666666,1,object_02,1,2857,0,6,1,desert_2,1,memory-2step-stake-s,729,4664726,0.0-19.0-0.1-0.188,A2EGOCAO0VL2S8,31KPKEKW5DTYWQJ2Z73D1GA4ZNDB00,3R08VXYT7GB7ONFR5ZPKSTTZBEDW7A,1,2
189,4,object_08,object_10,726.00000002421,8,1,10.000000009313,0.0,2,object_07,5,2857,0,7,0,restaurant_4,1,memory-2step-stake-s,730,4671944,0.0-19.0-0.1-0.189,A2EGOCAO0VL2S8,31KPKEKW5DTYWQJ2Z73D1GA4ZNDB00,3R08VXYT7GB7ONFR5ZPKSTTZBEDW7A,8,7
190,3,object_03,object_05,572.99999997485,6,2,70.999999996275,0.1111111111111111,2,object_07,5,2862,0,6,1,library_8,1,memory-2step-stake-s,731,4679330,0.0-19.0-0.1-0.190,A2EGOCAO0VL2S8,31KPKEKW5DTYWQJ2Z73D1GA4ZNDB00,3R08VXYT7GB7ONFR5ZPKSTTZBEDW7A,5,6
191,3,object_05,object_03,879.99999988824,6,1,98.999999929219,0.2222222222222222,2,object_07,5,2872,0,8,2,library_8,1,memory-2step-stake-s,732,4686844,0.0-19.0-0.1-0.191,A2EGOCAO0VL2S8,31KPKEKW5DTYWQJ2Z73D1GA4ZNDB00,3R08VXYT7GB7ONFR5ZPKSTTZBEDW7A,6,5
192,3,object_05,object_03,702.99999997951,5,2,114.0000000596,0.7777777777777778,1,object_02,5,2907,0,7,6,library_7,1,memory-2step-stake-s,733,4694886,0.0-19.0-0.1-0.192,A2EGOCAO0VL2S8,31KPKEKW5DTYWQJ2Z73D1GA4ZNDB00,3R08VXYT7GB7ONFR5ZPKSTTZBEDW7A,6,5
193,2,object_09,object_06,581.00000000559,3,1,145.00000001863,0.8888888888888888,1,object_02,1,2915,0,8,5,forest_6,1,memory-2step-stake-s,734,4703099,0.0-19.0-0.1-0.193,A2EGOCAO0VL2S8,31KPKEKW5DTYWQJ2Z73D1GA4ZNDB00,3R08VXYT7GB7ONFR5ZPKSTTZBEDW7A,3,4
194,1,object_04,object_01,-1.0,-1,-1,-1.0,0.0,-,0,1,2915,0,6,6,desert_5,1,memory-2step-stake-s,735,4709610,0.0-19.0-0.1-0.194,A2EGOCAO0VL2S8,31KPKEKW5DTYWQJ2Z73D1GA4ZNDB00,3R08VXYT7GB7ONFR5ZPKSTTZBEDW7A,1,2
195,2,object_06,object_09,561.99999991804,3,2,150.00000002328,0.4444444444444444,1,object_02,1,2919,0,4,7,forest_6,1,memory-2step-stake-s,736,4717381,0.0-19.0-0.1-0.195,A2EGOCAO0VL2S8,31KPKEKW5DTYWQJ2Z73D1GA4ZNDB00,3R08VXYT7GB7ONFR5ZPKSTTZBEDW7A,4,3
196,2,object_09,object_06,676.00000009406,4,2,118.99999994785,0.6666666666666666,2,object_07,1,2925,0,9,6,forest_5,1,memory-2step-stake-s,737,4725323,0.0-19.0-0.1-0.196,A2EGOCAO0VL2S8,31KPKEKW5DTYWQJ2Z73D1GA4ZNDB00,3R08VXYT7GB7ONFR5ZPKSTTZBEDW7A,3,4
197,3,object_03,object_05,785.0000000326,6,2,236.00000003353,0.5555555555555556,2,object_07,5,2950,0,7,5,library_3,1,memory-2step-stake-s,738,4733280,0.0-19.0-0.1-0.197,A2EGOCAO0VL2S8,31KPKEKW5DTYWQJ2Z73D1GA4ZNDB00,3R08VXYT7GB7ONFR5ZPKSTTZBEDW7A,5,6
198,1,object_04,object_01,750.0,2,2,152.99999993294,0.3333333333333333,2,object_07,5,2965,0,9,3,desert_2,1,memory-2step-stake-s,739,4740941,0.0-19.0-0.1-0.198,A2EGOCAO0VL2S8,31KPKEKW5DTYWQJ2Z73D1GA4ZNDB00,3R08VXYT7GB7ONFR5ZPKSTTZBEDW7A,1,2
199,3,object_03,object_05,795.99999997299,6,2,167.00000001583,0.3333333333333333,2,object_07,5,2980,0,7,3,library_8,1,memory-2step-stake-s,740,4748621,0.0-19.0-0.1-0.199,A2EGOCAO0VL2S8,31KPKEKW5DTYWQJ2Z73D1GA4ZNDB00,3R08VXYT7GB7ONFR5ZPKSTTZBEDW7A,5,6
200,4,object_10,object_08,736.99999996461,8,2,258.00000003073,0.3333333333333333,2,object_07,5,2995,0,6,3,restaurant_2,1,memory-2step-stake-s,741,4756392,0.0-19.0-0.1-0.200,A2EGOCAO0VL2S8,31KPKEKW5DTYWQJ2Z73D1GA4ZNDB00,3R08VXYT7GB7ONFR5ZPKSTTZBEDW7A,7,8
201,2,object_06,object_09,708.99999991525,3,2,28.00000004936,0.6666666666666666,1,object_02,1,3001,0,6,4,forest_4,1,memory-2step-stake-s,742,4764253,0.0-19.0-0.1-0.201,A2EGOCAO0VL2S8,31KPKEKW5DTYWQJ2Z73D1GA4ZNDB00,3R08VXYT7GB7ONFR5ZPKSTTZBEDW7A,4,3
202,2,object_06,object_09,839.00000003632,3,2,107.00000007637,0.4444444444444444,1,object_02,1,3005,0,4,6,forest_6,1,memory-2step-stake-s,743,4771981,0.0-19.0-0.1-0.202,A2EGOCAO0VL2S8,31KPKEKW5DTYWQJ2Z73D1GA4ZNDB00,3R08VXYT7GB7ONFR5ZPKSTTZBEDW7A,4,3
203,1,object_01,object_04,739.99999999069,1,2,25.000000023283,0.2222222222222222,1,object_02,1,3007,0,2,5,desert_2,1,memory-2step-stake-s,744,4779420,0.0-19.0-0.1-0.203,A2EGOCAO0VL2S8,31KPKEKW5DTYWQJ2Z73D1GA4ZNDB00,3R08VXYT7GB7ONFR5ZPKSTTZBEDW7A,2,1
204,1,object_04,object_01,728.00000000279,2,2,28.999999980442,0.5555555555555556,2,object_07,1,3012,0,1,5,desert_6,1,memory-2step-stake-s,745,4787170,0.0-19.0-0.1-0.204,A2EGOCAO0VL2S8,31KPKEKW5DTYWQJ2Z73D1GA4ZNDB00,3R08VXYT7GB7ONFR5ZPKSTTZBEDW7A,1,2
205,2,object_06,object_09,601.00000002421,3,2,829.99999995809,0.1111111111111111,1,object_02,1,3013,0,1,7,forest_4,1,memory-2step-stake-s,746,4795312,0.0-19.0-0.1-0.205,A2EGOCAO0VL2S8,31KPKEKW5DTYWQJ2Z73D1GA4ZNDB00,3R08VXYT7GB7ONFR5ZPKSTTZBEDW7A,4,3
206,3,object_03,object_05,638.00000003539,6,2,954.00000002701,1.0,2,object_07,5,3058,0,2,9,library_5,1,memory-2step-stake-s,747,4804378,0.0-19.0-0.1-0.206,A2EGOCAO0VL2S8,31KPKEKW5DTYWQJ2Z73D1GA4ZNDB00,3R08VXYT7GB7ONFR5ZPKSTTZBEDW7A,5,6
207,4,object_10,object_08,898.99999997579,7,1,54.000000003725,0.4444444444444444,1,object_02,5,3078,0,4,8,restaurant_1,1,memory-2step-stake-s,748,4812047,0.0-19.0-0.1-0.207,A2EGOCAO0VL2S8,31KPKEKW5DTYWQJ2Z73D1GA4ZNDB00,3R08VXYT7GB7ONFR5ZPKSTTZBEDW7A,7,8
208,2,object_09,object_06,-1.0,-1,-1,-1.0,0.0,-,0,5,3078,0,6,7,forest_4,1,memory-2step-stake-s,749,4818551,0.0-19.0-0.1-0.208,A2EGOCAO0VL2S8,31KPKEKW5DTYWQJ2Z73D1GA4ZNDB00,3R08VXYT7GB7ONFR5ZPKSTTZBEDW7A,3,4
209,2,object_06,object_09,684.00000000838,4,1,231.00000002887,0.8888888888888888,2,object_07,1,3086,0,5,8,forest_5,1,memory-2step-stake-s,750,4826867,0.0-19.0-0.1-0.209,A2EGOCAO0VL2S8,31KPKEKW5DTYWQJ2Z73D1GA4ZNDB00,3R08VXYT7GB7ONFR5ZPKSTTZBEDW7A,4,3
210,1,object_01,object_04,662.99999994226,1,2,113.99999994319,0.6666666666666666,1,object_02,5,3116,0,6,7,desert_5,1,memory-2step-stake-s,751,4834862,0.0-19.0-0.1-0.210,A2EGOCAO0VL2S8,31KPKEKW5DTYWQJ2Z73D1GA4ZNDB00,3R08VXYT7GB7ONFR5ZPKSTTZBEDW7A,2,1
211,2,object_06,object_09,567.00000003912,3,2,76.000000000931,1.0,1,object_02,5,3161,0,9,7,forest_4,1,memory-2step-stake-s,752,4843049,0.0-19.0-0.1-0.211,A2EGOCAO0VL2S8,31KPKEKW5DTYWQJ2Z73D1GA4ZNDB00,3R08VXYT7GB7ONFR5ZPKSTTZBEDW7A,4,3
212,3,object_05,object_03,939.99999994412,6,1,212.99999998882,0.4444444444444444,2,object_07,5,3181,0,8,4,library_7,1,memory-2step-stake-s,753,4850875,0.0-19.0-0.1-0.212,A2EGOCAO0VL2S8,31KPKEKW5DTYWQJ2Z73D1GA4ZNDB00,3R08VXYT7GB7ONFR5ZPKSTTZBEDW7A,6,5
213,4,object_10,object_08,724.00000004563,8,2,25.000000023283,0.1111111111111111,2,object_07,1,3182,0,5,1,restaurant_2,1,memory-2step-stake-s,754,4858208,0.0-19.0-0.1-0.213,A2EGOCAO0VL2S8,31KPKEKW5DTYWQJ2Z73D1GA4ZNDB00,3R08VXYT7GB7ONFR5ZPKSTTZBEDW7A,7,8
214,1,object_04,object_01,604.99999998137,2,2,148.0000000447,0.1111111111111111,2,object_07,1,3183,0,6,1,desert_1,1,memory-2step-stake-s,755,4865696,0.0-19.0-0.1-0.214,A2EGOCAO0VL2S8,31KPKEKW5DTYWQJ2Z73D1GA4ZNDB00,3R08VXYT7GB7ONFR5ZPKSTTZBEDW7A,1,2
215,1,object_01,object_04,572.99999997485,1,2,128.00000002608,0.6666666666666666,1,object_02,1,3189,0,6,3,desert_5,1,memory-2step-stake-s,756,4873638,0.0-19.0-0.1-0.215,A2EGOCAO0VL2S8,31KPKEKW5DTYWQJ2Z73D1GA4ZNDB00,3R08VXYT7GB7ONFR5ZPKSTTZBEDW7A,2,1
216,3,object_03,object_05,880.00000000466,5,1,427.99999995623,1.0,1,object_02,5,3234,0,9,2,library_7,1,memory-2step-stake-s,757,4882267,0.0-19.0-0.1-0.216,A2EGOCAO0VL2S8,31KPKEKW5DTYWQJ2Z73D1GA4ZNDB00,3R08VXYT7GB7ONFR5ZPKSTTZBEDW7A,5,6
217,4,object_08,object_10,699.00000002235,7,2,246.00000004284,0.6666666666666666,1,object_02,5,3264,0,6,2,restaurant_3,1,memory-2step-stake-s,758,4890326,0.0-19.0-0.1-0.217,A2EGOCAO0VL2S8,31KPKEKW5DTYWQJ2Z73D1GA4ZNDB00,3R08VXYT7GB7ONFR5ZPKSTTZBEDW7A,8,7
218,4,object_08,object_10,704.00000002701,7,2,530.99999995902,0.7777777777777778,1,object_02,5,3299,0,7,0,restaurant_4,1,memory-2step-stake-s,759,4898772,0.0-19.0-0.1-0.218,A2EGOCAO0VL2S8,31KPKEKW5DTYWQJ2Z73D1GA4ZNDB00,3R08VXYT7GB7ONFR5ZPKSTTZBEDW7A,8,7
219,1,object_01,object_04,707.00000005309,1,2,94.99999997206,0.8888888888888888,1,object_02,1,3307,0,8,0,desert_1,1,memory-2step-stake-s,760,4906899,0.0-19.0-0.1-0.219,A2EGOCAO0VL2S8,31KPKEKW5DTYWQJ2Z73D1GA4ZNDB00,3R08VXYT7GB7ONFR5ZPKSTTZBEDW7A,2,1
220,2,object_09,object_06,641.99999999255,4,2,147.99999992829,0.0,2,object_07,1,3307,0,6,0,forest_3,1,memory-2step-stake-s,761,4914259,0.0-19.0-0.1-0.220,A2EGOCAO0VL2S8,31KPKEKW5DTYWQJ2Z73D1GA4ZNDB00,3R08VXYT7GB7ONFR5ZPKSTTZBEDW7A,3,4
221,1,object_01,object_04,616.99999996927,2,1,325.00000006985,0.0,2,object_07,1,3307,0,7,0,desert_1,1,memory-2step-stake-s,762,4921818,0.0-19.0-0.1-0.221,A2EGOCAO0VL2S8,31KPKEKW5DTYWQJ2Z73D1GA4ZNDB00,3R08VXYT7GB7ONFR5ZPKSTTZBEDW7A,2,1
222,3,object_03,object_05,297.99999995157,6,2,98.999999929219,0.2222222222222222,2,object_07,5,3317,0,6,2,library_7,1,memory-2step-stake-s,763,4929335,0.0-19.0-0.1-0.222,A2EGOCAO0VL2S8,31KPKEKW5DTYWQJ2Z73D1GA4ZNDB00,3R08VXYT7GB7ONFR5ZPKSTTZBEDW7A,5,6
223,1,object_04,object_01,623.9999999525,2,2,146.00000006612,0.3333333333333333,2,object_07,1,3320,0,6,3,desert_5,1,memory-2step-stake-s,764,4936992,0.0-19.0-0.1-0.223,A2EGOCAO0VL2S8,31KPKEKW5DTYWQJ2Z73D1GA4ZNDB00,3R08VXYT7GB7ONFR5ZPKSTTZBEDW7A,1,2
224,2,object_06,object_09,716.99999994598,3,2,32.000000006519,0.6666666666666666,1,object_02,1,3326,0,6,3,forest_6,1,memory-2step-stake-s,765,4944842,0.0-19.0-0.1-0.224,A2EGOCAO0VL2S8,31KPKEKW5DTYWQJ2Z73D1GA4ZNDB00,3R08VXYT7GB7ONFR5ZPKSTTZBEDW7A,4,3
225,3,object_03,object_05,869.00000006426,6,2,184.99999993946,0.0,2,object_07,5,3326,0,5,0,library_8,1,memory-2step-stake-s,766,4952236,0.0-19.0-0.1-0.225,A2EGOCAO0VL2S8,31KPKEKW5DTYWQJ2Z73D1GA4ZNDB00,3R08VXYT7GB7ONFR5ZPKSTTZBEDW7A,5,6
226,2,object_09,object_06,248.00000002142,4,2,91.999999945983,0.2222222222222222,2,object_07,1,3328,0,1,2,forest_3,1,memory-2step-stake-s,767,4959780,0.0-19.0-0.1-0.226,A2EGOCAO0VL2S8,31KPKEKW5DTYWQJ2Z73D1GA4ZNDB00,3R08VXYT7GB7ONFR5ZPKSTTZBEDW7A,3,4
227,2,object_06,object_09,594.00000004098,3,2,187.00000003446,0.2222222222222222,1,object_02,1,3330,0,2,2,forest_5,1,memory-2step-stake-s,768,4967381,0.0-19.0-0.1-0.227,A2EGOCAO0VL2S8,31KPKEKW5DTYWQJ2Z73D1GA4ZNDB00,3R08VXYT7GB7ONFR5ZPKSTTZBEDW7A,4,3
228,2,object_06,object_09,623.00000002142,3,2,153.99999998044,0.1111111111111111,1,object_02,1,3331,0,1,1,forest_5,1,memory-2step-stake-s,769,4974847,0.0-19.0-0.1-0.228,A2EGOCAO0VL2S8,31KPKEKW5DTYWQJ2Z73D1GA4ZNDB00,3R08VXYT7GB7ONFR5ZPKSTTZBEDW7A,4,3
229,4,object_08,object_10,728.99999993388,7,2,163.00000005867,0.3333333333333333,1,object_02,5,3346,0,3,3,restaurant_1,1,memory-2step-stake-s,770,4982522,0.0-19.0-0.1-0.229,A2EGOCAO0VL2S8,31KPKEKW5DTYWQJ2Z73D1GA4ZNDB00,3R08VXYT7GB7ONFR5ZPKSTTZBEDW7A,8,7
230,2,object_09,object_06,812.99999996554,4,2,166.99999989942,0.4444444444444444,2,object_07,1,3350,0,6,4,forest_3,1,memory-2step-stake-s,771,4990302,0.0-19.0-0.1-0.230,A2EGOCAO0VL2S8,31KPKEKW5DTYWQJ2Z73D1GA4ZNDB00,3R08VXYT7GB7ONFR5ZPKSTTZBEDW7A,3,4
231,2,object_09,object_06,640.00000001397,4,2,18.000000040047,0.2222222222222222,2,object_07,1,3352,0,9,2,forest_5,1,memory-2step-stake-s,772,4997734,0.0-19.0-0.1-0.231,A2EGOCAO0VL2S8,31KPKEKW5DTYWQJ2Z73D1GA4ZNDB00,3R08VXYT7GB7ONFR5ZPKSTTZBEDW7A,3,4
232,2,object_06,object_09,632.99999991432,3,2,187.00000003446,0.7777777777777778,1,object_02,1,3359,0,7,1,forest_5,1,memory-2step-stake-s,773,5006003,0.0-19.0-0.1-0.232,A2EGOCAO0VL2S8,31KPKEKW5DTYWQJ2Z73D1GA4ZNDB00,3R08VXYT7GB7ONFR5ZPKSTTZBEDW7A,4,3
233,2,object_06,object_09,427.99999995623,3,2,69.999999948777,1.0,1,object_02,1,3368,0,9,1,forest_6,1,memory-2step-stake-s,774,5014193,0.0-19.0-0.1-0.233,A2EGOCAO0VL2S8,31KPKEKW5DTYWQJ2Z73D1GA4ZNDB00,3R08VXYT7GB7ONFR5ZPKSTTZBEDW7A,4,3
234,2,object_06,object_09,606.00000002887,3,2,62.000000034459,0.6666666666666666,1,object_02,1,3374,0,6,2,forest_3,1,memory-2step-stake-s,775,5022071,0.0-19.0-0.1-0.234,A2EGOCAO0VL2S8,31KPKEKW5DTYWQJ2Z73D1GA4ZNDB00,3R08VXYT7GB7ONFR5ZPKSTTZBEDW7A,4,3
235,4,object_08,object_10,282.9999999376,7,2,48.999999999069,0.6666666666666666,1,object_02,5,3404,0,6,3,restaurant_3,1,memory-2step-stake-s,776,5029938,0.0-19.0-0.1-0.235,A2EGOCAO0VL2S8,31KPKEKW5DTYWQJ2Z73D1GA4ZNDB00,3R08VXYT7GB7ONFR5ZPKSTTZBEDW7A,8,7
236,1,object_01,object_04,589.00000003632,1,2,72.000000043772,0.4444444444444444,1,object_02,1,3408,0,4,4,desert_5,1,memory-2step-stake-s,777,5037624,0.0-19.0-0.1-0.236,A2EGOCAO0VL2S8,31KPKEKW5DTYWQJ2Z73D1GA4ZNDB00,3R08VXYT7GB7ONFR5ZPKSTTZBEDW7A,2,1
237,4,object_10,object_08,638.99999996647,8,2,40.999999968335,0.5555555555555556,2,object_07,1,3413,0,1,5,restaurant_3,1,memory-2step-stake-s,778,5045394,0.0-19.0-0.1-0.237,A2EGOCAO0VL2S8,31KPKEKW5DTYWQJ2Z73D1GA4ZNDB00,3R08VXYT7GB7ONFR5ZPKSTTZBEDW7A,7,8
238,4,object_10,object_08,491.99999996927,7,1,119.99999999534,0.2222222222222222,1,object_02,5,3423,0,2,9,restaurant_1,1,memory-2step-stake-s,779,5052922,0.0-19.0-0.1-0.238,A2EGOCAO0VL2S8,31KPKEKW5DTYWQJ2Z73D1GA4ZNDB00,3R08VXYT7GB7ONFR5ZPKSTTZBEDW7A,7,8
239,3,object_05,object_03,851.00000002421,6,1,8.0000000307336,1.0,2,object_07,5,3468,0,5,9,library_8,1,memory-2step-stake-s,780,5061046,0.0-19.0-0.1-0.239,A2EGOCAO0VL2S8,31KPKEKW5DTYWQJ2Z73D1GA4ZNDB00,3R08VXYT7GB7ONFR5ZPKSTTZBEDW7A,6,5
240,3,object_03,object_05,689.00000001304,6,2,197.99999997485,0.8888888888888888,2,object_07,5,3508,0,7,8,library_7,1,memory-2step-stake-s,781,5069265,0.0-19.0-0.1-0.240,A2EGOCAO0VL2S8,31KPKEKW5DTYWQJ2Z73D1GA4ZNDB00,3R08VXYT7GB7ONFR5ZPKSTTZBEDW7A,5,6
241,2,object_09,object_06,578.99999991059,4,2,159.99999991618,0.6666666666666666,2,object_07,1,3514,0,2,6,forest_6,1,memory-2step-stake-s,782,5077242,0.0-19.0-0.1-0.241,A2EGOCAO0VL2S8,31KPKEKW5DTYWQJ2Z73D1GA4ZNDB00,3R08VXYT7GB7ONFR5ZPKSTTZBEDW7A,3,4
242,1,object_04,object_01,564.00000001304,2,2,70.999999996275,0.7777777777777778,2,object_07,1,3521,0,3,7,desert_5,1,memory-2step-stake-s,783,5085229,0.0-19.0-0.1-0.242,A2EGOCAO0VL2S8,31KPKEKW5DTYWQJ2Z73D1GA4ZNDB00,3R08VXYT7GB7ONFR5ZPKSTTZBEDW7A,1,2
243,2,object_06,object_09,329.99999995809,3,2,182.0000000298,0.3333333333333333,1,object_02,1,3524,0,3,3,forest_6,1,memory-2step-stake-s,784,5092922,0.0-19.0-0.1-0.243,A2EGOCAO0VL2S8,31KPKEKW5DTYWQJ2Z73D1GA4ZNDB00,3R08VXYT7GB7ONFR5ZPKSTTZBEDW7A,4,3
244,3,object_03,object_05,601.00000002421,6,2,212.99999998882,0.1111111111111111,2,object_07,1,3525,0,4,1,library_3,1,memory-2step-stake-s,785,5100452,0.0-19.0-0.1-0.244,A2EGOCAO0VL2S8,31KPKEKW5DTYWQJ2Z73D1GA4ZNDB00,3R08VXYT7GB7ONFR5ZPKSTTZBEDW7A,5,6
245,4,object_08,object_10,578.99999991059,7,2,180.9999999823,0.1111111111111111,1,object_02,5,3530,0,1,5,restaurant_1,1,memory-2step-stake-s,786,5107946,0.0-19.0-0.1-0.245,A2EGOCAO0VL2S8,31KPKEKW5DTYWQJ2Z73D1GA4ZNDB00,3R08VXYT7GB7ONFR5ZPKSTTZBEDW7A,8,7
246,1,object_01,object_04,701.00000000093,1,2,79.99999995809,0.2222222222222222,1,object_02,5,3540,0,2,6,desert_5,1,memory-2step-stake-s,787,5115445,0.0-19.0-0.1-0.246,A2EGOCAO0VL2S8,31KPKEKW5DTYWQJ2Z73D1GA4ZNDB00,3R08VXYT7GB7ONFR5ZPKSTTZBEDW7A,2,1
247,3,object_03,object_05,820.99999999627,6,2,262.99999991897,0.4444444444444444,2,object_07,5,3560,0,1,4,library_5,1,memory-2step-stake-s,788,5123319,0.0-19.0-0.1-0.247,A2EGOCAO0VL2S8,31KPKEKW5DTYWQJ2Z73D1GA4ZNDB00,3R08VXYT7GB7ONFR5ZPKSTTZBEDW7A,5,6
248,1,object_01,object_04,849.99999997672,1,2,66.9999999227,0.1111111111111111,1,object_02,1,3561,0,1,3,desert_6,1,memory-2step-stake-s,789,5130696,0.0-19.0-0.1-0.248,A2EGOCAO0VL2S8,31KPKEKW5DTYWQJ2Z73D1GA4ZNDB00,3R08VXYT7GB7ONFR5ZPKSTTZBEDW7A,2,1
249,1,object_04,object_01,670.99999997299,2,2,99.000000045635,0.7777777777777778,2,object_07,1,3568,0,2,7,desert_1,1,memory-2step-stake-s,790,5138712,0.0-19.0-0.1-0.249,A2EGOCAO0VL2S8,31KPKEKW5DTYWQJ2Z73D1GA4ZNDB00,3R08VXYT7GB7ONFR5ZPKSTTZBEDW7A,1,2
250,4,object_10,object_08,-1.0,-1,-1,-1.0,0.0,-,0,5,3568,0,3,5,restaurant_3,1,memory-2step-stake-s,791,5145222,0.0-19.0-0.1-0.250,A2EGOCAO0VL2S8,31KPKEKW5DTYWQJ2Z73D1GA4ZNDB00,3R08VXYT7GB7ONFR5ZPKSTTZBEDW7A,7,8
251,2,object_06,object_09,559.00000000838,3,2,143.99999997113,0.4444444444444444,1,object_02,1,3572,0,4,5,forest_4,1,memory-2step-stake-s,792,5153016,0.0-19.0-0.1-0.251,A2EGOCAO0VL2S8,31KPKEKW5DTYWQJ2Z73D1GA4ZNDB00,3R08VXYT7GB7ONFR5ZPKSTTZBEDW7A,4,3
252,1,object_04,object_01,544.00000011083,2,2,177.99999995623,0.3333333333333333,2,object_07,1,3575,0,5,3,desert_6,1,memory-2step-stake-s,793,5160707,0.0-19.0-0.1-0.252,A2EGOCAO0VL2S8,31KPKEKW5DTYWQJ2Z73D1GA4ZNDB00,3R08VXYT7GB7ONFR5ZPKSTTZBEDW7A,1,2
253,1,object_01,object_04,692.00000003912,1,2,128.99999995716,0.8888888888888888,1,object_02,5,3615,0,8,1,desert_2,1,memory-2step-stake-s,794,5168848,0.0-19.0-0.1-0.253,A2EGOCAO0VL2S8,31KPKEKW5DTYWQJ2Z73D1GA4ZNDB00,3R08VXYT7GB7ONFR5ZPKSTTZBEDW7A,2,1
254,3,object_05,object_03,615.99999992177,5,2,209.00000003166,0.8888888888888888,1,object_02,5,3655,0,8,3,library_7,1,memory-2step-stake-s,795,5177073,0.0-19.0-0.1-0.254,A2EGOCAO0VL2S8,31KPKEKW5DTYWQJ2Z73D1GA4ZNDB00,3R08VXYT7GB7ONFR5ZPKSTTZBEDW7A,6,5
255,3,object_03,object_05,758.00000003073,6,2,47.000000020489,0.8888888888888888,2,object_07,5,3695,0,7,8,library_3,1,memory-2step-stake-s,796,5185138,0.0-19.0-0.1-0.255,A2EGOCAO0VL2S8,31KPKEKW5DTYWQJ2Z73D1GA4ZNDB00,3R08VXYT7GB7ONFR5ZPKSTTZBEDW7A,5,6
