,state1,stim_left,stim_right,rt_1,choice1,response1,rt_2,points,state2,stim_state2,stake,score,practice,rews1,rews2,background,high_arm,trial_type,trial_index,time_elapsed,internal_node_id,subid,hitid,assignmentid,stim_left_num,stim_right_num
0,2,object_06,object_01,-1.0,-1,-1,-1.0,0.0,-,0,5,0,0,0,2,forest_2,2,memory-2step-stake-s,506,1367118,0.0-19.0-0.0-0.0,A31A1PVXLJBISZ,31KPKEKW5DTYWQJ2Z73D1GA4ZNDB00,3RANCT1ZVJXHYVTCNGMZF7UY9OFBUY,3,4
1,3,object_10,object_03,-1.0,-1,-1,-1.0,0.0,-,0,1,0,0,1,2,library_6,2,memory-2step-stake-s,507,1373632,0.0-19.0-0.0-0.1,A31A1PVXLJBISZ,31KPKEKW5DTYWQJ2Z73D1GA4ZNDB00,3RANCT1ZVJXHYVTCNGMZF7UY9OFBUY,5,6
2,4,object_07,object_04,424.89999997616,7,1,-1.0,0.0,1,object_05,1,0,0,2,1,restaurant_1,2,memory-2step-stake-s,508,1382154,0.0-19.0-0.0-0.2,A31A1PVXLJBISZ,31KPKEKW5DTYWQJ2Z73D1GA4ZNDB00,3RANCT1ZVJXHYVTCNGMZF7UY9OFBUY,7,8
3,2,object_06,object_01,252.5,4,2,63.300000011921,0.0,2,object_09,5,0,0,2,0,forest_2,2,memory-2step-stake-s,509,1389438,0.0-19.0-0.0-0.3,A31A1PVXLJBISZ,31KPKEKW5DTYWQJ2Z73D1GA4ZNDB00,3RANCT1ZVJXHYVTCNGMZF7UY9OFBUY,3,4
4,1,object_08,object_02,1142.5,2,1,-1.0,0.0,2,object_09,5,0,0,1,1,desert_4,2,memory-2step-stake-s,510,1397956,0.0-19.0-0.0-0.4,A31A1PVXLJBISZ,31KPKEKW5DTYWQJ2Z73D1GA4ZNDB00,3RANCT1ZVJXHYVTCNGMZF7UY9OFBUY,2,1
5,2,object_06,object_01,812.90000003576,4,2,-1.0,0.0,2,object_09,5,0,0,0,1,forest_3,2,memory-2step-stake-s,511,1406477,0.0-19.0-0.0-0.5,A31A1PVXLJBISZ,31KPKEKW5DTYWQJ2Z73D1GA4ZNDB00,3RANCT1ZVJXHYVTCNGMZF7UY9OFBUY,3,4
6,1,object_08,object_02,919.59999996424,1,2,-1.0,0.0,1,object_05,5,0,0,0,1,desert_3,2,memory-2step-stake-s,512,1415003,0.0-19.0-0.0-0.6,A31A1PVXLJBISZ,31KPKEKW5DTYWQJ2Z73D1GA4ZNDB00,3RANCT1ZVJXHYVTCNGMZF7UY9OFBUY,2,1
7,3,object_03,object_10,678.80000001192,6,1,-1.0,0.0,2,object_09,5,0,0,4,1,library_1,2,memory-2step-stake-s,513,1423525,0.0-19.0-0.0-0.7,A31A1PVXLJBISZ,31KPKEKW5DTYWQJ2Z73D1GA4ZNDB00,3RANCT1ZVJXHYVTCNGMZF7UY9OFBUY,6,5
8,1,object_08,object_02,815.10000002384,2,1,-1.0,0.0,2,object_09,5,0,0,7,0,desert_4,2,memory-2step-stake-s,514,1432045,0.0-19.0-0.0-0.8,A31A1PVXLJBISZ,31KPKEKW5DTYWQJ2Z73D1GA4ZNDB00,3RANCT1ZVJXHYVTCNGMZF7UY9OFBUY,2,1
9,1,object_02,object_08,334.69999998808,2,2,-1.0,0.0,2,object_09,5,0,0,7,1,desert_4,2,memory-2step-stake-s,515,1440565,0.0-19.0-0.0-0.9,A31A1PVXLJBISZ,31KPKEKW5DTYWQJ2Z73D1GA4ZNDB00,3RANCT1ZVJXHYVTCNGMZF7UY9OFBUY,1,2
10,2,object_01,object_06,899.60000002384,4,1,-1.0,0.0,2,object_09,5,0,0,5,1,forest_4,2,memory-2step-stake-s,516,1449082,0.0-19.0-0.0-0.10,A31A1PVXLJBISZ,31KPKEKW5DTYWQJ2Z73D1GA4ZNDB00,3RANCT1ZVJXHYVTCNGMZF7UY9OFBUY,4,3
11,2,object_01,object_06,373.90000003576,3,2,1277.5999999642,0.6666666666666666,1,object_05,5,30,0,6,4,forest_2,2,memory-2step-stake-s,517,1458187,0.0-19.0-0.0-0.11,A31A1PVXLJBISZ,31KPKEKW5DTYWQJ2Z73D1GA4ZNDB00,3RANCT1ZVJXHYVTCNGMZF7UY9OFBUY,4,3
12,4,object_07,object_04,574.10000002384,7,1,445.09999996424,0.8888888888888888,1,object_05,1,38,0,8,1,restaurant_4,2,memory-2step-stake-s,518,1466665,0.0-19.0-0.0-0.12,A31A1PVXLJBISZ,31KPKEKW5DTYWQJ2Z73D1GA4ZNDB00,3RANCT1ZVJXHYVTCNGMZF7UY9OFBUY,7,8
13,4,object_07,object_04,545.39999997616,8,2,254.79999995232,0.1111111111111111,2,object_09,1,39,0,9,1,restaurant_8,2,memory-2step-stake-s,519,1474243,0.0-19.0-0.0-0.13,A31A1PVXLJBISZ,31KPKEKW5DTYWQJ2Z73D1GA4ZNDB00,3RANCT1ZVJXHYVTCNGMZF7UY9OFBUY,7,8
14,4,object_04,object_07,556.5,8,1,396.79999995232,0.3333333333333333,2,object_09,1,42,0,9,3,restaurant_4,2,memory-2step-stake-s,520,1482170,0.0-19.0-0.0-0.14,A31A1PVXLJBISZ,31KPKEKW5DTYWQJ2Z73D1GA4ZNDB00,3RANCT1ZVJXHYVTCNGMZF7UY9OFBUY,8,7
15,3,object_03,object_10,951.70000004768,6,1,1120.1999999881,0.2222222222222222,2,object_09,1,44,0,9,2,library_1,2,memory-2step-stake-s,521,1490715,0.0-19.0-0.0-0.15,A31A1PVXLJBISZ,31KPKEKW5DTYWQJ2Z73D1GA4ZNDB00,3RANCT1ZVJXHYVTCNGMZF7UY9OFBUY,6,5
16,2,object_06,object_01,1209.1999999881,3,1,452.89999997616,0.6666666666666666,1,object_05,5,74,0,6,4,forest_3,2,memory-2step-stake-s,522,1498994,0.0-19.0-0.0-0.16,A31A1PVXLJBISZ,31KPKEKW5DTYWQJ2Z73D1GA4ZNDB00,3RANCT1ZVJXHYVTCNGMZF7UY9OFBUY,3,4
17,3,object_10,object_03,-1.0,-1,-1,-1.0,0.0,-,0,1,74,0,5,6,library_1,2,memory-2step-stake-s,523,1505507,0.0-19.0-0.0-0.17,A31A1PVXLJBISZ,31KPKEKW5DTYWQJ2Z73D1GA4ZNDB00,3RANCT1ZVJXHYVTCNGMZF7UY9OFBUY,5,6
18,4,object_07,object_04,1271.5999999642,7,1,563.0,0.5555555555555556,1,object_05,1,79,0,5,3,restaurant_6,2,memory-2step-stake-s,524,1513793,0.0-19.0-0.0-0.18,A31A1PVXLJBISZ,31KPKEKW5DTYWQJ2Z73D1GA4ZNDB00,3RANCT1ZVJXHYVTCNGMZF7UY9OFBUY,7,8
19,1,object_08,object_02,888.30000001192,1,2,520.89999997616,0.4444444444444444,1,object_05,5,99,0,4,2,desert_8,2,memory-2step-stake-s,525,1521936,0.0-19.0-0.0-0.19,A31A1PVXLJBISZ,31KPKEKW5DTYWQJ2Z73D1GA4ZNDB00,3RANCT1ZVJXHYVTCNGMZF7UY9OFBUY,2,1
20,2,object_01,object_06,721.09999996424,4,1,435.60000002384,0.3333333333333333,2,object_09,5,114,0,7,3,forest_1,2,memory-2step-stake-s,526,1529897,0.0-19.0-0.0-0.20,A31A1PVXLJBISZ,31KPKEKW5DTYWQJ2Z73D1GA4ZNDB00,3RANCT1ZVJXHYVTCNGMZF7UY9OFBUY,4,3
21,1,object_08,object_02,640.09999996424,1,2,536.30000001192,0.7777777777777778,1,object_05,5,149,0,7,1,desert_8,2,memory-2step-stake-s,527,1538365,0.0-19.0-0.0-0.21,A31A1PVXLJBISZ,31KPKEKW5DTYWQJ2Z73D1GA4ZNDB00,3RANCT1ZVJXHYVTCNGMZF7UY9OFBUY,2,1
22,2,object_06,object_01,720.0,3,1,663.0,0.5555555555555556,1,object_05,1,154,0,5,2,forest_4,2,memory-2step-stake-s,528,1546758,0.0-19.0-0.0-0.22,A31A1PVXLJBISZ,31KPKEKW5DTYWQJ2Z73D1GA4ZNDB00,3RANCT1ZVJXHYVTCNGMZF7UY9OFBUY,3,4
23,3,object_10,object_03,-1.0,-1,-1,-1.0,0.0,-,0,1,154,0,8,4,library_7,2,memory-2step-stake-s,529,1618584,0.0-19.0-0.0-0.23,A31A1PVXLJBISZ,31KPKEKW5DTYWQJ2Z73D1GA4ZNDB00,3RANCT1ZVJXHYVTCNGMZF7UY9OFBUY,5,6
24,1,object_02,object_08,-1.0,-1,-1,-1.0,0.0,-,0,5,154,0,6,3,desert_5,2,memory-2step-stake-s,530,1628586,0.0-19.0-0.0-0.24,A31A1PVXLJBISZ,31KPKEKW5DTYWQJ2Z73D1GA4ZNDB00,3RANCT1ZVJXHYVTCNGMZF7UY9OFBUY,1,2
25,3,object_03,object_10,-1.0,-1,-1,-1.0,0.0,-,0,1,154,0,5,3,library_7,2,memory-2step-stake-s,531,1638583,0.0-19.0-0.0-0.25,A31A1PVXLJBISZ,31KPKEKW5DTYWQJ2Z73D1GA4ZNDB00,3RANCT1ZVJXHYVTCNGMZF7UY9OFBUY,6,5
26,1,object_02,object_08,1232.2000000477,2,2,1008.8999999762,0.4444444444444444,2,object_09,1,158,0,5,4,desert_5,2,memory-2step-stake-s,532,1647631,0.0-19.0-0.0-0.26,A31A1PVXLJBISZ,31KPKEKW5DTYWQJ2Z73D1GA4ZNDB00,3RANCT1ZVJXHYVTCNGMZF7UY9OFBUY,1,2
27,1,object_02,object_08,700.90000003576,2,2,438.5,0.6666666666666666,2,object_09,5,188,0,5,6,desert_8,2,memory-2step-stake-s,533,1655902,0.0-19.0-0.0-0.27,A31A1PVXLJBISZ,31KPKEKW5DTYWQJ2Z73D1GA4ZNDB00,3RANCT1ZVJXHYVTCNGMZF7UY9OFBUY,1,2
28,1,object_08,object_02,1006.8000000119,2,1,469.60000002384,0.6666666666666666,2,object_09,5,218,0,5,6,desert_5,2,memory-2step-stake-s,534,1664200,0.0-19.0-0.0-0.28,A31A1PVXLJBISZ,31KPKEKW5DTYWQJ2Z73D1GA4ZNDB00,3RANCT1ZVJXHYVTCNGMZF7UY9OFBUY,2,1
29,2,object_01,object_06,924.60000002384,4,1,640.60000002384,0.4444444444444444,2,object_09,1,222,0,5,4,forest_2,2,memory-2step-stake-s,535,1672469,0.0-19.0-0.0-0.29,A31A1PVXLJBISZ,31KPKEKW5DTYWQJ2Z73D1GA4ZNDB00,3RANCT1ZVJXHYVTCNGMZF7UY9OFBUY,4,3
30,4,object_04,object_07,804.79999995232,7,2,486.19999998808,0.2222222222222222,1,object_05,1,224,0,2,2,restaurant_4,2,memory-2step-stake-s,536,1680383,0.0-19.0-0.0-0.30,A31A1PVXLJBISZ,31KPKEKW5DTYWQJ2Z73D1GA4ZNDB00,3RANCT1ZVJXHYVTCNGMZF7UY9OFBUY,8,7
31,2,object_01,object_06,780.0,4,1,388.30000001192,0.3333333333333333,2,object_09,5,239,0,2,3,forest_2,2,memory-2step-stake-s,537,1688297,0.0-19.0-0.0-0.31,A31A1PVXLJBISZ,31KPKEKW5DTYWQJ2Z73D1GA4ZNDB00,3RANCT1ZVJXHYVTCNGMZF7UY9OFBUY,4,3
32,3,object_03,object_10,1141.8999999762,6,1,525.30000001192,0.4444444444444444,2,object_09,1,243,0,0,4,library_7,2,memory-2step-stake-s,538,1696449,0.0-19.0-0.0-0.32,A31A1PVXLJBISZ,31KPKEKW5DTYWQJ2Z73D1GA4ZNDB00,3RANCT1ZVJXHYVTCNGMZF7UY9OFBUY,6,5
33,2,object_06,object_01,661.5,3,1,509.79999995232,0.1111111111111111,1,object_05,5,248,0,1,5,forest_3,2,memory-2step-stake-s,539,1704283,0.0-19.0-0.0-0.33,A31A1PVXLJBISZ,31KPKEKW5DTYWQJ2Z73D1GA4ZNDB00,3RANCT1ZVJXHYVTCNGMZF7UY9OFBUY,3,4
34,2,object_01,object_06,776.69999998808,3,2,491.09999996424,0.0,1,object_05,5,248,0,0,0,forest_4,2,memory-2step-stake-s,540,1711996,0.0-19.0-0.0-0.34,A31A1PVXLJBISZ,31KPKEKW5DTYWQJ2Z73D1GA4ZNDB00,3RANCT1ZVJXHYVTCNGMZF7UY9OFBUY,4,3
35,2,object_06,object_01,580.19999998808,3,1,592.39999997616,0.1111111111111111,1,object_05,1,249,0,1,0,forest_3,2,memory-2step-stake-s,541,1719910,0.0-19.0-0.0-0.35,A31A1PVXLJBISZ,31KPKEKW5DTYWQJ2Z73D1GA4ZNDB00,3RANCT1ZVJXHYVTCNGMZF7UY9OFBUY,3,4
36,4,object_04,object_07,998.69999998808,8,1,439.09999996424,0.1111111111111111,2,object_09,5,254,0,1,1,restaurant_6,2,memory-2step-stake-s,542,1727671,0.0-19.0-0.0-0.36,A31A1PVXLJBISZ,31KPKEKW5DTYWQJ2Z73D1GA4ZNDB00,3RANCT1ZVJXHYVTCNGMZF7UY9OFBUY,8,7
37,4,object_07,object_04,905.30000001192,7,1,397.19999998808,0.2222222222222222,1,object_05,1,256,0,2,2,restaurant_4,2,memory-2step-stake-s,543,1735494,0.0-19.0-0.0-0.37,A31A1PVXLJBISZ,31KPKEKW5DTYWQJ2Z73D1GA4ZNDB00,3RANCT1ZVJXHYVTCNGMZF7UY9OFBUY,7,8
38,4,object_07,object_04,877.39999997616,8,2,529.30000001192,0.2222222222222222,2,object_09,5,266,0,4,2,restaurant_4,2,memory-2step-stake-s,544,1743450,0.0-19.0-0.0-0.38,A31A1PVXLJBISZ,31KPKEKW5DTYWQJ2Z73D1GA4ZNDB00,3RANCT1ZVJXHYVTCNGMZF7UY9OFBUY,7,8
39,4,object_04,object_07,-1.0,-1,-1,-1.0,0.0,-,0,1,266,0,7,0,restaurant_1,2,memory-2step-stake-s,545,1749966,0.0-19.0-0.0-0.39,A31A1PVXLJBISZ,31KPKEKW5DTYWQJ2Z73D1GA4ZNDB00,3RANCT1ZVJXHYVTCNGMZF7UY9OFBUY,8,7
40,3,object_03,object_10,1351.1000000238,5,2,614.90000003576,0.7777777777777778,1,object_05,1,273,0,7,1,library_8,2,memory-2step-stake-s,546,1758514,0.0-19.0-0.0-0.40,A31A1PVXLJBISZ,31KPKEKW5DTYWQJ2Z73D1GA4ZNDB00,3RANCT1ZVJXHYVTCNGMZF7UY9OFBUY,6,5
41,2,object_01,object_06,-1.0,-1,-1,-1.0,0.0,-,0,1,273,0,4,0,forest_3,2,memory-2step-stake-s,547,1765029,0.0-19.0-0.0-0.41,A31A1PVXLJBISZ,31KPKEKW5DTYWQJ2Z73D1GA4ZNDB00,3RANCT1ZVJXHYVTCNGMZF7UY9OFBUY,4,3
42,3,object_03,object_10,1170.1999999881,5,2,569.30000001192,0.3333333333333333,1,object_05,1,276,0,3,1,library_7,2,memory-2step-stake-s,548,1773131,0.0-19.0-0.0-0.42,A31A1PVXLJBISZ,31KPKEKW5DTYWQJ2Z73D1GA4ZNDB00,3RANCT1ZVJXHYVTCNGMZF7UY9OFBUY,6,5
43,1,object_02,object_08,1120.5,2,2,445.30000001192,0.1111111111111111,2,object_09,5,281,0,7,1,desert_4,2,memory-2step-stake-s,549,1780900,0.0-19.0-0.0-0.43,A31A1PVXLJBISZ,31KPKEKW5DTYWQJ2Z73D1GA4ZNDB00,3RANCT1ZVJXHYVTCNGMZF7UY9OFBUY,1,2
44,2,object_01,object_06,954.09999996424,4,1,489.19999998808,0.5555555555555556,2,object_09,5,306,0,8,5,forest_1,2,memory-2step-stake-s,550,1789119,0.0-19.0-0.0-0.44,A31A1PVXLJBISZ,31KPKEKW5DTYWQJ2Z73D1GA4ZNDB00,3RANCT1ZVJXHYVTCNGMZF7UY9OFBUY,4,3
45,2,object_01,object_06,949.30000001192,3,2,784.60000002384,1.0,1,object_05,5,351,0,9,4,forest_4,2,memory-2step-stake-s,551,1798039,0.0-19.0-0.0-0.45,A31A1PVXLJBISZ,31KPKEKW5DTYWQJ2Z73D1GA4ZNDB00,3RANCT1ZVJXHYVTCNGMZF7UY9OFBUY,4,3
46,1,object_08,object_02,828.30000001192,2,1,1244.8000000119,1.0,2,object_09,1,360,0,9,9,desert_8,2,memory-2step-stake-s,552,1807419,0.0-19.0-0.0-0.46,A31A1PVXLJBISZ,31KPKEKW5DTYWQJ2Z73D1GA4ZNDB00,3RANCT1ZVJXHYVTCNGMZF7UY9OFBUY,2,1
47,3,object_10,object_03,829.79999995232,5,1,461.5,0.8888888888888888,1,object_05,5,400,0,8,8,library_1,2,memory-2step-stake-s,553,1815933,0.0-19.0-0.0-0.47,A31A1PVXLJBISZ,31KPKEKW5DTYWQJ2Z73D1GA4ZNDB00,3RANCT1ZVJXHYVTCNGMZF7UY9OFBUY,5,6
48,1,object_02,object_08,1011.8999999762,2,2,569.30000001192,0.6666666666666666,2,object_09,5,430,0,9,6,desert_3,2,memory-2step-stake-s,554,1824337,0.0-19.0-0.0-0.48,A31A1PVXLJBISZ,31KPKEKW5DTYWQJ2Z73D1GA4ZNDB00,3RANCT1ZVJXHYVTCNGMZF7UY9OFBUY,1,2
49,4,object_07,object_04,927.39999997616,7,1,735.69999998808,1.0,1,object_05,1,439,0,9,4,restaurant_1,2,memory-2step-stake-s,555,1833206,0.0-19.0-0.0-0.49,A31A1PVXLJBISZ,31KPKEKW5DTYWQJ2Z73D1GA4ZNDB00,3RANCT1ZVJXHYVTCNGMZF7UY9OFBUY,7,8
50,4,object_07,object_04,970.60000002384,7,1,467.60000002384,0.8888888888888888,1,object_05,5,479,0,8,7,restaurant_4,2,memory-2step-stake-s,556,1841704,0.0-19.0-0.0-0.50,A31A1PVXLJBISZ,31KPKEKW5DTYWQJ2Z73D1GA4ZNDB00,3RANCT1ZVJXHYVTCNGMZF7UY9OFBUY,7,8
51,3,object_10,object_03,1019.1000000238,5,1,422.89999997616,0.8888888888888888,1,object_05,5,519,0,8,7,library_7,2,memory-2step-stake-s,557,1850163,0.0-19.0-0.0-0.51,A31A1PVXLJBISZ,31KPKEKW5DTYWQJ2Z73D1GA4ZNDB00,3RANCT1ZVJXHYVTCNGMZF7UY9OFBUY,5,6
52,2,object_01,object_06,768.79999995232,4,1,546.69999998808,0.8888888888888888,2,object_09,5,559,0,5,8,forest_1,2,memory-2step-stake-s,558,1858751,0.0-19.0-0.0-0.52,A31A1PVXLJBISZ,31KPKEKW5DTYWQJ2Z73D1GA4ZNDB00,3RANCT1ZVJXHYVTCNGMZF7UY9OFBUY,4,3
53,3,object_03,object_10,797.59999996424,5,2,453.69999998808,0.4444444444444444,1,object_05,1,563,0,4,7,library_6,2,memory-2step-stake-s,559,1866831,0.0-19.0-0.0-0.53,A31A1PVXLJBISZ,31KPKEKW5DTYWQJ2Z73D1GA4ZNDB00,3RANCT1ZVJXHYVTCNGMZF7UY9OFBUY,6,5
54,1,object_08,object_02,740.69999998808,2,1,649.39999997616,0.5555555555555556,2,object_09,5,588,0,4,5,desert_8,2,memory-2step-stake-s,560,1875210,0.0-19.0-0.0-0.54,A31A1PVXLJBISZ,31KPKEKW5DTYWQJ2Z73D1GA4ZNDB00,3RANCT1ZVJXHYVTCNGMZF7UY9OFBUY,2,1
55,2,object_06,object_01,1055.1000000238,3,1,543.0,0.4444444444444444,1,object_05,5,608,0,4,8,forest_3,2,memory-2step-stake-s,561,1883381,0.0-19.0-0.0-0.55,A31A1PVXLJBISZ,31KPKEKW5DTYWQJ2Z73D1GA4ZNDB00,3RANCT1ZVJXHYVTCNGMZF7UY9OFBUY,3,4
56,2,object_06,object_01,1097.9000000358,4,2,509.5,0.7777777777777778,2,object_09,5,643,0,5,7,forest_2,2,memory-2step-stake-s,562,1891827,0.0-19.0-0.0-0.56,A31A1PVXLJBISZ,31KPKEKW5DTYWQJ2Z73D1GA4ZNDB00,3RANCT1ZVJXHYVTCNGMZF7UY9OFBUY,3,4
57,4,object_04,object_07,773.79999995232,8,1,471.0,0.6666666666666666,2,object_09,1,649,0,6,6,restaurant_6,2,memory-2step-stake-s,563,1900134,0.0-19.0-0.0-0.57,A31A1PVXLJBISZ,31KPKEKW5DTYWQJ2Z73D1GA4ZNDB00,3RANCT1ZVJXHYVTCNGMZF7UY9OFBUY,8,7
58,2,object_01,object_06,844.10000002384,4,1,312.89999997616,0.8888888888888888,2,object_09,5,689,0,5,8,forest_1,2,memory-2step-stake-s,564,1908479,0.0-19.0-0.0-0.58,A31A1PVXLJBISZ,31KPKEKW5DTYWQJ2Z73D1GA4ZNDB00,3RANCT1ZVJXHYVTCNGMZF7UY9OFBUY,4,3
59,4,object_04,object_07,850.29999995232,8,1,555.69999998808,1.0,2,object_09,1,698,0,5,9,restaurant_8,2,memory-2step-stake-s,565,1917173,0.0-19.0-0.0-0.59,A31A1PVXLJBISZ,31KPKEKW5DTYWQJ2Z73D1GA4ZNDB00,3RANCT1ZVJXHYVTCNGMZF7UY9OFBUY,8,7
60,1,object_08,object_02,784.69999998808,2,1,574.5,1.0,2,object_09,5,743,0,4,9,desert_8,2,memory-2step-stake-s,566,1925888,0.0-19.0-0.0-0.60,A31A1PVXLJBISZ,31KPKEKW5DTYWQJ2Z73D1GA4ZNDB00,3RANCT1ZVJXHYVTCNGMZF7UY9OFBUY,2,1
61,4,object_07,object_04,804.40000003576,7,1,538.10000002384,0.6666666666666666,1,object_05,1,749,0,6,7,restaurant_8,2,memory-2step-stake-s,567,1934265,0.0-19.0-0.0-0.61,A31A1PVXLJBISZ,31KPKEKW5DTYWQJ2Z73D1GA4ZNDB00,3RANCT1ZVJXHYVTCNGMZF7UY9OFBUY,7,8
62,1,object_02,object_08,-1.0,-1,-1,-1.0,0.0,-,0,1,749,0,8,7,desert_8,2,memory-2step-stake-s,568,1940781,0.0-19.0-0.0-0.62,A31A1PVXLJBISZ,31KPKEKW5DTYWQJ2Z73D1GA4ZNDB00,3RANCT1ZVJXHYVTCNGMZF7UY9OFBUY,1,2
63,3,object_10,object_03,705.29999995232,5,1,985.0,0.7777777777777778,1,object_05,1,756,0,7,7,library_8,2,memory-2step-stake-s,569,1949717,0.0-19.0-0.0-0.63,A31A1PVXLJBISZ,31KPKEKW5DTYWQJ2Z73D1GA4ZNDB00,3RANCT1ZVJXHYVTCNGMZF7UY9OFBUY,5,6
64,4,object_04,object_07,953.0,8,1,209.5,0.8888888888888888,2,object_09,1,764,0,6,8,restaurant_8,2,memory-2step-stake-s,570,1957963,0.0-19.0-0.0-0.64,A31A1PVXLJBISZ,31KPKEKW5DTYWQJ2Z73D1GA4ZNDB00,3RANCT1ZVJXHYVTCNGMZF7UY9OFBUY,8,7
65,4,object_04,object_07,913.5,8,1,465.60000002384,0.5555555555555556,2,object_09,1,769,0,5,5,restaurant_6,2,memory-2step-stake-s,571,1966170,0.0-19.0-0.0-0.65,A31A1PVXLJBISZ,31KPKEKW5DTYWQJ2Z73D1GA4ZNDB00,3RANCT1ZVJXHYVTCNGMZF7UY9OFBUY,8,7
66,2,object_06,object_01,843.10000002384,3,1,418.5,0.4444444444444444,1,object_05,5,789,0,4,4,forest_2,2,memory-2step-stake-s,572,1974222,0.0-19.0-0.0-0.66,A31A1PVXLJBISZ,31KPKEKW5DTYWQJ2Z73D1GA4ZNDB00,3RANCT1ZVJXHYVTCNGMZF7UY9OFBUY,3,4
67,4,object_04,object_07,-1.0,-1,-1,-1.0,0.0,-,0,1,789,0,3,5,restaurant_1,2,memory-2step-stake-s,573,1980738,0.0-19.0-0.0-0.67,A31A1PVXLJBISZ,31KPKEKW5DTYWQJ2Z73D1GA4ZNDB00,3RANCT1ZVJXHYVTCNGMZF7UY9OFBUY,8,7
68,2,object_06,object_01,732.80000001192,4,2,556.69999998808,0.0,2,object_09,1,789,0,4,0,forest_3,2,memory-2step-stake-s,574,1988518,0.0-19.0-0.0-0.68,A31A1PVXLJBISZ,31KPKEKW5DTYWQJ2Z73D1GA4ZNDB00,3RANCT1ZVJXHYVTCNGMZF7UY9OFBUY,3,4
69,2,object_06,object_01,1032.8000000119,3,1,586.69999998808,0.4444444444444444,1,object_05,5,809,0,4,2,forest_1,2,memory-2step-stake-s,575,1996749,0.0-19.0-0.0-0.69,A31A1PVXLJBISZ,31KPKEKW5DTYWQJ2Z73D1GA4ZNDB00,3RANCT1ZVJXHYVTCNGMZF7UY9OFBUY,3,4
70,4,object_07,object_04,877.89999997616,8,2,875.59999996424,0.5555555555555556,2,object_09,1,814,0,7,5,restaurant_6,2,memory-2step-stake-s,576,2005352,0.0-19.0-0.0-0.70,A31A1PVXLJBISZ,31KPKEKW5DTYWQJ2Z73D1GA4ZNDB00,3RANCT1ZVJXHYVTCNGMZF7UY9OFBUY,7,8
71,3,object_10,object_03,697.29999995232,5,1,1052.6999999881,0.4444444444444444,1,object_05,1,818,0,4,7,library_1,2,memory-2step-stake-s,577,2014026,0.0-19.0-0.0-0.71,A31A1PVXLJBISZ,31KPKEKW5DTYWQJ2Z73D1GA4ZNDB00,3RANCT1ZVJXHYVTCNGMZF7UY9OFBUY,5,6
72,3,object_10,object_03,1000.4000000358,6,2,555.29999995232,0.6666666666666666,2,object_09,1,824,0,1,6,library_7,2,memory-2step-stake-s,578,2022415,0.0-19.0-0.0-0.72,A31A1PVXLJBISZ,31KPKEKW5DTYWQJ2Z73D1GA4ZNDB00,3RANCT1ZVJXHYVTCNGMZF7UY9OFBUY,5,6
73,3,object_03,object_10,1309.1000000238,6,1,861.29999995232,0.3333333333333333,2,object_09,1,827,0,0,3,library_6,2,memory-2step-stake-s,579,2030799,0.0-19.0-0.0-0.73,A31A1PVXLJBISZ,31KPKEKW5DTYWQJ2Z73D1GA4ZNDB00,3RANCT1ZVJXHYVTCNGMZF7UY9OFBUY,6,5
74,3,object_03,object_10,-1.0,-1,-1,-1.0,0.0,-,0,1,827,0,0,5,library_6,2,memory-2step-stake-s,580,2037313,0.0-19.0-0.0-0.74,A31A1PVXLJBISZ,31KPKEKW5DTYWQJ2Z73D1GA4ZNDB00,3RANCT1ZVJXHYVTCNGMZF7UY9OFBUY,6,5
75,1,object_02,object_08,1005.6999999881,2,2,368.69999998808,0.8888888888888888,2,object_09,5,867,0,0,8,desert_5,2,memory-2step-stake-s,581,2045718,0.0-19.0-0.0-0.75,A31A1PVXLJBISZ,31KPKEKW5DTYWQJ2Z73D1GA4ZNDB00,3RANCT1ZVJXHYVTCNGMZF7UY9OFBUY,1,2
76,3,object_03,object_10,687.19999998808,6,1,1050.0,1.0,2,object_09,1,876,0,1,9,library_8,2,memory-2step-stake-s,582,2054901,0.0-19.0-0.0-0.76,A31A1PVXLJBISZ,31KPKEKW5DTYWQJ2Z73D1GA4ZNDB00,3RANCT1ZVJXHYVTCNGMZF7UY9OFBUY,6,5
77,2,object_01,object_06,1050.3000000119,4,1,548.20000004768,0.8888888888888888,2,object_09,5,916,0,4,8,forest_2,2,memory-2step-stake-s,583,2063483,0.0-19.0-0.0-0.77,A31A1PVXLJBISZ,31KPKEKW5DTYWQJ2Z73D1GA4ZNDB00,3RANCT1ZVJXHYVTCNGMZF7UY9OFBUY,4,3
78,3,object_03,object_10,716.80000001192,5,2,417.19999998808,0.6666666666666666,1,object_05,1,922,0,6,7,library_1,2,memory-2step-stake-s,584,2071730,0.0-19.0-0.0-0.78,A31A1PVXLJBISZ,31KPKEKW5DTYWQJ2Z73D1GA4ZNDB00,3RANCT1ZVJXHYVTCNGMZF7UY9OFBUY,6,5
79,1,object_02,object_08,1276.0,2,2,615.30000001192,1.0,2,object_09,5,967,0,3,9,desert_5,2,memory-2step-stake-s,585,2080481,0.0-19.0-0.0-0.79,A31A1PVXLJBISZ,31KPKEKW5DTYWQJ2Z73D1GA4ZNDB00,3RANCT1ZVJXHYVTCNGMZF7UY9OFBUY,1,2
80,4,object_04,object_07,836.80000001192,8,1,557.69999998808,0.8888888888888888,2,object_09,1,975,0,2,8,restaurant_1,2,memory-2step-stake-s,586,2089073,0.0-19.0-0.0-0.80,A31A1PVXLJBISZ,31KPKEKW5DTYWQJ2Z73D1GA4ZNDB00,3RANCT1ZVJXHYVTCNGMZF7UY9OFBUY,8,7
81,2,object_06,object_01,697.10000002384,3,1,1090.3999999762,0.5555555555555556,1,object_05,5,1000,0,5,7,forest_2,2,memory-2step-stake-s,587,2097894,0.0-19.0-0.0-0.81,A31A1PVXLJBISZ,31KPKEKW5DTYWQJ2Z73D1GA4ZNDB00,3RANCT1ZVJXHYVTCNGMZF7UY9OFBUY,3,4
82,2,object_01,object_06,706.70000004768,4,1,594.5,0.6666666666666666,2,object_09,5,1030,0,6,6,forest_2,2,memory-2step-stake-s,588,2106324,0.0-19.0-0.0-0.82,A31A1PVXLJBISZ,31KPKEKW5DTYWQJ2Z73D1GA4ZNDB00,3RANCT1ZVJXHYVTCNGMZF7UY9OFBUY,4,3
83,3,object_03,object_10,936.0,5,2,993.5,0.8888888888888888,1,object_05,1,1038,0,8,6,library_8,2,memory-2step-stake-s,589,2115360,0.0-19.0-0.0-0.83,A31A1PVXLJBISZ,31KPKEKW5DTYWQJ2Z73D1GA4ZNDB00,3RANCT1ZVJXHYVTCNGMZF7UY9OFBUY,6,5
84,4,object_04,object_07,607.30000001192,8,1,877.79999995232,0.2222222222222222,2,object_09,5,1048,0,8,2,restaurant_4,2,memory-2step-stake-s,590,2123662,0.0-19.0-0.0-0.84,A31A1PVXLJBISZ,31KPKEKW5DTYWQJ2Z73D1GA4ZNDB00,3RANCT1ZVJXHYVTCNGMZF7UY9OFBUY,8,7
85,2,object_01,object_06,883.69999998808,4,1,552.19999998808,0.4444444444444444,2,object_09,1,1052,0,7,4,forest_2,2,memory-2step-stake-s,591,2131841,0.0-19.0-0.0-0.85,A31A1PVXLJBISZ,31KPKEKW5DTYWQJ2Z73D1GA4ZNDB00,3RANCT1ZVJXHYVTCNGMZF7UY9OFBUY,4,3
86,4,object_04,object_07,1059.3999999762,8,1,1432.0,0.3333333333333333,2,object_09,5,1067,0,4,3,restaurant_6,2,memory-2step-stake-s,592,2140801,0.0-19.0-0.0-0.86,A31A1PVXLJBISZ,31KPKEKW5DTYWQJ2Z73D1GA4ZNDB00,3RANCT1ZVJXHYVTCNGMZF7UY9OFBUY,8,7
87,1,object_08,object_02,771.80000001192,2,1,551.30000001192,0.4444444444444444,2,object_09,5,1087,0,8,4,desert_5,2,memory-2step-stake-s,593,2148983,0.0-19.0-0.0-0.87,A31A1PVXLJBISZ,31KPKEKW5DTYWQJ2Z73D1GA4ZNDB00,3RANCT1ZVJXHYVTCNGMZF7UY9OFBUY,2,1
88,1,object_02,object_08,774.40000003576,2,2,618.90000003576,0.5555555555555556,2,object_09,5,1112,0,4,5,desert_4,2,memory-2step-stake-s,594,2157334,0.0-19.0-0.0-0.88,A31A1PVXLJBISZ,31KPKEKW5DTYWQJ2Z73D1GA4ZNDB00,3RANCT1ZVJXHYVTCNGMZF7UY9OFBUY,1,2
89,2,object_06,object_01,637.60000002384,3,1,629.80000001192,0.2222222222222222,1,object_05,5,1122,0,2,3,forest_2,2,memory-2step-stake-s,595,2165387,0.0-19.0-0.0-0.89,A31A1PVXLJBISZ,31KPKEKW5DTYWQJ2Z73D1GA4ZNDB00,3RANCT1ZVJXHYVTCNGMZF7UY9OFBUY,3,4
90,3,object_03,object_10,1034.8000000119,5,2,404.80000001192,0.3333333333333333,1,object_05,5,1137,0,3,3,library_8,2,memory-2step-stake-s,596,2173316,0.0-19.0-0.0-0.90,A31A1PVXLJBISZ,31KPKEKW5DTYWQJ2Z73D1GA4ZNDB00,3RANCT1ZVJXHYVTCNGMZF7UY9OFBUY,6,5
91,1,object_08,object_02,841.70000004768,2,1,498.90000003576,0.1111111111111111,2,object_09,5,1142,0,4,1,desert_4,2,memory-2step-stake-s,597,2181137,0.0-19.0-0.0-0.91,A31A1PVXLJBISZ,31KPKEKW5DTYWQJ2Z73D1GA4ZNDB00,3RANCT1ZVJXHYVTCNGMZF7UY9OFBUY,2,1
92,3,object_10,object_03,809.0,6,2,899.5,0.2222222222222222,2,object_09,5,1152,0,4,2,library_1,2,memory-2step-stake-s,598,2189461,0.0-19.0-0.0-0.92,A31A1PVXLJBISZ,31KPKEKW5DTYWQJ2Z73D1GA4ZNDB00,3RANCT1ZVJXHYVTCNGMZF7UY9OFBUY,5,6
93,2,object_01,object_06,1093.8000000119,4,1,648.20000004768,0.3333333333333333,2,object_09,1,1155,0,4,3,forest_3,2,memory-2step-stake-s,599,2197635,0.0-19.0-0.0-0.93,A31A1PVXLJBISZ,31KPKEKW5DTYWQJ2Z73D1GA4ZNDB00,3RANCT1ZVJXHYVTCNGMZF7UY9OFBUY,4,3
94,1,object_08,object_02,740.0,2,1,616.10000002384,0.8888888888888888,2,object_09,5,1195,0,5,8,desert_4,2,memory-2step-stake-s,600,2206283,0.0-19.0-0.0-0.94,A31A1PVXLJBISZ,31KPKEKW5DTYWQJ2Z73D1GA4ZNDB00,3RANCT1ZVJXHYVTCNGMZF7UY9OFBUY,2,1
95,3,object_03,object_10,1144.3000000119,6,1,963.0,1.0,2,object_09,1,1204,0,7,9,library_7,2,memory-2step-stake-s,601,2215380,0.0-19.0-0.0-0.95,A31A1PVXLJBISZ,31KPKEKW5DTYWQJ2Z73D1GA4ZNDB00,3RANCT1ZVJXHYVTCNGMZF7UY9OFBUY,6,5
96,1,object_08,object_02,745.10000002384,2,1,517.59999996424,1.0,2,object_09,5,1249,0,8,9,desert_5,2,memory-2step-stake-s,602,2224037,0.0-19.0-0.0-0.96,A31A1PVXLJBISZ,31KPKEKW5DTYWQJ2Z73D1GA4ZNDB00,3RANCT1ZVJXHYVTCNGMZF7UY9OFBUY,2,1
97,4,object_04,object_07,1050.1999999881,7,2,489.0,1.0,1,object_05,1,1258,0,9,8,restaurant_4,2,memory-2step-stake-s,603,2232663,0.0-19.0-0.0-0.97,A31A1PVXLJBISZ,31KPKEKW5DTYWQJ2Z73D1GA4ZNDB00,3RANCT1ZVJXHYVTCNGMZF7UY9OFBUY,8,7
98,3,object_10,object_03,950.19999998808,6,2,571.39999997616,0.6666666666666666,2,object_09,1,1264,0,7,6,library_1,2,memory-2step-stake-s,604,2241076,0.0-19.0-0.0-0.98,A31A1PVXLJBISZ,31KPKEKW5DTYWQJ2Z73D1GA4ZNDB00,3RANCT1ZVJXHYVTCNGMZF7UY9OFBUY,5,6
99,2,object_06,object_01,1188.6000000238,4,2,81.300000011921,0.1111111111111111,2,object_09,5,1269,0,9,1,forest_1,2,memory-2step-stake-s,605,2248482,0.0-19.0-0.0-0.99,A31A1PVXLJBISZ,31KPKEKW5DTYWQJ2Z73D1GA4ZNDB00,3RANCT1ZVJXHYVTCNGMZF7UY9OFBUY,3,4
100,3,object_10,object_03,1075.8999999762,6,2,635.69999998808,0.1111111111111111,2,object_09,1,1270,0,6,1,library_1,2,memory-2step-stake-s,606,2256442,0.0-19.0-0.0-0.100,A31A1PVXLJBISZ,31KPKEKW5DTYWQJ2Z73D1GA4ZNDB00,3RANCT1ZVJXHYVTCNGMZF7UY9OFBUY,5,6
101,4,object_04,object_07,1093.3000000119,8,1,546.10000002384,0.3333333333333333,2,object_09,5,1285,0,9,3,restaurant_1,2,memory-2step-stake-s,607,2264516,0.0-19.0-0.0-0.101,A31A1PVXLJBISZ,31KPKEKW5DTYWQJ2Z73D1GA4ZNDB00,3RANCT1ZVJXHYVTCNGMZF7UY9OFBUY,8,7
102,1,object_08,object_02,718.19999998808,2,1,810.60000002384,0.5555555555555556,2,object_09,5,1310,0,8,5,desert_8,2,memory-2step-stake-s,608,2273059,0.0-19.0-0.0-0.102,A31A1PVXLJBISZ,31KPKEKW5DTYWQJ2Z73D1GA4ZNDB00,3RANCT1ZVJXHYVTCNGMZF7UY9OFBUY,2,1
103,3,object_03,object_10,958.19999998808,6,1,-1.0,0.0,2,object_09,1,1310,0,8,2,library_8,2,memory-2step-stake-s,609,2281579,0.0-19.0-0.0-0.103,A31A1PVXLJBISZ,31KPKEKW5DTYWQJ2Z73D1GA4ZNDB00,3RANCT1ZVJXHYVTCNGMZF7UY9OFBUY,6,5
104,2,object_06,object_01,945.90000003576,4,2,575.80000001192,0.1111111111111111,2,object_09,5,1315,0,8,1,forest_3,2,memory-2step-stake-s,610,2289480,0.0-19.0-0.0-0.104,A31A1PVXLJBISZ,31KPKEKW5DTYWQJ2Z73D1GA4ZNDB00,3RANCT1ZVJXHYVTCNGMZF7UY9OFBUY,3,4
105,4,object_07,object_04,967.10000002384,8,2,645.30000001192,0.3333333333333333,2,object_09,1,1318,0,8,3,restaurant_6,2,memory-2step-stake-s,611,2297654,0.0-19.0-0.0-0.105,A31A1PVXLJBISZ,31KPKEKW5DTYWQJ2Z73D1GA4ZNDB00,3RANCT1ZVJXHYVTCNGMZF7UY9OFBUY,7,8
106,3,object_10,object_03,1033.1000000238,5,1,701.89999997616,0.6666666666666666,1,object_05,1,1324,0,6,4,library_8,2,memory-2step-stake-s,612,2306189,0.0-19.0-0.0-0.106,A31A1PVXLJBISZ,31KPKEKW5DTYWQJ2Z73D1GA4ZNDB00,3RANCT1ZVJXHYVTCNGMZF7UY9OFBUY,5,6
107,1,object_02,object_08,575.10000002384,2,2,717.19999998808,0.6666666666666666,2,object_09,5,1354,0,8,6,desert_3,2,memory-2step-stake-s,613,2314739,0.0-19.0-0.0-0.107,A31A1PVXLJBISZ,31KPKEKW5DTYWQJ2Z73D1GA4ZNDB00,3RANCT1ZVJXHYVTCNGMZF7UY9OFBUY,1,2
108,3,object_10,object_03,713.69999998808,5,1,401.19999998808,0.7777777777777778,1,object_05,1,1361,0,7,6,library_8,2,memory-2step-stake-s,614,2323080,0.0-19.0-0.0-0.108,A31A1PVXLJBISZ,31KPKEKW5DTYWQJ2Z73D1GA4ZNDB00,3RANCT1ZVJXHYVTCNGMZF7UY9OFBUY,5,6
109,1,object_08,object_02,905.40000003576,2,1,98.300000011921,1.0,2,object_09,1,1370,0,7,9,desert_3,2,memory-2step-stake-s,615,2331318,0.0-19.0-0.0-0.109,A31A1PVXLJBISZ,31KPKEKW5DTYWQJ2Z73D1GA4ZNDB00,3RANCT1ZVJXHYVTCNGMZF7UY9OFBUY,2,1
110,4,object_07,object_04,863.30000001192,7,1,457.40000003576,0.6666666666666666,1,object_05,5,1400,0,6,7,restaurant_1,2,memory-2step-stake-s,616,2339604,0.0-19.0-0.0-0.110,A31A1PVXLJBISZ,31KPKEKW5DTYWQJ2Z73D1GA4ZNDB00,3RANCT1ZVJXHYVTCNGMZF7UY9OFBUY,7,8
111,3,object_03,object_10,1078.6000000238,6,1,741.0,0.6666666666666666,2,object_09,5,1430,0,6,6,library_6,2,memory-2step-stake-s,617,2348183,0.0-19.0-0.0-0.111,A31A1PVXLJBISZ,31KPKEKW5DTYWQJ2Z73D1GA4ZNDB00,3RANCT1ZVJXHYVTCNGMZF7UY9OFBUY,6,5
112,3,object_10,object_03,1226.4000000358,6,2,558.80000001192,0.5555555555555556,2,object_09,1,1435,0,8,5,library_7,2,memory-2step-stake-s,618,2356487,0.0-19.0-0.0-0.112,A31A1PVXLJBISZ,31KPKEKW5DTYWQJ2Z73D1GA4ZNDB00,3RANCT1ZVJXHYVTCNGMZF7UY9OFBUY,5,6
113,2,object_01,object_06,1130.2999999523,4,1,588.30000001192,0.1111111111111111,2,object_09,1,1436,0,4,1,forest_4,2,memory-2step-stake-s,619,2364396,0.0-19.0-0.0-0.113,A31A1PVXLJBISZ,31KPKEKW5DTYWQJ2Z73D1GA4ZNDB00,3RANCT1ZVJXHYVTCNGMZF7UY9OFBUY,4,3
114,3,object_10,object_03,825.79999995232,5,1,522.80000001192,0.5555555555555556,1,object_05,5,1461,0,5,0,library_1,2,memory-2step-stake-s,620,2372643,0.0-19.0-0.0-0.114,A31A1PVXLJBISZ,31KPKEKW5DTYWQJ2Z73D1GA4ZNDB00,3RANCT1ZVJXHYVTCNGMZF7UY9OFBUY,5,6
115,4,object_04,object_07,869.59999996424,8,1,654.30000001192,0.1111111111111111,2,object_09,1,1462,0,3,1,restaurant_8,2,memory-2step-stake-s,621,2380622,0.0-19.0-0.0-0.115,A31A1PVXLJBISZ,31KPKEKW5DTYWQJ2Z73D1GA4ZNDB00,3RANCT1ZVJXHYVTCNGMZF7UY9OFBUY,8,7
116,3,object_03,object_10,1000.5999999642,6,1,818.19999998808,0.1111111111111111,2,object_09,1,1463,0,3,1,library_6,2,memory-2step-stake-s,622,2388763,0.0-19.0-0.0-0.116,A31A1PVXLJBISZ,31KPKEKW5DTYWQJ2Z73D1GA4ZNDB00,3RANCT1ZVJXHYVTCNGMZF7UY9OFBUY,6,5
117,3,object_10,object_03,988.0,6,2,553.60000002384,0.4444444444444444,2,object_09,1,1467,0,3,4,library_6,2,memory-2step-stake-s,623,2396941,0.0-19.0-0.0-0.117,A31A1PVXLJBISZ,31KPKEKW5DTYWQJ2Z73D1GA4ZNDB00,3RANCT1ZVJXHYVTCNGMZF7UY9OFBUY,5,6
118,4,object_07,object_04,885.19999998808,8,2,95.099999964237,0.5555555555555556,2,object_09,1,1472,0,2,5,restaurant_8,2,memory-2step-stake-s,624,2404767,0.0-19.0-0.0-0.118,A31A1PVXLJBISZ,31KPKEKW5DTYWQJ2Z73D1GA4ZNDB00,3RANCT1ZVJXHYVTCNGMZF7UY9OFBUY,7,8
119,3,object_03,object_10,991.79999995232,5,2,579.80000001192,0.2222222222222222,1,object_05,1,1474,0,2,2,library_8,2,memory-2step-stake-s,625,2412770,0.0-19.0-0.0-0.119,A31A1PVXLJBISZ,31KPKEKW5DTYWQJ2Z73D1GA4ZNDB00,3RANCT1ZVJXHYVTCNGMZF7UY9OFBUY,6,5
120,4,object_04,object_07,787.30000001192,8,1,614.40000003576,0.3333333333333333,2,object_09,1,1477,0,4,3,restaurant_8,2,memory-2step-stake-s,626,2420913,0.0-19.0-0.0-0.120,A31A1PVXLJBISZ,31KPKEKW5DTYWQJ2Z73D1GA4ZNDB00,3RANCT1ZVJXHYVTCNGMZF7UY9OFBUY,8,7
121,1,object_02,object_08,831.10000002384,2,2,750.5,0.6666666666666666,2,object_09,1,1483,0,7,6,desert_8,2,memory-2step-stake-s,627,2429492,0.0-19.0-0.0-0.121,A31A1PVXLJBISZ,31KPKEKW5DTYWQJ2Z73D1GA4ZNDB00,3RANCT1ZVJXHYVTCNGMZF7UY9OFBUY,1,2
122,3,object_10,object_03,830.40000003576,5,1,652.0,0.6666666666666666,1,object_05,1,1489,0,6,8,library_6,2,memory-2step-stake-s,628,2437983,0.0-19.0-0.0-0.122,A31A1PVXLJBISZ,31KPKEKW5DTYWQJ2Z73D1GA4ZNDB00,3RANCT1ZVJXHYVTCNGMZF7UY9OFBUY,5,6
123,2,object_01,object_06,1112.1999999881,3,2,592.40000003576,0.7777777777777778,1,object_05,5,1524,0,7,8,forest_1,2,memory-2step-stake-s,629,2446506,0.0-19.0-0.0-0.123,A31A1PVXLJBISZ,31KPKEKW5DTYWQJ2Z73D1GA4ZNDB00,3RANCT1ZVJXHYVTCNGMZF7UY9OFBUY,4,3
124,2,object_06,object_01,1295.6000000238,3,1,962.19999998808,0.4444444444444444,1,object_05,5,1544,0,4,6,forest_1,2,memory-2step-stake-s,630,2455097,0.0-19.0-0.0-0.124,A31A1PVXLJBISZ,31KPKEKW5DTYWQJ2Z73D1GA4ZNDB00,3RANCT1ZVJXHYVTCNGMZF7UY9OFBUY,3,4
125,2,object_01,object_06,762.39999997616,3,2,479.80000001192,0.8888888888888888,1,object_05,5,1584,0,8,9,forest_4,2,memory-2step-stake-s,631,2463607,0.0-19.0-0.0-0.125,A31A1PVXLJBISZ,31KPKEKW5DTYWQJ2Z73D1GA4ZNDB00,3RANCT1ZVJXHYVTCNGMZF7UY9OFBUY,4,3
126,4,object_07,object_04,964.5,8,2,551.70000004768,0.8888888888888888,2,object_09,5,1624,0,8,8,restaurant_6,2,memory-2step-stake-s,632,2472188,0.0-19.0-0.0-0.126,A31A1PVXLJBISZ,31KPKEKW5DTYWQJ2Z73D1GA4ZNDB00,3RANCT1ZVJXHYVTCNGMZF7UY9OFBUY,7,8
127,3,object_10,object_03,980.10000002384,6,2,721.30000001192,0.8888888888888888,2,object_09,1,1632,0,8,8,library_7,2,memory-2step-stake-s,633,2480937,0.0-19.0-0.0-0.127,A31A1PVXLJBISZ,31KPKEKW5DTYWQJ2Z73D1GA4ZNDB00,3RANCT1ZVJXHYVTCNGMZF7UY9OFBUY,5,6
128,1,object_08,object_02,776.0,2,1,652.30000001192,0.7777777777777778,2,object_09,5,1667,0,8,7,desert_4,2,memory-2step-stake-s,635,2512734,0.0-19.0-0.1-0.128,A31A1PVXLJBISZ,31KPKEKW5DTYWQJ2Z73D1GA4ZNDB00,3RANCT1ZVJXHYVTCNGMZF7UY9OFBUY,2,1
129,2,object_06,object_01,822.0,3,1,410.80000001192,0.7777777777777778,1,object_05,1,1674,0,7,8,forest_1,2,memory-2step-stake-s,636,2521080,0.0-19.0-0.1-0.129,A31A1PVXLJBISZ,31KPKEKW5DTYWQJ2Z73D1GA4ZNDB00,3RANCT1ZVJXHYVTCNGMZF7UY9OFBUY,3,4
130,3,object_10,object_03,849.40000003576,6,2,492.60000002384,0.6666666666666666,2,object_09,5,1704,0,4,6,library_6,2,memory-2step-stake-s,637,2529403,0.0-19.0-0.1-0.130,A31A1PVXLJBISZ,31KPKEKW5DTYWQJ2Z73D1GA4ZNDB00,3RANCT1ZVJXHYVTCNGMZF7UY9OFBUY,5,6
131,3,object_03,object_10,1027.5,6,1,310.0,0.1111111111111111,2,object_09,1,1705,0,6,1,library_1,2,memory-2step-stake-s,638,2537052,0.0-19.0-0.1-0.131,A31A1PVXLJBISZ,31KPKEKW5DTYWQJ2Z73D1GA4ZNDB00,3RANCT1ZVJXHYVTCNGMZF7UY9OFBUY,6,5
132,2,object_06,object_01,-1.0,-1,-1,-1.0,0.0,-,0,5,1705,0,7,2,forest_4,2,memory-2step-stake-s,639,2543571,0.0-19.0-0.1-0.132,A31A1PVXLJBISZ,31KPKEKW5DTYWQJ2Z73D1GA4ZNDB00,3RANCT1ZVJXHYVTCNGMZF7UY9OFBUY,3,4
133,3,object_10,object_03,972.30000001192,6,2,507.60000002384,0.3333333333333333,2,object_09,1,1708,0,7,3,library_1,2,memory-2step-stake-s,640,2551604,0.0-19.0-0.1-0.133,A31A1PVXLJBISZ,31KPKEKW5DTYWQJ2Z73D1GA4ZNDB00,3RANCT1ZVJXHYVTCNGMZF7UY9OFBUY,5,6
134,3,object_10,object_03,1066.3000000119,6,2,566.30000001192,0.1111111111111111,2,object_09,1,1709,0,6,1,library_6,2,memory-2step-stake-s,641,2559496,0.0-19.0-0.1-0.134,A31A1PVXLJBISZ,31KPKEKW5DTYWQJ2Z73D1GA4ZNDB00,3RANCT1ZVJXHYVTCNGMZF7UY9OFBUY,5,6
135,3,object_03,object_10,911.69999998808,5,2,520.10000002384,0.6666666666666666,1,object_05,1,1715,0,6,4,library_8,2,memory-2step-stake-s,642,2567847,0.0-19.0-0.1-0.135,A31A1PVXLJBISZ,31KPKEKW5DTYWQJ2Z73D1GA4ZNDB00,3RANCT1ZVJXHYVTCNGMZF7UY9OFBUY,6,5
136,4,object_04,object_07,1130.0999999642,8,1,525.0,0.2222222222222222,2,object_09,5,1725,0,5,2,restaurant_8,2,memory-2step-stake-s,643,2575796,0.0-19.0-0.1-0.136,A31A1PVXLJBISZ,31KPKEKW5DTYWQJ2Z73D1GA4ZNDB00,3RANCT1ZVJXHYVTCNGMZF7UY9OFBUY,8,7
137,1,object_08,object_02,797.89999997616,2,1,356.90000003576,0.1111111111111111,2,object_09,5,1730,0,5,1,desert_8,2,memory-2step-stake-s,644,2583481,0.0-19.0-0.1-0.137,A31A1PVXLJBISZ,31KPKEKW5DTYWQJ2Z73D1GA4ZNDB00,3RANCT1ZVJXHYVTCNGMZF7UY9OFBUY,2,1
138,3,object_10,object_03,-1.0,-1,-1,-1.0,0.0,-,0,1,1730,0,6,0,library_8,2,memory-2step-stake-s,645,2589997,0.0-19.0-0.1-0.138,A31A1PVXLJBISZ,31KPKEKW5DTYWQJ2Z73D1GA4ZNDB00,3RANCT1ZVJXHYVTCNGMZF7UY9OFBUY,5,6
139,4,object_07,object_04,1024.0,8,2,668.40000003576,0.1111111111111111,2,object_09,1,1731,0,6,1,restaurant_1,2,memory-2step-stake-s,646,2597986,0.0-19.0-0.1-0.139,A31A1PVXLJBISZ,31KPKEKW5DTYWQJ2Z73D1GA4ZNDB00,3RANCT1ZVJXHYVTCNGMZF7UY9OFBUY,7,8
140,2,object_06,object_01,822.0,3,1,897.5,0.6666666666666666,1,object_05,1,1737,0,6,1,forest_4,2,memory-2step-stake-s,647,2606714,0.0-19.0-0.1-0.140,A31A1PVXLJBISZ,31KPKEKW5DTYWQJ2Z73D1GA4ZNDB00,3RANCT1ZVJXHYVTCNGMZF7UY9OFBUY,3,4
141,1,object_08,object_02,1026.5,1,2,563.0,0.5555555555555556,1,object_05,1,1742,0,5,3,desert_5,2,memory-2step-stake-s,648,2615023,0.0-19.0-0.1-0.141,A31A1PVXLJBISZ,31KPKEKW5DTYWQJ2Z73D1GA4ZNDB00,3RANCT1ZVJXHYVTCNGMZF7UY9OFBUY,2,1
142,3,object_10,object_03,986.69999998808,5,1,206.89999997616,0.4444444444444444,1,object_05,1,1746,0,4,4,library_1,2,memory-2step-stake-s,649,2622859,0.0-19.0-0.1-0.142,A31A1PVXLJBISZ,31KPKEKW5DTYWQJ2Z73D1GA4ZNDB00,3RANCT1ZVJXHYVTCNGMZF7UY9OFBUY,5,6
143,4,object_07,object_04,949.69999998808,7,1,445.89999997616,0.3333333333333333,1,object_05,1,1749,0,3,1,restaurant_8,2,memory-2step-stake-s,650,2630829,0.0-19.0-0.1-0.143,A31A1PVXLJBISZ,31KPKEKW5DTYWQJ2Z73D1GA4ZNDB00,3RANCT1ZVJXHYVTCNGMZF7UY9OFBUY,7,8
144,1,object_02,object_08,842.59999996424,1,1,552.80000001192,0.2222222222222222,1,object_05,5,1759,0,2,1,desert_3,2,memory-2step-stake-s,651,2638802,0.0-19.0-0.1-0.144,A31A1PVXLJBISZ,31KPKEKW5DTYWQJ2Z73D1GA4ZNDB00,3RANCT1ZVJXHYVTCNGMZF7UY9OFBUY,1,2
145,1,object_02,object_08,805.79999995232,1,1,436.60000002384,0.3333333333333333,1,object_05,5,1774,0,3,5,desert_3,2,memory-2step-stake-s,652,2646760,0.0-19.0-0.1-0.145,A31A1PVXLJBISZ,31KPKEKW5DTYWQJ2Z73D1GA4ZNDB00,3RANCT1ZVJXHYVTCNGMZF7UY9OFBUY,1,2
146,1,object_02,object_08,726.69999998808,1,1,456.0,0.6666666666666666,1,object_05,5,1804,0,6,7,desert_3,2,memory-2step-stake-s,653,2655043,0.0-19.0-0.1-0.146,A31A1PVXLJBISZ,31KPKEKW5DTYWQJ2Z73D1GA4ZNDB00,3RANCT1ZVJXHYVTCNGMZF7UY9OFBUY,1,2
147,1,object_02,object_08,849.30000001192,1,1,440.39999997616,0.3333333333333333,1,object_05,1,1807,0,3,9,desert_3,2,memory-2step-stake-s,654,2663009,0.0-19.0-0.1-0.147,A31A1PVXLJBISZ,31KPKEKW5DTYWQJ2Z73D1GA4ZNDB00,3RANCT1ZVJXHYVTCNGMZF7UY9OFBUY,1,2
148,3,object_10,object_03,1255.6000000238,5,1,524.5,0.3333333333333333,1,object_05,1,1810,0,3,7,library_1,2,memory-2step-stake-s,655,2671058,0.0-19.0-0.1-0.148,A31A1PVXLJBISZ,31KPKEKW5DTYWQJ2Z73D1GA4ZNDB00,3RANCT1ZVJXHYVTCNGMZF7UY9OFBUY,5,6
149,1,object_08,object_02,998.0,1,2,618.60000002384,0.2222222222222222,1,object_05,5,1820,0,2,3,desert_3,2,memory-2step-stake-s,656,2679102,0.0-19.0-0.1-0.149,A31A1PVXLJBISZ,31KPKEKW5DTYWQJ2Z73D1GA4ZNDB00,3RANCT1ZVJXHYVTCNGMZF7UY9OFBUY,2,1
150,2,object_06,object_01,1009.8000000119,3,1,621.80000001192,0.3333333333333333,1,object_05,5,1835,0,3,1,forest_1,2,memory-2step-stake-s,657,2687253,0.0-19.0-0.1-0.150,A31A1PVXLJBISZ,31KPKEKW5DTYWQJ2Z73D1GA4ZNDB00,3RANCT1ZVJXHYVTCNGMZF7UY9OFBUY,3,4
151,3,object_03,object_10,985.10000002384,5,2,594.5,0.6666666666666666,1,object_05,1,1841,0,6,1,library_6,2,memory-2step-stake-s,658,2695679,0.0-19.0-0.1-0.151,A31A1PVXLJBISZ,31KPKEKW5DTYWQJ2Z73D1GA4ZNDB00,3RANCT1ZVJXHYVTCNGMZF7UY9OFBUY,6,5
152,2,object_01,object_06,986.19999998808,3,2,522.5,0.6666666666666666,1,object_05,1,1847,0,6,4,forest_4,2,memory-2step-stake-s,659,2704030,0.0-19.0-0.1-0.152,A31A1PVXLJBISZ,31KPKEKW5DTYWQJ2Z73D1GA4ZNDB00,3RANCT1ZVJXHYVTCNGMZF7UY9OFBUY,4,3
153,1,object_02,object_08,762.59999996424,1,1,396.89999997616,0.5555555555555556,1,object_05,5,1872,0,5,3,desert_3,2,memory-2step-stake-s,660,2712152,0.0-19.0-0.1-0.153,A31A1PVXLJBISZ,31KPKEKW5DTYWQJ2Z73D1GA4ZNDB00,3RANCT1ZVJXHYVTCNGMZF7UY9OFBUY,1,2
154,4,object_04,object_07,999.19999998808,7,2,492.10000002384,0.5555555555555556,1,object_05,5,1897,0,5,4,restaurant_8,2,memory-2step-stake-s,661,2720374,0.0-19.0-0.1-0.154,A31A1PVXLJBISZ,31KPKEKW5DTYWQJ2Z73D1GA4ZNDB00,3RANCT1ZVJXHYVTCNGMZF7UY9OFBUY,8,7
155,1,object_02,object_08,779.30000001192,1,1,637.40000003576,0.0,1,object_05,5,1897,0,0,4,desert_5,2,memory-2step-stake-s,662,2728230,0.0-19.0-0.1-0.155,A31A1PVXLJBISZ,31KPKEKW5DTYWQJ2Z73D1GA4ZNDB00,3RANCT1ZVJXHYVTCNGMZF7UY9OFBUY,1,2
156,3,object_03,object_10,1167.5,5,2,464.59999996424,0.2222222222222222,1,object_05,1,1899,0,2,2,library_7,2,memory-2step-stake-s,663,2736139,0.0-19.0-0.1-0.156,A31A1PVXLJBISZ,31KPKEKW5DTYWQJ2Z73D1GA4ZNDB00,3RANCT1ZVJXHYVTCNGMZF7UY9OFBUY,6,5
157,1,object_08,object_02,1057.1999999881,1,2,920.30000001192,0.2222222222222222,1,object_05,1,1901,0,2,0,desert_3,2,memory-2step-stake-s,664,2744483,0.0-19.0-0.1-0.157,A31A1PVXLJBISZ,31KPKEKW5DTYWQJ2Z73D1GA4ZNDB00,3RANCT1ZVJXHYVTCNGMZF7UY9OFBUY,2,1
158,3,object_03,object_10,865.19999998808,6,1,364.39999997616,0.1111111111111111,2,object_09,1,1902,0,1,1,library_6,2,memory-2step-stake-s,665,2752167,0.0-19.0-0.1-0.158,A31A1PVXLJBISZ,31KPKEKW5DTYWQJ2Z73D1GA4ZNDB00,3RANCT1ZVJXHYVTCNGMZF7UY9OFBUY,6,5
159,4,object_07,object_04,882.0,8,2,663.39999997616,0.2222222222222222,2,object_09,1,1904,0,0,2,restaurant_1,2,memory-2step-stake-s,666,2760251,0.0-19.0-0.1-0.159,A31A1PVXLJBISZ,31KPKEKW5DTYWQJ2Z73D1GA4ZNDB00,3RANCT1ZVJXHYVTCNGMZF7UY9OFBUY,7,8
160,2,object_06,object_01,862.60000002384,3,1,406.39999997616,0.0,1,object_05,5,1904,0,0,3,forest_2,2,memory-2step-stake-s,667,2767878,0.0-19.0-0.1-0.160,A31A1PVXLJBISZ,31KPKEKW5DTYWQJ2Z73D1GA4ZNDB00,3RANCT1ZVJXHYVTCNGMZF7UY9OFBUY,3,4
161,1,object_08,object_02,904.80000001192,2,1,414.70000004768,0.1111111111111111,2,object_09,5,1909,0,1,1,desert_4,2,memory-2step-stake-s,668,2775617,0.0-19.0-0.1-0.161,A31A1PVXLJBISZ,31KPKEKW5DTYWQJ2Z73D1GA4ZNDB00,3RANCT1ZVJXHYVTCNGMZF7UY9OFBUY,2,1
162,3,object_10,object_03,1053.5,5,1,1186.3000000119,0.0,1,object_05,1,1909,0,0,2,library_8,2,memory-2step-stake-s,669,2784023,0.0-19.0-0.1-0.162,A31A1PVXLJBISZ,31KPKEKW5DTYWQJ2Z73D1GA4ZNDB00,3RANCT1ZVJXHYVTCNGMZF7UY9OFBUY,5,6
163,4,object_07,object_04,1087.7999999523,7,1,751.5,0.1111111111111111,1,object_05,1,1910,0,1,2,restaurant_1,2,memory-2step-stake-s,670,2792101,0.0-19.0-0.1-0.163,A31A1PVXLJBISZ,31KPKEKW5DTYWQJ2Z73D1GA4ZNDB00,3RANCT1ZVJXHYVTCNGMZF7UY9OFBUY,7,8
164,3,object_03,object_10,902.59999996424,6,1,407.80000001192,0.0,2,object_09,1,1910,0,2,0,library_7,2,memory-2step-stake-s,671,2799729,0.0-19.0-0.1-0.164,A31A1PVXLJBISZ,31KPKEKW5DTYWQJ2Z73D1GA4ZNDB00,3RANCT1ZVJXHYVTCNGMZF7UY9OFBUY,6,5
165,4,object_07,object_04,601.80000001192,8,2,329.5,0.2222222222222222,2,object_09,1,1912,0,4,2,restaurant_4,2,memory-2step-stake-s,672,2807481,0.0-19.0-0.1-0.165,A31A1PVXLJBISZ,31KPKEKW5DTYWQJ2Z73D1GA4ZNDB00,3RANCT1ZVJXHYVTCNGMZF7UY9OFBUY,7,8
166,4,object_07,object_04,1107.6999999881,8,2,476.30000001192,0.2222222222222222,2,object_09,1,1914,0,4,2,restaurant_1,2,memory-2step-stake-s,673,2815383,0.0-19.0-0.1-0.166,A31A1PVXLJBISZ,31KPKEKW5DTYWQJ2Z73D1GA4ZNDB00,3RANCT1ZVJXHYVTCNGMZF7UY9OFBUY,7,8
167,4,object_07,object_04,722.30000001192,7,1,454.60000002384,0.5555555555555556,1,object_05,1,1919,0,5,3,restaurant_6,2,memory-2step-stake-s,674,2823567,0.0-19.0-0.1-0.167,A31A1PVXLJBISZ,31KPKEKW5DTYWQJ2Z73D1GA4ZNDB00,3RANCT1ZVJXHYVTCNGMZF7UY9OFBUY,7,8
168,4,object_04,object_07,1162.5999999642,7,2,510.19999998808,0.4444444444444444,1,object_05,1,1923,0,4,4,restaurant_4,2,memory-2step-stake-s,675,2831709,0.0-19.0-0.1-0.168,A31A1PVXLJBISZ,31KPKEKW5DTYWQJ2Z73D1GA4ZNDB00,3RANCT1ZVJXHYVTCNGMZF7UY9OFBUY,8,7
169,1,object_08,object_02,1152.0,2,1,281.40000003576,0.4444444444444444,2,object_09,1,1927,0,3,4,desert_8,2,memory-2step-stake-s,676,2839617,0.0-19.0-0.1-0.169,A31A1PVXLJBISZ,31KPKEKW5DTYWQJ2Z73D1GA4ZNDB00,3RANCT1ZVJXHYVTCNGMZF7UY9OFBUY,2,1
170,4,object_07,object_04,962.70000004768,7,1,597.90000003576,0.4444444444444444,1,object_05,5,1947,0,4,7,restaurant_4,2,memory-2step-stake-s,677,2847848,0.0-19.0-0.1-0.170,A31A1PVXLJBISZ,31KPKEKW5DTYWQJ2Z73D1GA4ZNDB00,3RANCT1ZVJXHYVTCNGMZF7UY9OFBUY,7,8
171,3,object_10,object_03,931.09999996424,5,1,368.60000002384,0.1111111111111111,1,object_05,1,1948,0,1,4,library_7,2,memory-2step-stake-s,678,2855540,0.0-19.0-0.1-0.171,A31A1PVXLJBISZ,31KPKEKW5DTYWQJ2Z73D1GA4ZNDB00,3RANCT1ZVJXHYVTCNGMZF7UY9OFBUY,5,6
172,1,object_08,object_02,903.30000001192,1,2,434.5,0.4444444444444444,1,object_05,5,1968,0,4,8,desert_5,2,memory-2step-stake-s,679,2863601,0.0-19.0-0.1-0.172,A31A1PVXLJBISZ,31KPKEKW5DTYWQJ2Z73D1GA4ZNDB00,3RANCT1ZVJXHYVTCNGMZF7UY9OFBUY,2,1
173,2,object_01,object_06,962.5,3,2,640.40000003576,0.3333333333333333,1,object_05,5,1983,0,3,5,forest_4,2,memory-2step-stake-s,680,2871766,0.0-19.0-0.1-0.173,A31A1PVXLJBISZ,31KPKEKW5DTYWQJ2Z73D1GA4ZNDB00,3RANCT1ZVJXHYVTCNGMZF7UY9OFBUY,4,3
174,2,object_06,object_01,1327.3000000119,4,2,573.5,0.7777777777777778,2,object_09,5,2018,0,2,7,forest_3,2,memory-2step-stake-s,681,2880269,0.0-19.0-0.1-0.174,A31A1PVXLJBISZ,31KPKEKW5DTYWQJ2Z73D1GA4ZNDB00,3RANCT1ZVJXHYVTCNGMZF7UY9OFBUY,3,4
175,4,object_07,object_04,994.19999998808,7,1,664.10000002384,0.1111111111111111,1,object_05,1,2019,0,1,5,restaurant_6,2,memory-2step-stake-s,682,2888271,0.0-19.0-0.1-0.175,A31A1PVXLJBISZ,31KPKEKW5DTYWQJ2Z73D1GA4ZNDB00,3RANCT1ZVJXHYVTCNGMZF7UY9OFBUY,7,8
176,2,object_01,object_06,798.5,3,2,433.0,0.3333333333333333,1,object_05,5,2034,0,3,7,forest_4,2,memory-2step-stake-s,683,2896233,0.0-19.0-0.1-0.176,A31A1PVXLJBISZ,31KPKEKW5DTYWQJ2Z73D1GA4ZNDB00,3RANCT1ZVJXHYVTCNGMZF7UY9OFBUY,4,3
177,3,object_10,object_03,977.39999997616,6,2,743.69999998808,0.7777777777777778,2,object_09,1,2041,0,3,7,library_7,2,memory-2step-stake-s,684,2904916,0.0-19.0-0.1-0.177,A31A1PVXLJBISZ,31KPKEKW5DTYWQJ2Z73D1GA4ZNDB00,3RANCT1ZVJXHYVTCNGMZF7UY9OFBUY,5,6
178,1,object_08,object_02,933.40000003576,2,1,1031.8000000119,0.6666666666666666,2,object_09,5,2071,0,3,6,desert_5,2,memory-2step-stake-s,685,2913776,0.0-19.0-0.1-0.178,A31A1PVXLJBISZ,31KPKEKW5DTYWQJ2Z73D1GA4ZNDB00,3RANCT1ZVJXHYVTCNGMZF7UY9OFBUY,2,1
179,3,object_10,object_03,986.19999998808,6,2,9.7999999523163,0.6666666666666666,2,object_09,1,2077,0,7,6,library_7,2,memory-2step-stake-s,686,2921614,0.0-19.0-0.1-0.179,A31A1PVXLJBISZ,31KPKEKW5DTYWQJ2Z73D1GA4ZNDB00,3RANCT1ZVJXHYVTCNGMZF7UY9OFBUY,5,6
180,2,object_06,object_01,-1.0,-1,-1,-1.0,0.0,-,0,5,2077,0,7,5,forest_4,2,memory-2step-stake-s,687,2928127,0.0-19.0-0.1-0.180,A31A1PVXLJBISZ,31KPKEKW5DTYWQJ2Z73D1GA4ZNDB00,3RANCT1ZVJXHYVTCNGMZF7UY9OFBUY,3,4
181,1,object_02,object_08,804.30000001192,1,1,434.19999998808,0.7777777777777778,1,object_05,5,2112,0,7,2,desert_5,2,memory-2step-stake-s,688,2936487,0.0-19.0-0.1-0.181,A31A1PVXLJBISZ,31KPKEKW5DTYWQJ2Z73D1GA4ZNDB00,3RANCT1ZVJXHYVTCNGMZF7UY9OFBUY,1,2
182,4,object_07,object_04,825.20000004768,8,2,1068.6999999881,0.4444444444444444,2,object_09,1,2116,0,9,4,restaurant_1,2,memory-2step-stake-s,689,2945186,0.0-19.0-0.1-0.182,A31A1PVXLJBISZ,31KPKEKW5DTYWQJ2Z73D1GA4ZNDB00,3RANCT1ZVJXHYVTCNGMZF7UY9OFBUY,7,8
183,1,object_02,object_08,767.80000001192,1,1,310.80000001192,0.8888888888888888,1,object_05,5,2156,0,8,4,desert_3,2,memory-2step-stake-s,690,2953530,0.0-19.0-0.1-0.183,A31A1PVXLJBISZ,31KPKEKW5DTYWQJ2Z73D1GA4ZNDB00,3RANCT1ZVJXHYVTCNGMZF7UY9OFBUY,1,2
184,2,object_01,object_06,833.40000003576,3,2,665.39999997616,0.6666666666666666,1,object_05,5,2186,0,6,7,forest_4,2,memory-2step-stake-s,691,2962025,0.0-19.0-0.1-0.184,A31A1PVXLJBISZ,31KPKEKW5DTYWQJ2Z73D1GA4ZNDB00,3RANCT1ZVJXHYVTCNGMZF7UY9OFBUY,4,3
185,1,object_02,object_08,661.80000001192,1,1,721.80000001192,0.4444444444444444,1,object_05,5,2206,0,4,8,desert_4,2,memory-2step-stake-s,692,2970374,0.0-19.0-0.1-0.185,A31A1PVXLJBISZ,31KPKEKW5DTYWQJ2Z73D1GA4ZNDB00,3RANCT1ZVJXHYVTCNGMZF7UY9OFBUY,1,2
186,2,object_06,object_01,820.09999996424,3,1,468.0,0.8888888888888888,1,object_05,5,2246,0,8,8,forest_3,2,memory-2step-stake-s,693,2978876,0.0-19.0-0.1-0.186,A31A1PVXLJBISZ,31KPKEKW5DTYWQJ2Z73D1GA4ZNDB00,3RANCT1ZVJXHYVTCNGMZF7UY9OFBUY,3,4
187,2,object_06,object_01,845.19999998808,3,1,342.79999995232,1.0,1,object_05,5,2291,0,9,7,forest_3,2,memory-2step-stake-s,694,2987355,0.0-19.0-0.1-0.187,A31A1PVXLJBISZ,31KPKEKW5DTYWQJ2Z73D1GA4ZNDB00,3RANCT1ZVJXHYVTCNGMZF7UY9OFBUY,3,4
188,3,object_10,object_03,1264.2000000477,6,2,565.59999996424,0.8888888888888888,2,object_09,1,2299,0,7,8,library_6,2,memory-2step-stake-s,695,2995952,0.0-19.0-0.1-0.188,A31A1PVXLJBISZ,31KPKEKW5DTYWQJ2Z73D1GA4ZNDB00,3RANCT1ZVJXHYVTCNGMZF7UY9OFBUY,5,6
189,4,object_07,object_04,837.89999997616,8,2,1289.3000000119,0.8888888888888888,2,object_09,5,2339,0,8,8,restaurant_6,2,memory-2step-stake-s,696,3005270,0.0-19.0-0.1-0.189,A31A1PVXLJBISZ,31KPKEKW5DTYWQJ2Z73D1GA4ZNDB00,3RANCT1ZVJXHYVTCNGMZF7UY9OFBUY,7,8
190,2,object_06,object_01,672.69999998808,3,1,480.0,0.7777777777777778,1,object_05,5,2374,0,7,7,forest_1,2,memory-2step-stake-s,697,3013685,0.0-19.0-0.1-0.190,A31A1PVXLJBISZ,31KPKEKW5DTYWQJ2Z73D1GA4ZNDB00,3RANCT1ZVJXHYVTCNGMZF7UY9OFBUY,3,4
191,2,object_06,object_01,638.10000002384,3,1,627.09999996424,0.7777777777777778,1,object_05,5,2409,0,7,7,forest_2,2,memory-2step-stake-s,698,3022243,0.0-19.0-0.1-0.191,A31A1PVXLJBISZ,31KPKEKW5DTYWQJ2Z73D1GA4ZNDB00,3RANCT1ZVJXHYVTCNGMZF7UY9OFBUY,3,4
192,1,object_08,object_02,851.79999995232,1,2,1034.2999999523,0.4444444444444444,1,object_05,5,2429,0,4,8,desert_5,2,memory-2step-stake-s,699,3030933,0.0-19.0-0.1-0.192,A31A1PVXLJBISZ,31KPKEKW5DTYWQJ2Z73D1GA4ZNDB00,3RANCT1ZVJXHYVTCNGMZF7UY9OFBUY,2,1
193,4,object_04,object_07,940.40000003576,8,1,912.40000003576,0.7777777777777778,2,object_09,1,2436,0,4,7,restaurant_6,2,memory-2step-stake-s,700,3039782,0.0-19.0-0.1-0.193,A31A1PVXLJBISZ,31KPKEKW5DTYWQJ2Z73D1GA4ZNDB00,3RANCT1ZVJXHYVTCNGMZF7UY9OFBUY,8,7
194,1,object_02,object_08,1083.5,1,1,413.09999996424,0.4444444444444444,1,object_05,5,2456,0,4,6,desert_8,2,memory-2step-stake-s,701,3047818,0.0-19.0-0.1-0.194,A31A1PVXLJBISZ,31KPKEKW5DTYWQJ2Z73D1GA4ZNDB00,3RANCT1ZVJXHYVTCNGMZF7UY9OFBUY,1,2
195,1,object_08,object_02,596.10000002384,1,2,111.80000001192,0.4444444444444444,1,object_05,5,2476,0,4,4,desert_3,2,memory-2step-stake-s,702,3055558,0.0-19.0-0.1-0.195,A31A1PVXLJBISZ,31KPKEKW5DTYWQJ2Z73D1GA4ZNDB00,3RANCT1ZVJXHYVTCNGMZF7UY9OFBUY,2,1
196,4,object_07,object_04,1000.3000000119,7,1,401.30000001192,0.6666666666666666,1,object_05,1,2482,0,6,3,restaurant_8,2,memory-2step-stake-s,703,3063786,0.0-19.0-0.1-0.196,A31A1PVXLJBISZ,31KPKEKW5DTYWQJ2Z73D1GA4ZNDB00,3RANCT1ZVJXHYVTCNGMZF7UY9OFBUY,7,8
197,2,object_06,object_01,734.59999996424,3,1,626.5,0.6666666666666666,1,object_05,5,2512,0,6,2,forest_3,2,memory-2step-stake-s,704,3072244,0.0-19.0-0.1-0.197,A31A1PVXLJBISZ,31KPKEKW5DTYWQJ2Z73D1GA4ZNDB00,3RANCT1ZVJXHYVTCNGMZF7UY9OFBUY,3,4
198,2,object_06,object_01,689.40000003576,3,1,876.19999998808,0.5555555555555556,1,object_05,5,2537,0,5,3,forest_3,2,memory-2step-stake-s,705,3080850,0.0-19.0-0.1-0.198,A31A1PVXLJBISZ,31KPKEKW5DTYWQJ2Z73D1GA4ZNDB00,3RANCT1ZVJXHYVTCNGMZF7UY9OFBUY,3,4
199,3,object_10,object_03,-1.0,-1,-1,-1.0,0.0,-,0,1,2537,0,8,3,library_8,2,memory-2step-stake-s,706,3087366,0.0-19.0-0.1-0.199,A31A1PVXLJBISZ,31KPKEKW5DTYWQJ2Z73D1GA4ZNDB00,3RANCT1ZVJXHYVTCNGMZF7UY9OFBUY,5,6
200,2,object_06,object_01,647.60000002384,3,1,619.20000004768,0.4444444444444444,1,object_05,5,2557,0,4,5,forest_4,2,memory-2step-stake-s,707,3095612,0.0-19.0-0.1-0.200,A31A1PVXLJBISZ,31KPKEKW5DTYWQJ2Z73D1GA4ZNDB00,3RANCT1ZVJXHYVTCNGMZF7UY9OFBUY,3,4
201,4,object_04,object_07,943.19999998808,7,2,650.10000002384,0.5555555555555556,1,object_05,1,2562,0,5,8,restaurant_4,2,memory-2step-stake-s,708,3103990,0.0-19.0-0.1-0.201,A31A1PVXLJBISZ,31KPKEKW5DTYWQJ2Z73D1GA4ZNDB00,3RANCT1ZVJXHYVTCNGMZF7UY9OFBUY,8,7
202,2,object_01,object_06,856.10000002384,3,2,619.39999997616,0.4444444444444444,1,object_05,5,2582,0,4,7,forest_3,2,memory-2step-stake-s,709,3112236,0.0-19.0-0.1-0.202,A31A1PVXLJBISZ,31KPKEKW5DTYWQJ2Z73D1GA4ZNDB00,3RANCT1ZVJXHYVTCNGMZF7UY9OFBUY,4,3
203,2,object_06,object_01,599.30000001192,3,1,407.5,0.8888888888888888,1,object_05,1,2590,0,8,7,forest_3,2,memory-2step-stake-s,710,3120707,0.0-19.0-0.1-0.203,A31A1PVXLJBISZ,31KPKEKW5DTYWQJ2Z73D1GA4ZNDB00,3RANCT1ZVJXHYVTCNGMZF7UY9OFBUY,3,4
204,2,object_01,object_06,818.39999997616,4,1,292.89999997616,1.0,2,object_09,5,2635,0,7,9,forest_2,2,memory-2step-stake-s,711,3129140,0.0-19.0-0.1-0.204,A31A1PVXLJBISZ,31KPKEKW5DTYWQJ2Z73D1GA4ZNDB00,3RANCT1ZVJXHYVTCNGMZF7UY9OFBUY,4,3
205,1,object_02,object_08,988.19999998808,2,2,340.60000002384,0.8888888888888888,2,object_09,1,2643,0,4,8,desert_8,2,memory-2step-stake-s,712,3137519,0.0-19.0-0.1-0.205,A31A1PVXLJBISZ,31KPKEKW5DTYWQJ2Z73D1GA4ZNDB00,3RANCT1ZVJXHYVTCNGMZF7UY9OFBUY,1,2
206,1,object_02,object_08,935.69999998808,2,2,441.39999997616,0.8888888888888888,2,object_09,5,2683,0,4,8,desert_3,2,memory-2step-stake-s,713,3145997,0.0-19.0-0.1-0.206,A31A1PVXLJBISZ,31KPKEKW5DTYWQJ2Z73D1GA4ZNDB00,3RANCT1ZVJXHYVTCNGMZF7UY9OFBUY,1,2
207,1,object_02,object_08,637.90000003576,2,2,1103.2000000477,0.8888888888888888,2,object_09,5,2723,0,2,8,desert_8,2,memory-2step-stake-s,714,3155131,0.0-19.0-0.1-0.207,A31A1PVXLJBISZ,31KPKEKW5DTYWQJ2Z73D1GA4ZNDB00,3RANCT1ZVJXHYVTCNGMZF7UY9OFBUY,1,2
208,1,object_02,object_08,678.5,2,2,636.39999997616,0.7777777777777778,2,object_09,1,2730,0,3,7,desert_8,2,memory-2step-stake-s,715,3163700,0.0-19.0-0.1-0.208,A31A1PVXLJBISZ,31KPKEKW5DTYWQJ2Z73D1GA4ZNDB00,3RANCT1ZVJXHYVTCNGMZF7UY9OFBUY,1,2
209,4,object_04,object_07,1143.3000000119,8,1,442.5,0.8888888888888888,2,object_09,1,2738,0,3,8,restaurant_4,2,memory-2step-stake-s,716,3172177,0.0-19.0-0.1-0.209,A31A1PVXLJBISZ,31KPKEKW5DTYWQJ2Z73D1GA4ZNDB00,3RANCT1ZVJXHYVTCNGMZF7UY9OFBUY,8,7
210,2,object_06,object_01,1007.5999999642,3,1,499.89999997616,0.2222222222222222,1,object_05,5,2748,0,2,9,forest_1,2,memory-2step-stake-s,717,3180105,0.0-19.0-0.1-0.210,A31A1PVXLJBISZ,31KPKEKW5DTYWQJ2Z73D1GA4ZNDB00,3RANCT1ZVJXHYVTCNGMZF7UY9OFBUY,3,4
211,4,object_07,object_04,954.60000002384,8,2,398.30000001192,1.0,2,object_09,1,2757,0,5,9,restaurant_8,2,memory-2step-stake-s,718,3188642,0.0-19.0-0.1-0.211,A31A1PVXLJBISZ,31KPKEKW5DTYWQJ2Z73D1GA4ZNDB00,3RANCT1ZVJXHYVTCNGMZF7UY9OFBUY,7,8
212,2,object_06,object_01,1240.5,4,2,530.40000003576,0.7777777777777778,2,object_09,1,2764,0,2,7,forest_1,2,memory-2step-stake-s,719,3197107,0.0-19.0-0.1-0.212,A31A1PVXLJBISZ,31KPKEKW5DTYWQJ2Z73D1GA4ZNDB00,3RANCT1ZVJXHYVTCNGMZF7UY9OFBUY,3,4
213,1,object_08,object_02,911.10000002384,2,1,765.60000002384,1.0,2,object_09,5,2809,0,7,9,desert_4,2,memory-2step-stake-s,720,3206010,0.0-19.0-0.1-0.213,A31A1PVXLJBISZ,31KPKEKW5DTYWQJ2Z73D1GA4ZNDB00,3RANCT1ZVJXHYVTCNGMZF7UY9OFBUY,2,1
214,2,object_06,object_01,1017.6999999881,4,2,389.30000001192,1.0,2,object_09,1,2818,0,7,9,forest_1,2,memory-2step-stake-s,721,3214535,0.0-19.0-0.1-0.214,A31A1PVXLJBISZ,31KPKEKW5DTYWQJ2Z73D1GA4ZNDB00,3RANCT1ZVJXHYVTCNGMZF7UY9OFBUY,3,4
215,1,object_02,object_08,719.20000004768,2,2,522.89999997616,0.7777777777777778,2,object_09,1,2825,0,3,7,desert_5,2,memory-2step-stake-s,722,3222985,0.0-19.0-0.1-0.215,A31A1PVXLJBISZ,31KPKEKW5DTYWQJ2Z73D1GA4ZNDB00,3RANCT1ZVJXHYVTCNGMZF7UY9OFBUY,1,2
216,1,object_08,object_02,785.89999997616,2,1,494.60000002384,0.6666666666666666,2,object_09,1,2831,0,1,6,desert_3,2,memory-2step-stake-s,723,3231322,0.0-19.0-0.1-0.216,A31A1PVXLJBISZ,31KPKEKW5DTYWQJ2Z73D1GA4ZNDB00,3RANCT1ZVJXHYVTCNGMZF7UY9OFBUY,2,1
217,3,object_10,object_03,849.89999997616,6,2,587.80000001192,0.5555555555555556,2,object_09,1,2836,0,2,5,library_6,2,memory-2step-stake-s,724,3239638,0.0-19.0-0.1-0.217,A31A1PVXLJBISZ,31KPKEKW5DTYWQJ2Z73D1GA4ZNDB00,3RANCT1ZVJXHYVTCNGMZF7UY9OFBUY,5,6
218,4,object_07,object_04,965.19999998808,7,1,385.90000003576,0.1111111111111111,1,object_05,1,2837,0,1,5,restaurant_4,2,memory-2step-stake-s,725,3247340,0.0-19.0-0.1-0.218,A31A1PVXLJBISZ,31KPKEKW5DTYWQJ2Z73D1GA4ZNDB00,3RANCT1ZVJXHYVTCNGMZF7UY9OFBUY,7,8
219,3,object_03,object_10,1104.5,5,2,609.5,0.0,1,object_05,1,2837,0,0,6,library_6,2,memory-2step-stake-s,726,3255169,0.0-19.0-0.1-0.219,A31A1PVXLJBISZ,31KPKEKW5DTYWQJ2Z73D1GA4ZNDB00,3RANCT1ZVJXHYVTCNGMZF7UY9OFBUY,6,5
220,3,object_03,object_10,1123.5999999642,6,1,591.90000003576,0.7777777777777778,2,object_09,1,2844,0,3,7,library_7,2,memory-2step-stake-s,727,3263690,0.0-19.0-0.1-0.220,A31A1PVXLJBISZ,31KPKEKW5DTYWQJ2Z73D1GA4ZNDB00,3RANCT1ZVJXHYVTCNGMZF7UY9OFBUY,6,5
221,3,object_03,object_10,787.89999997616,6,1,743.90000003576,0.5555555555555556,2,object_09,1,2849,0,6,5,library_7,2,memory-2step-stake-s,728,3272166,0.0-19.0-0.1-0.221,A31A1PVXLJBISZ,31KPKEKW5DTYWQJ2Z73D1GA4ZNDB00,3RANCT1ZVJXHYVTCNGMZF7UY9OFBUY,6,5
222,2,object_01,object_06,929.60000002384,3,2,693.80000001192,1.0,1,object_05,5,2894,0,9,4,forest_4,2,memory-2step-stake-s,729,3280995,0.0-19.0-0.1-0.222,A31A1PVXLJBISZ,31KPKEKW5DTYWQJ2Z73D1GA4ZNDB00,3RANCT1ZVJXHYVTCNGMZF7UY9OFBUY,4,3
223,1,object_08,object_02,963.0,2,1,670.20000004768,0.5555555555555556,2,object_09,5,2919,0,8,5,desert_3,2,memory-2step-stake-s,730,3289392,0.0-19.0-0.1-0.223,A31A1PVXLJBISZ,31KPKEKW5DTYWQJ2Z73D1GA4ZNDB00,3RANCT1ZVJXHYVTCNGMZF7UY9OFBUY,2,1
224,1,object_02,object_08,744.30000001192,2,2,503.40000003576,0.6666666666666666,2,object_09,5,2949,0,7,6,desert_8,2,memory-2step-stake-s,731,3297726,0.0-19.0-0.1-0.224,A31A1PVXLJBISZ,31KPKEKW5DTYWQJ2Z73D1GA4ZNDB00,3RANCT1ZVJXHYVTCNGMZF7UY9OFBUY,1,2
225,4,object_04,object_07,968.20000004768,7,2,674.10000002384,0.7777777777777778,1,object_05,1,2956,0,7,8,restaurant_6,2,memory-2step-stake-s,732,3306331,0.0-19.0-0.1-0.225,A31A1PVXLJBISZ,31KPKEKW5DTYWQJ2Z73D1GA4ZNDB00,3RANCT1ZVJXHYVTCNGMZF7UY9OFBUY,8,7
226,4,object_04,object_07,804.30000001192,8,1,394.39999997616,1.0,2,object_09,1,2965,0,6,9,restaurant_8,2,memory-2step-stake-s,733,3314867,0.0-19.0-0.1-0.226,A31A1PVXLJBISZ,31KPKEKW5DTYWQJ2Z73D1GA4ZNDB00,3RANCT1ZVJXHYVTCNGMZF7UY9OFBUY,8,7
227,4,object_04,object_07,1471.2000000477,8,1,468.89999997616,1.0,2,object_09,1,2974,0,4,9,restaurant_6,2,memory-2step-stake-s,734,3323470,0.0-19.0-0.1-0.227,A31A1PVXLJBISZ,31KPKEKW5DTYWQJ2Z73D1GA4ZNDB00,3RANCT1ZVJXHYVTCNGMZF7UY9OFBUY,8,7
228,2,object_06,object_01,698.80000001192,3,1,1025.3999999762,0.2222222222222222,1,object_05,5,2984,0,2,6,forest_1,2,memory-2step-stake-s,735,3331920,0.0-19.0-0.1-0.228,A31A1PVXLJBISZ,31KPKEKW5DTYWQJ2Z73D1GA4ZNDB00,3RANCT1ZVJXHYVTCNGMZF7UY9OFBUY,3,4
229,4,object_04,object_07,903.39999997616,7,2,222.19999998808,0.1111111111111111,1,object_05,1,2985,0,1,8,restaurant_4,2,memory-2step-stake-s,736,3339466,0.0-19.0-0.1-0.229,A31A1PVXLJBISZ,31KPKEKW5DTYWQJ2Z73D1GA4ZNDB00,3RANCT1ZVJXHYVTCNGMZF7UY9OFBUY,8,7
230,4,object_04,object_07,1071.8999999762,7,2,106.10000002384,0.4444444444444444,1,object_05,1,2989,0,4,8,restaurant_8,2,memory-2step-stake-s,737,3347208,0.0-19.0-0.1-0.230,A31A1PVXLJBISZ,31KPKEKW5DTYWQJ2Z73D1GA4ZNDB00,3RANCT1ZVJXHYVTCNGMZF7UY9OFBUY,8,7
231,3,object_10,object_03,852.80000001192,5,1,742.40000003576,0.6666666666666666,1,object_05,1,2995,0,6,8,library_1,2,memory-2step-stake-s,738,3355778,0.0-19.0-0.1-0.231,A31A1PVXLJBISZ,31KPKEKW5DTYWQJ2Z73D1GA4ZNDB00,3RANCT1ZVJXHYVTCNGMZF7UY9OFBUY,5,6
232,2,object_01,object_06,785.39999997616,3,2,566.89999997616,0.5555555555555556,1,object_05,5,3020,0,5,5,forest_4,2,memory-2step-stake-s,739,3364080,0.0-19.0-0.1-0.232,A31A1PVXLJBISZ,31KPKEKW5DTYWQJ2Z73D1GA4ZNDB00,3RANCT1ZVJXHYVTCNGMZF7UY9OFBUY,4,3
233,4,object_04,object_07,788.0,7,2,431.60000002384,1.0,1,object_05,1,3029,0,9,4,restaurant_4,2,memory-2step-stake-s,740,3372653,0.0-19.0-0.1-0.233,A31A1PVXLJBISZ,31KPKEKW5DTYWQJ2Z73D1GA4ZNDB00,3RANCT1ZVJXHYVTCNGMZF7UY9OFBUY,8,7
234,4,object_07,object_04,1146.1999999881,7,1,532.90000003576,1.0,1,object_05,1,3038,0,9,3,restaurant_1,2,memory-2step-stake-s,741,3381319,0.0-19.0-0.1-0.234,A31A1PVXLJBISZ,31KPKEKW5DTYWQJ2Z73D1GA4ZNDB00,3RANCT1ZVJXHYVTCNGMZF7UY9OFBUY,7,8
235,1,object_02,object_08,666.5,2,2,764.39999997616,0.6666666666666666,2,object_09,5,3068,0,7,6,desert_4,2,memory-2step-stake-s,742,3389908,0.0-19.0-0.1-0.235,A31A1PVXLJBISZ,31KPKEKW5DTYWQJ2Z73D1GA4ZNDB00,3RANCT1ZVJXHYVTCNGMZF7UY9OFBUY,1,2
236,3,object_03,object_10,838.0,6,1,288.69999998808,0.6666666666666666,2,object_09,1,3074,0,5,6,library_8,2,memory-2step-stake-s,743,3398027,0.0-19.0-0.1-0.236,A31A1PVXLJBISZ,31KPKEKW5DTYWQJ2Z73D1GA4ZNDB00,3RANCT1ZVJXHYVTCNGMZF7UY9OFBUY,6,5
237,4,object_04,object_07,831.59999996424,7,2,486.19999998808,0.4444444444444444,1,object_05,1,3078,0,4,6,restaurant_8,2,memory-2step-stake-s,744,3406139,0.0-19.0-0.1-0.237,A31A1PVXLJBISZ,31KPKEKW5DTYWQJ2Z73D1GA4ZNDB00,3RANCT1ZVJXHYVTCNGMZF7UY9OFBUY,8,7
238,2,object_06,object_01,754.5,3,1,275.10000002384,0.7777777777777778,1,object_05,1,3085,0,7,3,forest_2,2,memory-2step-stake-s,745,3414345,0.0-19.0-0.1-0.238,A31A1PVXLJBISZ,31KPKEKW5DTYWQJ2Z73D1GA4ZNDB00,3RANCT1ZVJXHYVTCNGMZF7UY9OFBUY,3,4
239,4,object_04,object_07,842.0,7,2,427.5,0.7777777777777778,1,object_05,1,3092,0,7,3,restaurant_1,2,memory-2step-stake-s,746,3422733,0.0-19.0-0.1-0.239,A31A1PVXLJBISZ,31KPKEKW5DTYWQJ2Z73D1GA4ZNDB00,3RANCT1ZVJXHYVTCNGMZF7UY9OFBUY,8,7
240,1,object_08,object_02,688.09999996424,2,1,492.79999995232,0.5555555555555556,2,object_09,5,3117,0,7,5,desert_4,2,memory-2step-stake-s,747,3430954,0.0-19.0-0.1-0.240,A31A1PVXLJBISZ,31KPKEKW5DTYWQJ2Z73D1GA4ZNDB00,3RANCT1ZVJXHYVTCNGMZF7UY9OFBUY,2,1
241,4,object_07,object_04,849.19999998808,7,1,486.29999995232,0.5555555555555556,1,object_05,1,3122,0,5,4,restaurant_1,2,memory-2step-stake-s,748,3439168,0.0-19.0-0.1-0.241,A31A1PVXLJBISZ,31KPKEKW5DTYWQJ2Z73D1GA4ZNDB00,3RANCT1ZVJXHYVTCNGMZF7UY9OFBUY,7,8
242,3,object_03,object_10,822.59999996424,5,2,404.39999997616,0.5555555555555556,1,object_05,1,3127,0,5,5,library_8,2,memory-2step-stake-s,749,3447302,0.0-19.0-0.1-0.242,A31A1PVXLJBISZ,31KPKEKW5DTYWQJ2Z73D1GA4ZNDB00,3RANCT1ZVJXHYVTCNGMZF7UY9OFBUY,6,5
243,3,object_03,object_10,712.69999998808,6,1,540.0,0.4444444444444444,2,object_09,1,3131,0,0,4,library_6,2,memory-2step-stake-s,750,3455469,0.0-19.0-0.1-0.243,A31A1PVXLJBISZ,31KPKEKW5DTYWQJ2Z73D1GA4ZNDB00,3RANCT1ZVJXHYVTCNGMZF7UY9OFBUY,6,5
244,2,object_06,object_01,888.5,3,1,593.69999998808,0.3333333333333333,1,object_05,5,3146,0,3,8,forest_1,2,memory-2step-stake-s,751,3463587,0.0-19.0-0.1-0.244,A31A1PVXLJBISZ,31KPKEKW5DTYWQJ2Z73D1GA4ZNDB00,3RANCT1ZVJXHYVTCNGMZF7UY9OFBUY,3,4
245,3,object_10,object_03,846.59999996424,6,2,498.30000001192,1.0,2,object_09,1,3155,0,0,9,library_8,2,memory-2step-stake-s,752,3472221,0.0-19.0-0.1-0.245,A31A1PVXLJBISZ,31KPKEKW5DTYWQJ2Z73D1GA4ZNDB00,3RANCT1ZVJXHYVTCNGMZF7UY9OFBUY,5,6
246,4,object_04,object_07,1013.8999999762,7,2,589.80000001192,0.2222222222222222,1,object_05,5,3165,0,2,9,restaurant_6,2,memory-2step-stake-s,753,3480235,0.0-19.0-0.1-0.246,A31A1PVXLJBISZ,31KPKEKW5DTYWQJ2Z73D1GA4ZNDB00,3RANCT1ZVJXHYVTCNGMZF7UY9OFBUY,8,7
247,4,object_04,object_07,888.19999998808,7,2,357.09999996424,0.3333333333333333,1,object_05,1,3168,0,3,8,restaurant_1,2,memory-2step-stake-s,754,3488121,0.0-19.0-0.1-0.247,A31A1PVXLJBISZ,31KPKEKW5DTYWQJ2Z73D1GA4ZNDB00,3RANCT1ZVJXHYVTCNGMZF7UY9OFBUY,8,7
248,4,object_07,object_04,1107.3999999762,8,2,301.30000001192,1.0,2,object_09,5,3213,0,0,9,restaurant_8,2,memory-2step-stake-s,755,3496583,0.0-19.0-0.1-0.248,A31A1PVXLJBISZ,31KPKEKW5DTYWQJ2Z73D1GA4ZNDB00,3RANCT1ZVJXHYVTCNGMZF7UY9OFBUY,7,8
249,1,object_02,object_08,881.19999998808,2,2,319.19999998808,1.0,2,object_09,1,3222,0,1,9,desert_4,2,memory-2step-stake-s,756,3505034,0.0-19.0-0.1-0.249,A31A1PVXLJBISZ,31KPKEKW5DTYWQJ2Z73D1GA4ZNDB00,3RANCT1ZVJXHYVTCNGMZF7UY9OFBUY,1,2
250,1,object_02,object_08,882.80000001192,2,2,489.0,0.6666666666666666,2,object_09,5,3252,0,4,6,desert_4,2,memory-2step-stake-s,757,3513368,0.0-19.0-0.1-0.250,A31A1PVXLJBISZ,31KPKEKW5DTYWQJ2Z73D1GA4ZNDB00,3RANCT1ZVJXHYVTCNGMZF7UY9OFBUY,1,2
251,1,object_02,object_08,627.30000001192,2,2,657.5,0.8888888888888888,2,object_09,1,3260,0,5,8,desert_5,2,memory-2step-stake-s,758,3522060,0.0-19.0-0.1-0.251,A31A1PVXLJBISZ,31KPKEKW5DTYWQJ2Z73D1GA4ZNDB00,3RANCT1ZVJXHYVTCNGMZF7UY9OFBUY,1,2
252,3,object_10,object_03,687.40000003576,5,1,192.19999998808,0.4444444444444444,1,object_05,1,3264,0,4,8,library_1,2,memory-2step-stake-s,759,3529874,0.0-19.0-0.1-0.252,A31A1PVXLJBISZ,31KPKEKW5DTYWQJ2Z73D1GA4ZNDB00,3RANCT1ZVJXHYVTCNGMZF7UY9OFBUY,5,6
253,1,object_02,object_08,668.59999996424,2,2,332.10000002384,0.8888888888888888,2,object_09,5,3304,0,5,8,desert_5,2,memory-2step-stake-s,760,3538236,0.0-19.0-0.1-0.253,A31A1PVXLJBISZ,31KPKEKW5DTYWQJ2Z73D1GA4ZNDB00,3RANCT1ZVJXHYVTCNGMZF7UY9OFBUY,1,2
254,4,object_04,object_07,878.70000004768,8,1,717.5,0.5555555555555556,2,object_09,1,3309,0,5,5,restaurant_6,2,memory-2step-stake-s,761,3546688,0.0-19.0-0.1-0.254,A31A1PVXLJBISZ,31KPKEKW5DTYWQJ2Z73D1GA4ZNDB00,3RANCT1ZVJXHYVTCNGMZF7UY9OFBUY,8,7
255,1,object_08,object_02,855.0,2,1,380.89999997616,0.4444444444444444,2,object_09,5,3329,0,2,4,desert_4,2,memory-2step-stake-s,762,3554695,0.0-19.0-0.1-0.255,A31A1PVXLJBISZ,31KPKEKW5DTYWQJ2Z73D1GA4ZNDB00,3RANCT1ZVJXHYVTCNGMZF7UY9OFBUY,2,1
