,state1,stim_left,stim_right,rt_1,choice1,response1,rt_2,points,state2,stim_state2,stake,score,practice,rews1,rews2,background,high_arm,trial_type,trial_index,time_elapsed,internal_node_id,subid,hitid,assignmentid,stim_left_num,stim_right_num
0,1,object_03,object_08,992.29999999702,1,1,892.09999999404,0.1111111111111111,1,object_07,1,1,0,1,3,desert_8,1,memory-2step-stake-s,495,773771,0.0-19.0-0.0-0.0,A2FYFCD16Z3PCC,3SNR5F7RA597AOC2DOU98SGLOEGIEB,3OS46CRSLJFB5Y1HWFFW0DAP9WGV6T,1,2
1,3,object_06,object_01,592.90000000596,5,1,753.70000000298,0.0,1,object_07,5,1,0,0,3,library_5,1,memory-2step-stake-s,496,781741,0.0-19.0-0.0-0.1,A2FYFCD16Z3PCC,3SNR5F7RA597AOC2DOU98SGLOEGIEB,3OS46CRSLJFB5Y1HWFFW0DAP9WGV6T,5,6
2,2,object_10,object_04,832.59999999404,3,2,618.79999999702,0.1111111111111111,1,object_07,1,2,0,1,6,forest_3,1,memory-2step-stake-s,497,789674,0.0-19.0-0.0-0.2,A2FYFCD16Z3PCC,3SNR5F7RA597AOC2DOU98SGLOEGIEB,3OS46CRSLJFB5Y1HWFFW0DAP9WGV6T,4,3
3,4,object_02,object_09,986.0,8,2,460.10000000894,0.6666666666666666,2,object_05,5,32,0,0,6,restaurant_7,1,memory-2step-stake-s,498,797959,0.0-19.0-0.0-0.3,A2FYFCD16Z3PCC,3SNR5F7RA597AOC2DOU98SGLOEGIEB,3OS46CRSLJFB5Y1HWFFW0DAP9WGV6T,7,8
4,4,object_09,object_02,821.29999999702,8,1,456.60000000894,0.5555555555555556,2,object_05,5,57,0,0,5,restaurant_8,1,memory-2step-stake-s,499,806161,0.0-19.0-0.0-0.4,A2FYFCD16Z3PCC,3SNR5F7RA597AOC2DOU98SGLOEGIEB,3OS46CRSLJFB5Y1HWFFW0DAP9WGV6T,8,7
5,1,object_08,object_03,962.90000000596,2,1,718.09999999404,0.7777777777777778,2,object_05,5,92,0,3,7,desert_6,1,memory-2step-stake-s,500,814828,0.0-19.0-0.0-0.5,A2FYFCD16Z3PCC,3SNR5F7RA597AOC2DOU98SGLOEGIEB,3OS46CRSLJFB5Y1HWFFW0DAP9WGV6T,2,1
6,4,object_09,object_02,826.0,8,1,349.60000000894,1.0,2,object_05,5,137,0,3,9,restaurant_5,1,memory-2step-stake-s,501,823315,0.0-19.0-0.0-0.6,A2FYFCD16Z3PCC,3SNR5F7RA597AOC2DOU98SGLOEGIEB,3OS46CRSLJFB5Y1HWFFW0DAP9WGV6T,8,7
7,2,object_10,object_04,956.39999999106,3,2,320.09999999404,0.2222222222222222,1,object_07,5,147,0,2,8,forest_7,1,memory-2step-stake-s,502,831047,0.0-19.0-0.0-0.7,A2FYFCD16Z3PCC,3SNR5F7RA597AOC2DOU98SGLOEGIEB,3OS46CRSLJFB5Y1HWFFW0DAP9WGV6T,4,3
8,1,object_08,object_03,784.20000000298,1,2,579.70000000298,0.0,1,object_07,1,147,0,0,5,desert_6,1,memory-2step-stake-s,503,838837,0.0-19.0-0.0-0.8,A2FYFCD16Z3PCC,3SNR5F7RA597AOC2DOU98SGLOEGIEB,3OS46CRSLJFB5Y1HWFFW0DAP9WGV6T,2,1
9,2,object_04,object_10,1051.0,3,1,404.5,0.3333333333333333,1,object_07,1,150,0,3,3,forest_7,1,memory-2step-stake-s,504,846757,0.0-19.0-0.0-0.9,A2FYFCD16Z3PCC,3SNR5F7RA597AOC2DOU98SGLOEGIEB,3OS46CRSLJFB5Y1HWFFW0DAP9WGV6T,3,4
10,2,object_10,object_04,696.59999999404,4,1,532.20000000298,0.5555555555555556,2,object_05,1,155,0,4,5,forest_8,1,memory-2step-stake-s,505,855015,0.0-19.0-0.0-0.10,A2FYFCD16Z3PCC,3SNR5F7RA597AOC2DOU98SGLOEGIEB,3OS46CRSLJFB5Y1HWFFW0DAP9WGV6T,4,3
11,2,object_10,object_04,1047.8000000119,4,1,235.10000000894,0.3333333333333333,2,object_05,1,158,0,4,3,forest_3,1,memory-2step-stake-s,506,862778,0.0-19.0-0.0-0.11,A2FYFCD16Z3PCC,3SNR5F7RA597AOC2DOU98SGLOEGIEB,3OS46CRSLJFB5Y1HWFFW0DAP9WGV6T,4,3
12,1,object_03,object_08,1084.0,1,1,229.70000000298,0.3333333333333333,1,object_07,1,161,0,3,3,desert_3,1,memory-2step-stake-s,507,870525,0.0-19.0-0.0-0.12,A2FYFCD16Z3PCC,3SNR5F7RA597AOC2DOU98SGLOEGIEB,3OS46CRSLJFB5Y1HWFFW0DAP9WGV6T,1,2
13,4,object_09,object_02,658.0,8,1,333.5,0.1111111111111111,2,object_05,5,166,0,1,1,restaurant_7,1,memory-2step-stake-s,508,878170,0.0-19.0-0.0-0.13,A2FYFCD16Z3PCC,3SNR5F7RA597AOC2DOU98SGLOEGIEB,3OS46CRSLJFB5Y1HWFFW0DAP9WGV6T,8,7
14,2,object_04,object_10,1290.599999994,3,1,486.5,0.4444444444444444,1,object_07,1,170,0,4,3,forest_7,1,memory-2step-stake-s,509,886274,0.0-19.0-0.0-0.14,A2FYFCD16Z3PCC,3SNR5F7RA597AOC2DOU98SGLOEGIEB,3OS46CRSLJFB5Y1HWFFW0DAP9WGV6T,3,4
15,2,object_04,object_10,1048.400000006,3,1,332.70000000298,0.3333333333333333,1,object_07,1,173,0,3,5,forest_3,1,memory-2step-stake-s,510,894126,0.0-19.0-0.0-0.15,A2FYFCD16Z3PCC,3SNR5F7RA597AOC2DOU98SGLOEGIEB,3OS46CRSLJFB5Y1HWFFW0DAP9WGV6T,3,4
16,2,object_04,object_10,1008.900000006,3,1,450.70000000298,0.5555555555555556,1,object_07,1,178,0,5,5,forest_7,1,memory-2step-stake-s,511,902309,0.0-19.0-0.0-0.16,A2FYFCD16Z3PCC,3SNR5F7RA597AOC2DOU98SGLOEGIEB,3OS46CRSLJFB5Y1HWFFW0DAP9WGV6T,3,4
17,1,object_08,object_03,961.90000000596,1,2,269.59999999404,0.8888888888888888,1,object_07,1,186,0,8,1,desert_3,1,memory-2step-stake-s,512,910629,0.0-19.0-0.0-0.17,A2FYFCD16Z3PCC,3SNR5F7RA597AOC2DOU98SGLOEGIEB,3OS46CRSLJFB5Y1HWFFW0DAP9WGV6T,2,1
18,2,object_04,object_10,1426.0,3,1,316.79999999702,0.6666666666666666,1,object_07,1,192,0,6,3,forest_3,1,memory-2step-stake-s,513,918768,0.0-19.0-0.0-0.18,A2FYFCD16Z3PCC,3SNR5F7RA597AOC2DOU98SGLOEGIEB,3OS46CRSLJFB5Y1HWFFW0DAP9WGV6T,3,4
19,3,object_01,object_06,1279.200000003,6,1,466.20000000298,0.4444444444444444,2,object_05,1,196,0,7,4,library_7,1,memory-2step-stake-s,514,926860,0.0-19.0-0.0-0.19,A2FYFCD16Z3PCC,3SNR5F7RA597AOC2DOU98SGLOEGIEB,3OS46CRSLJFB5Y1HWFFW0DAP9WGV6T,6,5
20,1,object_03,object_08,1050.799999997,1,1,205.09999999404,0.8888888888888888,1,object_07,1,204,0,8,1,desert_1,1,memory-2step-stake-s,515,935087,0.0-19.0-0.0-0.20,A2FYFCD16Z3PCC,3SNR5F7RA597AOC2DOU98SGLOEGIEB,3OS46CRSLJFB5Y1HWFFW0DAP9WGV6T,1,2
21,3,object_01,object_06,934.69999998808,5,2,272.29999999702,1.0,1,object_07,5,249,0,9,3,library_4,1,memory-2step-stake-s,516,943483,0.0-19.0-0.0-0.21,A2FYFCD16Z3PCC,3SNR5F7RA597AOC2DOU98SGLOEGIEB,3OS46CRSLJFB5Y1HWFFW0DAP9WGV6T,6,5
22,4,object_02,object_09,1028.400000006,8,2,352.60000000894,0.4444444444444444,2,object_05,5,269,0,4,4,restaurant_8,1,memory-2step-stake-s,517,951451,0.0-19.0-0.0-0.22,A2FYFCD16Z3PCC,3SNR5F7RA597AOC2DOU98SGLOEGIEB,3OS46CRSLJFB5Y1HWFFW0DAP9WGV6T,7,8
23,3,object_06,object_01,1091.200000003,5,1,500.90000000596,0.5555555555555556,1,object_07,5,294,0,5,4,library_5,1,memory-2step-stake-s,518,959686,0.0-19.0-0.0-0.23,A2FYFCD16Z3PCC,3SNR5F7RA597AOC2DOU98SGLOEGIEB,3OS46CRSLJFB5Y1HWFFW0DAP9WGV6T,5,6
24,3,object_06,object_01,816.0,6,2,202.59999999404,0.2222222222222222,2,object_05,1,296,0,6,2,library_8,1,memory-2step-stake-s,519,967316,0.0-19.0-0.0-0.24,A2FYFCD16Z3PCC,3SNR5F7RA597AOC2DOU98SGLOEGIEB,3OS46CRSLJFB5Y1HWFFW0DAP9WGV6T,5,6
25,2,object_10,object_04,1355.3999999911,3,2,303.20000000298,0.4444444444444444,1,object_07,1,300,0,4,2,forest_6,1,memory-2step-stake-s,520,975250,0.0-19.0-0.0-0.25,A2FYFCD16Z3PCC,3SNR5F7RA597AOC2DOU98SGLOEGIEB,3OS46CRSLJFB5Y1HWFFW0DAP9WGV6T,4,3
26,2,object_10,object_04,907.40000000596,3,2,670.09999999404,0.4444444444444444,1,object_07,1,304,0,4,5,forest_7,1,memory-2step-stake-s,521,983541,0.0-19.0-0.0-0.26,A2FYFCD16Z3PCC,3SNR5F7RA597AOC2DOU98SGLOEGIEB,3OS46CRSLJFB5Y1HWFFW0DAP9WGV6T,4,3
27,1,object_08,object_03,1137.799999997,2,1,251.69999998808,0.5555555555555556,2,object_05,1,309,0,4,5,desert_1,1,memory-2step-stake-s,522,991523,0.0-19.0-0.0-0.27,A2FYFCD16Z3PCC,3SNR5F7RA597AOC2DOU98SGLOEGIEB,3OS46CRSLJFB5Y1HWFFW0DAP9WGV6T,2,1
28,4,object_02,object_09,213.59999999404,7,1,89.5,0.2222222222222222,1,object_07,5,319,0,2,7,restaurant_2,1,memory-2step-stake-s,523,999031,0.0-19.0-0.0-0.28,A2FYFCD16Z3PCC,3SNR5F7RA597AOC2DOU98SGLOEGIEB,3OS46CRSLJFB5Y1HWFFW0DAP9WGV6T,7,8
29,3,object_06,object_01,1269.5,6,2,385.70000000298,0.3333333333333333,2,object_05,5,334,0,3,3,library_5,1,memory-2step-stake-s,524,1006933,0.0-19.0-0.0-0.29,A2FYFCD16Z3PCC,3SNR5F7RA597AOC2DOU98SGLOEGIEB,3OS46CRSLJFB5Y1HWFFW0DAP9WGV6T,5,6
30,4,object_09,object_02,295.30000001192,8,1,178.0,0.2222222222222222,2,object_05,1,336,0,5,2,restaurant_7,1,memory-2step-stake-s,525,1014528,0.0-19.0-0.0-0.30,A2FYFCD16Z3PCC,3SNR5F7RA597AOC2DOU98SGLOEGIEB,3OS46CRSLJFB5Y1HWFFW0DAP9WGV6T,8,7
31,2,object_04,object_10,822.89999999106,4,2,184.10000000894,0.2222222222222222,2,object_05,5,346,0,4,2,forest_6,1,memory-2step-stake-s,526,1022136,0.0-19.0-0.0-0.31,A2FYFCD16Z3PCC,3SNR5F7RA597AOC2DOU98SGLOEGIEB,3OS46CRSLJFB5Y1HWFFW0DAP9WGV6T,3,4
32,1,object_08,object_03,1337.299999997,1,2,297.5,0.3333333333333333,1,object_07,1,349,0,3,2,desert_8,1,memory-2step-stake-s,527,1029952,0.0-19.0-0.0-0.32,A2FYFCD16Z3PCC,3SNR5F7RA597AOC2DOU98SGLOEGIEB,3OS46CRSLJFB5Y1HWFFW0DAP9WGV6T,2,1
33,1,object_03,object_08,1054.0,1,1,217.09999999404,0.7777777777777778,1,object_07,1,356,0,7,3,desert_6,1,memory-2step-stake-s,528,1038094,0.0-19.0-0.0-0.33,A2FYFCD16Z3PCC,3SNR5F7RA597AOC2DOU98SGLOEGIEB,3OS46CRSLJFB5Y1HWFFW0DAP9WGV6T,1,2
34,4,object_09,object_02,1049.200000003,7,2,812.20000000298,0.6666666666666666,1,object_07,5,386,0,6,2,restaurant_8,1,memory-2step-stake-s,529,1046734,0.0-19.0-0.0-0.34,A2FYFCD16Z3PCC,3SNR5F7RA597AOC2DOU98SGLOEGIEB,3OS46CRSLJFB5Y1HWFFW0DAP9WGV6T,8,7
35,3,object_06,object_01,1216.299999997,5,1,339.10000000894,1.0,1,object_07,5,431,0,9,1,library_5,1,memory-2step-stake-s,530,1055233,0.0-19.0-0.0-0.35,A2FYFCD16Z3PCC,3SNR5F7RA597AOC2DOU98SGLOEGIEB,3OS46CRSLJFB5Y1HWFFW0DAP9WGV6T,5,6
36,1,object_03,object_08,1005.5,1,1,160.0,1.0,1,object_07,5,476,0,9,2,desert_8,1,memory-2step-stake-s,531,1063538,0.0-19.0-0.0-0.36,A2FYFCD16Z3PCC,3SNR5F7RA597AOC2DOU98SGLOEGIEB,3OS46CRSLJFB5Y1HWFFW0DAP9WGV6T,1,2
37,4,object_09,object_02,878.10000000894,7,2,274.70000000298,0.7777777777777778,1,object_07,5,511,0,7,2,restaurant_5,1,memory-2step-stake-s,532,1071743,0.0-19.0-0.0-0.37,A2FYFCD16Z3PCC,3SNR5F7RA597AOC2DOU98SGLOEGIEB,3OS46CRSLJFB5Y1HWFFW0DAP9WGV6T,8,7
38,3,object_06,object_01,1151.3999999911,5,1,481.29999999702,1.0,1,object_07,5,556,0,9,1,library_4,1,memory-2step-stake-s,533,1080352,0.0-19.0-0.0-0.38,A2FYFCD16Z3PCC,3SNR5F7RA597AOC2DOU98SGLOEGIEB,3OS46CRSLJFB5Y1HWFFW0DAP9WGV6T,5,6
39,3,object_01,object_06,960.20000000298,5,2,324.20000000298,0.7777777777777778,1,object_07,5,591,0,7,1,library_7,1,memory-2step-stake-s,534,1088614,0.0-19.0-0.0-0.39,A2FYFCD16Z3PCC,3SNR5F7RA597AOC2DOU98SGLOEGIEB,3OS46CRSLJFB5Y1HWFFW0DAP9WGV6T,6,5
40,3,object_06,object_01,729.89999999106,6,2,277.0,0.1111111111111111,2,object_05,5,596,0,6,1,library_7,1,memory-2step-stake-s,535,1096215,0.0-19.0-0.0-0.40,A2FYFCD16Z3PCC,3SNR5F7RA597AOC2DOU98SGLOEGIEB,3OS46CRSLJFB5Y1HWFFW0DAP9WGV6T,5,6
41,1,object_03,object_08,992.09999999404,1,1,492.5,0.7777777777777778,1,object_07,5,631,0,7,1,desert_8,1,memory-2step-stake-s,536,1104637,0.0-19.0-0.0-0.41,A2FYFCD16Z3PCC,3SNR5F7RA597AOC2DOU98SGLOEGIEB,3OS46CRSLJFB5Y1HWFFW0DAP9WGV6T,1,2
42,4,object_02,object_09,1025.8999999911,7,1,268.79999999702,0.8888888888888888,1,object_07,5,671,0,8,4,restaurant_2,1,memory-2step-stake-s,537,1112929,0.0-19.0-0.0-0.42,A2FYFCD16Z3PCC,3SNR5F7RA597AOC2DOU98SGLOEGIEB,3OS46CRSLJFB5Y1HWFFW0DAP9WGV6T,7,8
43,1,object_08,object_03,966.0,1,2,224.80000001192,0.6666666666666666,1,object_07,1,677,0,6,4,desert_8,1,memory-2step-stake-s,538,1120988,0.0-19.0-0.0-0.43,A2FYFCD16Z3PCC,3SNR5F7RA597AOC2DOU98SGLOEGIEB,3OS46CRSLJFB5Y1HWFFW0DAP9WGV6T,2,1
44,1,object_08,object_03,1003.200000003,1,2,294.60000000894,1.0,1,object_07,1,686,0,9,5,desert_1,1,memory-2step-stake-s,539,1129429,0.0-19.0-0.0-0.44,A2FYFCD16Z3PCC,3SNR5F7RA597AOC2DOU98SGLOEGIEB,3OS46CRSLJFB5Y1HWFFW0DAP9WGV6T,2,1
45,1,object_08,object_03,802.19999998808,2,1,197.30000001192,0.5555555555555556,2,object_05,1,691,0,6,5,desert_3,1,memory-2step-stake-s,540,1137367,0.0-19.0-0.0-0.45,A2FYFCD16Z3PCC,3SNR5F7RA597AOC2DOU98SGLOEGIEB,3OS46CRSLJFB5Y1HWFFW0DAP9WGV6T,2,1
46,1,object_08,object_03,593.09999999404,1,2,203.80000001192,0.8888888888888888,1,object_07,1,699,0,8,7,desert_8,1,memory-2step-stake-s,541,1145617,0.0-19.0-0.0-0.46,A2FYFCD16Z3PCC,3SNR5F7RA597AOC2DOU98SGLOEGIEB,3OS46CRSLJFB5Y1HWFFW0DAP9WGV6T,2,1
47,4,object_02,object_09,1294.8999999911,7,1,281.20000000298,0.8888888888888888,1,object_07,5,739,0,8,7,restaurant_5,1,memory-2step-stake-s,542,1153928,0.0-19.0-0.0-0.47,A2FYFCD16Z3PCC,3SNR5F7RA597AOC2DOU98SGLOEGIEB,3OS46CRSLJFB5Y1HWFFW0DAP9WGV6T,7,8
48,3,object_06,object_01,830.59999999404,5,1,104.80000001192,1.0,1,object_07,1,748,0,9,9,library_8,1,memory-2step-stake-s,543,1162174,0.0-19.0-0.0-0.48,A2FYFCD16Z3PCC,3SNR5F7RA597AOC2DOU98SGLOEGIEB,3OS46CRSLJFB5Y1HWFFW0DAP9WGV6T,5,6
49,1,object_03,object_08,977.5,1,1,298.70000000298,1.0,1,object_07,1,757,0,9,8,desert_8,1,memory-2step-stake-s,544,1170609,0.0-19.0-0.0-0.49,A2FYFCD16Z3PCC,3SNR5F7RA597AOC2DOU98SGLOEGIEB,3OS46CRSLJFB5Y1HWFFW0DAP9WGV6T,1,2
50,3,object_01,object_06,949.70000000298,5,2,531.5,0.7777777777777778,1,object_07,5,792,0,7,7,library_8,1,memory-2step-stake-s,545,1179070,0.0-19.0-0.0-0.50,A2FYFCD16Z3PCC,3SNR5F7RA597AOC2DOU98SGLOEGIEB,3OS46CRSLJFB5Y1HWFFW0DAP9WGV6T,6,5
51,1,object_03,object_08,793.29999999702,1,1,236.20000000298,0.8888888888888888,1,object_07,1,800,0,8,3,desert_1,1,memory-2step-stake-s,546,1187337,0.0-19.0-0.0-0.51,A2FYFCD16Z3PCC,3SNR5F7RA597AOC2DOU98SGLOEGIEB,3OS46CRSLJFB5Y1HWFFW0DAP9WGV6T,1,2
52,4,object_09,object_02,1045.400000006,7,2,446.79999999702,0.8888888888888888,1,object_07,5,840,0,8,4,restaurant_2,1,memory-2step-stake-s,547,1195840,0.0-19.0-0.0-0.52,A2FYFCD16Z3PCC,3SNR5F7RA597AOC2DOU98SGLOEGIEB,3OS46CRSLJFB5Y1HWFFW0DAP9WGV6T,8,7
53,4,object_09,object_02,821.70000000298,7,2,751.79999999702,0.8888888888888888,1,object_07,5,880,0,8,3,restaurant_8,1,memory-2step-stake-s,548,1204652,0.0-19.0-0.0-0.53,A2FYFCD16Z3PCC,3SNR5F7RA597AOC2DOU98SGLOEGIEB,3OS46CRSLJFB5Y1HWFFW0DAP9WGV6T,8,7
54,4,object_02,object_09,1040.5,7,1,418.39999999106,0.7777777777777778,1,object_07,1,887,0,7,4,restaurant_7,1,memory-2step-stake-s,549,1213010,0.0-19.0-0.0-0.54,A2FYFCD16Z3PCC,3SNR5F7RA597AOC2DOU98SGLOEGIEB,3OS46CRSLJFB5Y1HWFFW0DAP9WGV6T,7,8
55,4,object_02,object_09,741.79999999702,7,1,265.19999998808,0.8888888888888888,1,object_07,5,927,0,8,0,restaurant_8,1,memory-2step-stake-s,550,1221303,0.0-19.0-0.0-0.55,A2FYFCD16Z3PCC,3SNR5F7RA597AOC2DOU98SGLOEGIEB,3OS46CRSLJFB5Y1HWFFW0DAP9WGV6T,7,8
56,3,object_01,object_06,1088.6000000089,5,2,563.90000000596,0.5555555555555556,1,object_07,1,932,0,5,2,library_7,1,memory-2step-stake-s,551,1229583,0.0-19.0-0.0-0.56,A2FYFCD16Z3PCC,3SNR5F7RA597AOC2DOU98SGLOEGIEB,3OS46CRSLJFB5Y1HWFFW0DAP9WGV6T,6,5
57,1,object_08,object_03,864.69999998808,1,2,601.79999999702,0.7777777777777778,1,object_07,1,939,0,7,2,desert_3,1,memory-2step-stake-s,552,1238129,0.0-19.0-0.0-0.57,A2FYFCD16Z3PCC,3SNR5F7RA597AOC2DOU98SGLOEGIEB,3OS46CRSLJFB5Y1HWFFW0DAP9WGV6T,2,1
58,1,object_08,object_03,853.70000000298,1,2,625.0,0.8888888888888888,1,object_07,1,947,0,8,3,desert_6,1,memory-2step-stake-s,553,1246789,0.0-19.0-0.0-0.58,A2FYFCD16Z3PCC,3SNR5F7RA597AOC2DOU98SGLOEGIEB,3OS46CRSLJFB5Y1HWFFW0DAP9WGV6T,2,1
59,1,object_08,object_03,1194.6999999881,1,2,502.20000000298,1.0,1,object_07,1,956,0,9,1,desert_1,1,memory-2step-stake-s,554,1255424,0.0-19.0-0.0-0.59,A2FYFCD16Z3PCC,3SNR5F7RA597AOC2DOU98SGLOEGIEB,3OS46CRSLJFB5Y1HWFFW0DAP9WGV6T,2,1
60,3,object_06,object_01,863.79999999702,5,1,849.79999999702,1.0,1,object_07,5,1001,0,9,3,library_8,1,memory-2step-stake-s,555,1264440,0.0-19.0-0.0-0.60,A2FYFCD16Z3PCC,3SNR5F7RA597AOC2DOU98SGLOEGIEB,3OS46CRSLJFB5Y1HWFFW0DAP9WGV6T,5,6
61,3,object_06,object_01,956.70000000298,5,1,237.5,0.8888888888888888,1,object_07,5,1041,0,8,2,library_7,1,memory-2step-stake-s,556,1272712,0.0-19.0-0.0-0.61,A2FYFCD16Z3PCC,3SNR5F7RA597AOC2DOU98SGLOEGIEB,3OS46CRSLJFB5Y1HWFFW0DAP9WGV6T,5,6
62,3,object_06,object_01,967.39999999106,5,1,667.10000000894,0.7777777777777778,1,object_07,5,1076,0,7,4,library_4,1,memory-2step-stake-s,557,1281317,0.0-19.0-0.0-0.62,A2FYFCD16Z3PCC,3SNR5F7RA597AOC2DOU98SGLOEGIEB,3OS46CRSLJFB5Y1HWFFW0DAP9WGV6T,5,6
63,1,object_03,object_08,874.20000000298,1,1,397.79999999702,0.7777777777777778,1,object_07,5,1111,0,7,4,desert_1,1,memory-2step-stake-s,558,1289640,0.0-19.0-0.0-0.63,A2FYFCD16Z3PCC,3SNR5F7RA597AOC2DOU98SGLOEGIEB,3OS46CRSLJFB5Y1HWFFW0DAP9WGV6T,1,2
64,1,object_08,object_03,727.60000000894,1,2,234.60000000894,0.6666666666666666,1,object_07,1,1117,0,6,4,desert_1,1,memory-2step-stake-s,559,1297705,0.0-19.0-0.0-0.64,A2FYFCD16Z3PCC,3SNR5F7RA597AOC2DOU98SGLOEGIEB,3OS46CRSLJFB5Y1HWFFW0DAP9WGV6T,2,1
65,4,object_02,object_09,938.40000000596,7,1,102.29999999702,0.3333333333333333,1,object_07,5,1132,0,3,4,restaurant_5,1,memory-2step-stake-s,560,1305334,0.0-19.0-0.0-0.65,A2FYFCD16Z3PCC,3SNR5F7RA597AOC2DOU98SGLOEGIEB,3OS46CRSLJFB5Y1HWFFW0DAP9WGV6T,7,8
66,2,object_10,object_04,921.70000000298,3,2,269.40000000596,0.5555555555555556,1,object_07,1,1137,0,5,4,forest_3,1,memory-2step-stake-s,561,1313327,0.0-19.0-0.0-0.66,A2FYFCD16Z3PCC,3SNR5F7RA597AOC2DOU98SGLOEGIEB,3OS46CRSLJFB5Y1HWFFW0DAP9WGV6T,4,3
67,1,object_08,object_03,1000.200000003,2,1,10.899999991059,0.8888888888888888,2,object_05,1,1145,0,3,8,desert_6,1,memory-2step-stake-s,562,1321381,0.0-19.0-0.0-0.67,A2FYFCD16Z3PCC,3SNR5F7RA597AOC2DOU98SGLOEGIEB,3OS46CRSLJFB5Y1HWFFW0DAP9WGV6T,2,1
68,2,object_10,object_04,-1.0,-1,-1,-1.0,0.0,-,0,1,1145,0,0,9,forest_8,1,memory-2step-stake-s,563,1327898,0.0-19.0-0.0-0.68,A2FYFCD16Z3PCC,3SNR5F7RA597AOC2DOU98SGLOEGIEB,3OS46CRSLJFB5Y1HWFFW0DAP9WGV6T,4,3
69,4,object_09,object_02,877.0,8,1,320.39999999106,0.8888888888888888,2,object_05,5,1185,0,1,8,restaurant_5,1,memory-2step-stake-s,564,1336260,0.0-19.0-0.0-0.69,A2FYFCD16Z3PCC,3SNR5F7RA597AOC2DOU98SGLOEGIEB,3OS46CRSLJFB5Y1HWFFW0DAP9WGV6T,8,7
70,2,object_10,object_04,1035.400000006,4,1,404.70000000298,0.5555555555555556,2,object_05,1,1190,0,4,5,forest_3,1,memory-2step-stake-s,565,1344391,0.0-19.0-0.0-0.70,A2FYFCD16Z3PCC,3SNR5F7RA597AOC2DOU98SGLOEGIEB,3OS46CRSLJFB5Y1HWFFW0DAP9WGV6T,4,3
71,1,object_03,object_08,871.79999999702,2,2,274.79999999702,1.0,2,object_05,5,1235,0,5,9,desert_6,1,memory-2step-stake-s,566,1352794,0.0-19.0-0.0-0.71,A2FYFCD16Z3PCC,3SNR5F7RA597AOC2DOU98SGLOEGIEB,3OS46CRSLJFB5Y1HWFFW0DAP9WGV6T,1,2
72,4,object_02,object_09,1253.299999997,8,2,280.0,1.0,2,object_05,5,1280,0,7,9,restaurant_2,1,memory-2step-stake-s,567,1361211,0.0-19.0-0.0-0.72,A2FYFCD16Z3PCC,3SNR5F7RA597AOC2DOU98SGLOEGIEB,3OS46CRSLJFB5Y1HWFFW0DAP9WGV6T,7,8
73,4,object_02,object_09,818.29999999702,8,2,221.20000000298,0.8888888888888888,2,object_05,5,1320,0,6,8,restaurant_2,1,memory-2step-stake-s,568,1369472,0.0-19.0-0.0-0.73,A2FYFCD16Z3PCC,3SNR5F7RA597AOC2DOU98SGLOEGIEB,3OS46CRSLJFB5Y1HWFFW0DAP9WGV6T,7,8
74,4,object_02,object_09,839.20000000298,8,2,83.29999999702,0.6666666666666666,2,object_05,5,1350,0,8,6,restaurant_5,1,memory-2step-stake-s,569,1377386,0.0-19.0-0.0-0.74,A2FYFCD16Z3PCC,3SNR5F7RA597AOC2DOU98SGLOEGIEB,3OS46CRSLJFB5Y1HWFFW0DAP9WGV6T,7,8
75,3,object_01,object_06,1053.3000000119,6,1,431.70000000298,0.3333333333333333,2,object_05,1,1353,0,9,3,library_4,1,memory-2step-stake-s,570,1385334,0.0-19.0-0.0-0.75,A2FYFCD16Z3PCC,3SNR5F7RA597AOC2DOU98SGLOEGIEB,3OS46CRSLJFB5Y1HWFFW0DAP9WGV6T,6,5
76,2,object_04,object_10,912.79999999702,4,2,187.5,0.1111111111111111,2,object_05,1,1354,0,8,1,forest_8,1,memory-2step-stake-s,571,1392866,0.0-19.0-0.0-0.76,A2FYFCD16Z3PCC,3SNR5F7RA597AOC2DOU98SGLOEGIEB,3OS46CRSLJFB5Y1HWFFW0DAP9WGV6T,3,4
77,1,object_08,object_03,916.59999999404,1,2,279.09999999404,0.5555555555555556,1,object_07,1,1359,0,5,1,desert_8,1,memory-2step-stake-s,572,1400863,0.0-19.0-0.0-0.77,A2FYFCD16Z3PCC,3SNR5F7RA597AOC2DOU98SGLOEGIEB,3OS46CRSLJFB5Y1HWFFW0DAP9WGV6T,2,1
78,1,object_03,object_08,799.79999999702,1,1,43.0,0.5555555555555556,1,object_07,1,1364,0,5,3,desert_8,1,memory-2step-stake-s,573,1408622,0.0-19.0-0.0-0.78,A2FYFCD16Z3PCC,3SNR5F7RA597AOC2DOU98SGLOEGIEB,3OS46CRSLJFB5Y1HWFFW0DAP9WGV6T,1,2
79,3,object_01,object_06,1040.6000000089,5,2,299.70000000298,0.4444444444444444,1,object_07,5,1384,0,4,1,library_7,1,memory-2step-stake-s,574,1416548,0.0-19.0-0.0-0.79,A2FYFCD16Z3PCC,3SNR5F7RA597AOC2DOU98SGLOEGIEB,3OS46CRSLJFB5Y1HWFFW0DAP9WGV6T,6,5
80,1,object_03,object_08,971.10000000894,2,2,287.40000000596,0.2222222222222222,2,object_05,1,1386,0,5,2,desert_1,1,memory-2step-stake-s,575,1424264,0.0-19.0-0.0-0.80,A2FYFCD16Z3PCC,3SNR5F7RA597AOC2DOU98SGLOEGIEB,3OS46CRSLJFB5Y1HWFFW0DAP9WGV6T,1,2
81,4,object_02,object_09,1054.0,8,2,227.29999999702,0.3333333333333333,2,object_05,5,1401,0,5,3,restaurant_2,1,memory-2step-stake-s,576,1432023,0.0-19.0-0.0-0.81,A2FYFCD16Z3PCC,3SNR5F7RA597AOC2DOU98SGLOEGIEB,3OS46CRSLJFB5Y1HWFFW0DAP9WGV6T,7,8
82,2,object_04,object_10,985.0,3,1,355.29999999702,0.5555555555555556,1,object_07,1,1406,0,5,1,forest_6,1,memory-2step-stake-s,577,1440108,0.0-19.0-0.0-0.82,A2FYFCD16Z3PCC,3SNR5F7RA597AOC2DOU98SGLOEGIEB,3OS46CRSLJFB5Y1HWFFW0DAP9WGV6T,3,4
83,2,object_04,object_10,1170.799999997,3,1,401.0,0.7777777777777778,1,object_07,1,1413,0,7,2,forest_7,1,memory-2step-stake-s,578,1448469,0.0-19.0-0.0-0.83,A2FYFCD16Z3PCC,3SNR5F7RA597AOC2DOU98SGLOEGIEB,3OS46CRSLJFB5Y1HWFFW0DAP9WGV6T,3,4
84,2,object_10,object_04,858.5,3,2,876.09999999404,0.7777777777777778,1,object_07,1,1420,0,7,2,forest_7,1,memory-2step-stake-s,579,1457282,0.0-19.0-0.0-0.84,A2FYFCD16Z3PCC,3SNR5F7RA597AOC2DOU98SGLOEGIEB,3OS46CRSLJFB5Y1HWFFW0DAP9WGV6T,4,3
85,3,object_06,object_01,1076.799999997,5,1,318.40000000596,1.0,1,object_07,1,1429,0,9,1,library_8,1,memory-2step-stake-s,580,1465739,0.0-19.0-0.0-0.85,A2FYFCD16Z3PCC,3SNR5F7RA597AOC2DOU98SGLOEGIEB,3OS46CRSLJFB5Y1HWFFW0DAP9WGV6T,5,6
86,1,object_08,object_03,1027.799999997,2,1,287.29999999702,0.0,2,object_05,5,1429,0,7,0,desert_3,1,memory-2step-stake-s,581,1473246,0.0-19.0-0.0-0.86,A2FYFCD16Z3PCC,3SNR5F7RA597AOC2DOU98SGLOEGIEB,3OS46CRSLJFB5Y1HWFFW0DAP9WGV6T,2,1
87,4,object_09,object_02,1464.799999997,7,2,426.79999999702,0.6666666666666666,1,object_07,5,1459,0,6,2,restaurant_2,1,memory-2step-stake-s,582,1481494,0.0-19.0-0.0-0.87,A2FYFCD16Z3PCC,3SNR5F7RA597AOC2DOU98SGLOEGIEB,3OS46CRSLJFB5Y1HWFFW0DAP9WGV6T,8,7
88,2,object_04,object_10,1499.299999997,4,2,406.79999999702,0.3333333333333333,2,object_05,1,1462,0,5,3,forest_7,1,memory-2step-stake-s,583,1489440,0.0-19.0-0.0-0.88,A2FYFCD16Z3PCC,3SNR5F7RA597AOC2DOU98SGLOEGIEB,3OS46CRSLJFB5Y1HWFFW0DAP9WGV6T,3,4
89,4,object_02,object_09,856.29999999702,7,1,180.69999998808,0.8888888888888888,1,object_07,5,1502,0,8,5,restaurant_2,1,memory-2step-stake-s,584,1497650,0.0-19.0-0.0-0.89,A2FYFCD16Z3PCC,3SNR5F7RA597AOC2DOU98SGLOEGIEB,3OS46CRSLJFB5Y1HWFFW0DAP9WGV6T,7,8
90,4,object_09,object_02,996.29999999702,7,2,327.69999998808,0.6666666666666666,1,object_07,5,1532,0,6,5,restaurant_8,1,memory-2step-stake-s,585,1505796,0.0-19.0-0.0-0.90,A2FYFCD16Z3PCC,3SNR5F7RA597AOC2DOU98SGLOEGIEB,3OS46CRSLJFB5Y1HWFFW0DAP9WGV6T,8,7
91,3,object_01,object_06,883.5,5,2,302.60000000894,0.5555555555555556,1,object_07,5,1557,0,5,4,library_4,1,memory-2step-stake-s,586,1513832,0.0-19.0-0.0-0.91,A2FYFCD16Z3PCC,3SNR5F7RA597AOC2DOU98SGLOEGIEB,3OS46CRSLJFB5Y1HWFFW0DAP9WGV6T,6,5
92,4,object_02,object_09,712.29999999702,7,1,35.5,0.4444444444444444,1,object_07,5,1577,0,4,7,restaurant_8,1,memory-2step-stake-s,587,1521489,0.0-19.0-0.0-0.92,A2FYFCD16Z3PCC,3SNR5F7RA597AOC2DOU98SGLOEGIEB,3OS46CRSLJFB5Y1HWFFW0DAP9WGV6T,7,8
93,1,object_03,object_08,1094.700000003,1,1,49.0,0.3333333333333333,1,object_07,1,1580,0,3,7,desert_1,1,memory-2step-stake-s,588,1529075,0.0-19.0-0.0-0.93,A2FYFCD16Z3PCC,3SNR5F7RA597AOC2DOU98SGLOEGIEB,3OS46CRSLJFB5Y1HWFFW0DAP9WGV6T,1,2
94,4,object_09,object_02,749.10000000894,7,2,46.5,0.3333333333333333,1,object_07,5,1595,0,3,4,restaurant_8,1,memory-2step-stake-s,589,1536646,0.0-19.0-0.0-0.94,A2FYFCD16Z3PCC,3SNR5F7RA597AOC2DOU98SGLOEGIEB,3OS46CRSLJFB5Y1HWFFW0DAP9WGV6T,8,7
95,3,object_06,object_01,833.40000000596,6,2,173.40000000596,0.6666666666666666,2,object_05,5,1625,0,1,6,library_5,1,memory-2step-stake-s,590,1544653,0.0-19.0-0.0-0.95,A2FYFCD16Z3PCC,3SNR5F7RA597AOC2DOU98SGLOEGIEB,3OS46CRSLJFB5Y1HWFFW0DAP9WGV6T,5,6
96,1,object_08,object_03,786.70000000298,2,1,60.0,0.7777777777777778,2,object_05,1,1632,0,2,7,desert_3,1,memory-2step-stake-s,591,1552636,0.0-19.0-0.0-0.96,A2FYFCD16Z3PCC,3SNR5F7RA597AOC2DOU98SGLOEGIEB,3OS46CRSLJFB5Y1HWFFW0DAP9WGV6T,2,1
97,3,object_01,object_06,859.09999999404,6,1,46.59999999404,0.8888888888888888,2,object_05,5,1672,0,4,8,library_5,1,memory-2step-stake-s,592,1560703,0.0-19.0-0.0-0.97,A2FYFCD16Z3PCC,3SNR5F7RA597AOC2DOU98SGLOEGIEB,3OS46CRSLJFB5Y1HWFFW0DAP9WGV6T,6,5
98,1,object_08,object_03,1377.3999999911,2,1,298.60000000894,0.7777777777777778,2,object_05,1,1679,0,4,7,desert_6,1,memory-2step-stake-s,593,1568934,0.0-19.0-0.0-0.98,A2FYFCD16Z3PCC,3SNR5F7RA597AOC2DOU98SGLOEGIEB,3OS46CRSLJFB5Y1HWFFW0DAP9WGV6T,2,1
99,4,object_02,object_09,993.0,8,2,131.70000000298,0.6666666666666666,2,object_05,5,1709,0,6,6,restaurant_8,1,memory-2step-stake-s,594,1576918,0.0-19.0-0.0-0.99,A2FYFCD16Z3PCC,3SNR5F7RA597AOC2DOU98SGLOEGIEB,3OS46CRSLJFB5Y1HWFFW0DAP9WGV6T,7,8
100,2,object_10,object_04,1305.400000006,4,1,612.5,0.6666666666666666,2,object_05,5,1739,0,8,6,forest_8,1,memory-2step-stake-s,595,1585364,0.0-19.0-0.0-0.100,A2FYFCD16Z3PCC,3SNR5F7RA597AOC2DOU98SGLOEGIEB,3OS46CRSLJFB5Y1HWFFW0DAP9WGV6T,4,3
101,1,object_03,object_08,875.70000000298,2,2,536.0,0.8888888888888888,2,object_05,1,1747,0,5,8,desert_8,1,memory-2step-stake-s,596,1593938,0.0-19.0-0.0-0.101,A2FYFCD16Z3PCC,3SNR5F7RA597AOC2DOU98SGLOEGIEB,3OS46CRSLJFB5Y1HWFFW0DAP9WGV6T,1,2
102,4,object_02,object_09,998.0,8,2,208.70000000298,1.0,2,object_05,5,1792,0,1,9,restaurant_5,1,memory-2step-stake-s,597,1602299,0.0-19.0-0.0-0.102,A2FYFCD16Z3PCC,3SNR5F7RA597AOC2DOU98SGLOEGIEB,3OS46CRSLJFB5Y1HWFFW0DAP9WGV6T,7,8
103,1,object_08,object_03,861.0,2,1,677.60000000894,0.8888888888888888,2,object_05,1,1800,0,1,8,desert_6,1,memory-2step-stake-s,598,1611006,0.0-19.0-0.0-0.103,A2FYFCD16Z3PCC,3SNR5F7RA597AOC2DOU98SGLOEGIEB,3OS46CRSLJFB5Y1HWFFW0DAP9WGV6T,2,1
104,1,object_03,object_08,843.29999999702,2,2,262.0,0.6666666666666666,2,object_05,5,1830,0,2,6,desert_6,1,memory-2step-stake-s,599,1619092,0.0-19.0-0.0-0.104,A2FYFCD16Z3PCC,3SNR5F7RA597AOC2DOU98SGLOEGIEB,3OS46CRSLJFB5Y1HWFFW0DAP9WGV6T,1,2
105,4,object_02,object_09,882.40000000596,8,2,37.70000000298,0.5555555555555556,2,object_05,5,1855,0,2,5,restaurant_7,1,memory-2step-stake-s,600,1626862,0.0-19.0-0.0-0.105,A2FYFCD16Z3PCC,3SNR5F7RA597AOC2DOU98SGLOEGIEB,3OS46CRSLJFB5Y1HWFFW0DAP9WGV6T,7,8
106,1,object_03,object_08,776.79999999702,2,2,1003.0,0.7777777777777778,2,object_05,1,1862,0,1,7,desert_8,1,memory-2step-stake-s,601,1635811,0.0-19.0-0.0-0.106,A2FYFCD16Z3PCC,3SNR5F7RA597AOC2DOU98SGLOEGIEB,3OS46CRSLJFB5Y1HWFFW0DAP9WGV6T,1,2
107,4,object_09,object_02,1094.3000000119,8,1,41.0,0.5555555555555556,2,object_05,5,1887,0,3,5,restaurant_7,1,memory-2step-stake-s,602,1643575,0.0-19.0-0.0-0.107,A2FYFCD16Z3PCC,3SNR5F7RA597AOC2DOU98SGLOEGIEB,3OS46CRSLJFB5Y1HWFFW0DAP9WGV6T,8,7
108,3,object_01,object_06,1096.3000000119,5,2,251.60000000894,0.5555555555555556,1,object_07,1,1892,0,5,9,library_8,1,memory-2step-stake-s,603,1651544,0.0-19.0-0.0-0.108,A2FYFCD16Z3PCC,3SNR5F7RA597AOC2DOU98SGLOEGIEB,3OS46CRSLJFB5Y1HWFFW0DAP9WGV6T,6,5
109,1,object_08,object_03,662.59999999404,1,2,87.600000008941,0.6666666666666666,1,object_07,5,1922,0,6,8,desert_1,1,memory-2step-stake-s,604,1659476,0.0-19.0-0.0-0.109,A2FYFCD16Z3PCC,3SNR5F7RA597AOC2DOU98SGLOEGIEB,3OS46CRSLJFB5Y1HWFFW0DAP9WGV6T,2,1
110,1,object_03,object_08,1067.5,1,1,69.20000000298,1.0,1,object_07,1,1931,0,9,8,desert_3,1,memory-2step-stake-s,605,1667678,0.0-19.0-0.0-0.110,A2FYFCD16Z3PCC,3SNR5F7RA597AOC2DOU98SGLOEGIEB,3OS46CRSLJFB5Y1HWFFW0DAP9WGV6T,1,2
111,2,object_04,object_10,1112.599999994,3,1,299.79999999702,0.8888888888888888,1,object_07,1,1939,0,8,8,forest_8,1,memory-2step-stake-s,606,1676015,0.0-19.0-0.0-0.111,A2FYFCD16Z3PCC,3SNR5F7RA597AOC2DOU98SGLOEGIEB,3OS46CRSLJFB5Y1HWFFW0DAP9WGV6T,3,4
112,3,object_06,object_01,1166.299999997,5,1,424.70000000298,0.7777777777777778,1,object_07,5,1974,0,7,8,library_7,1,memory-2step-stake-s,607,1684382,0.0-19.0-0.0-0.112,A2FYFCD16Z3PCC,3SNR5F7RA597AOC2DOU98SGLOEGIEB,3OS46CRSLJFB5Y1HWFFW0DAP9WGV6T,5,6
113,2,object_04,object_10,946.0,3,1,251.5,0.6666666666666666,1,object_07,1,1980,0,6,8,forest_7,1,memory-2step-stake-s,608,1692468,0.0-19.0-0.0-0.113,A2FYFCD16Z3PCC,3SNR5F7RA597AOC2DOU98SGLOEGIEB,3OS46CRSLJFB5Y1HWFFW0DAP9WGV6T,3,4
114,2,object_10,object_04,1075.700000003,3,2,85.09999999404,0.8888888888888888,1,object_07,1,1988,0,8,7,forest_8,1,memory-2step-stake-s,609,1700594,0.0-19.0-0.0-0.114,A2FYFCD16Z3PCC,3SNR5F7RA597AOC2DOU98SGLOEGIEB,3OS46CRSLJFB5Y1HWFFW0DAP9WGV6T,4,3
115,1,object_03,object_08,821.69999998808,1,1,177.0,0.8888888888888888,1,object_07,1,1996,0,8,6,desert_6,1,memory-2step-stake-s,610,1708811,0.0-19.0-0.0-0.115,A2FYFCD16Z3PCC,3SNR5F7RA597AOC2DOU98SGLOEGIEB,3OS46CRSLJFB5Y1HWFFW0DAP9WGV6T,1,2
116,3,object_01,object_06,933.40000000596,5,2,200.79999999702,0.8888888888888888,1,object_07,5,2036,0,8,8,library_8,1,memory-2step-stake-s,611,1717043,0.0-19.0-0.0-0.116,A2FYFCD16Z3PCC,3SNR5F7RA597AOC2DOU98SGLOEGIEB,3OS46CRSLJFB5Y1HWFFW0DAP9WGV6T,6,5
117,2,object_04,object_10,820.5,3,1,511.0,0.7777777777777778,1,object_07,1,2043,0,7,7,forest_6,1,memory-2step-stake-s,612,1725475,0.0-19.0-0.0-0.117,A2FYFCD16Z3PCC,3SNR5F7RA597AOC2DOU98SGLOEGIEB,3OS46CRSLJFB5Y1HWFFW0DAP9WGV6T,3,4
118,3,object_06,object_01,851.79999999702,5,1,293.5,0.4444444444444444,1,object_07,5,2063,0,4,4,library_7,1,memory-2step-stake-s,613,1733403,0.0-19.0-0.0-0.118,A2FYFCD16Z3PCC,3SNR5F7RA597AOC2DOU98SGLOEGIEB,3OS46CRSLJFB5Y1HWFFW0DAP9WGV6T,5,6
119,3,object_06,object_01,1004.700000003,5,1,527.70000000298,0.7777777777777778,1,object_07,5,2098,0,7,6,library_4,1,memory-2step-stake-s,614,1741852,0.0-19.0-0.0-0.119,A2FYFCD16Z3PCC,3SNR5F7RA597AOC2DOU98SGLOEGIEB,3OS46CRSLJFB5Y1HWFFW0DAP9WGV6T,5,6
120,4,object_02,object_09,1052.3999999911,8,2,398.89999999106,0.5555555555555556,2,object_05,5,2123,0,5,5,restaurant_5,1,memory-2step-stake-s,615,1749985,0.0-19.0-0.0-0.120,A2FYFCD16Z3PCC,3SNR5F7RA597AOC2DOU98SGLOEGIEB,3OS46CRSLJFB5Y1HWFFW0DAP9WGV6T,7,8
121,3,object_06,object_01,1342.200000003,5,1,450.0,0.8888888888888888,1,object_07,5,2163,0,8,5,library_5,1,memory-2step-stake-s,616,1758473,0.0-19.0-0.0-0.121,A2FYFCD16Z3PCC,3SNR5F7RA597AOC2DOU98SGLOEGIEB,3OS46CRSLJFB5Y1HWFFW0DAP9WGV6T,5,6
122,1,object_03,object_08,869.5,1,1,192.79999999702,0.8888888888888888,1,object_07,1,2171,0,8,5,desert_3,1,memory-2step-stake-s,617,1766710,0.0-19.0-0.0-0.122,A2FYFCD16Z3PCC,3SNR5F7RA597AOC2DOU98SGLOEGIEB,3OS46CRSLJFB5Y1HWFFW0DAP9WGV6T,1,2
123,4,object_02,object_09,945.5,7,1,148.29999999702,0.8888888888888888,1,object_07,5,2211,0,8,7,restaurant_5,1,memory-2step-stake-s,618,1774903,0.0-19.0-0.0-0.123,A2FYFCD16Z3PCC,3SNR5F7RA597AOC2DOU98SGLOEGIEB,3OS46CRSLJFB5Y1HWFFW0DAP9WGV6T,7,8
124,2,object_10,object_04,1023.8999999911,3,2,154.10000000894,0.6666666666666666,1,object_07,1,2217,0,6,6,forest_6,1,memory-2step-stake-s,619,1782904,0.0-19.0-0.0-0.124,A2FYFCD16Z3PCC,3SNR5F7RA597AOC2DOU98SGLOEGIEB,3OS46CRSLJFB5Y1HWFFW0DAP9WGV6T,4,3
125,1,object_08,object_03,1239.799999997,2,1,32.699999988079,0.8888888888888888,2,object_05,1,2225,0,8,8,desert_3,1,memory-2step-stake-s,620,1790966,0.0-19.0-0.0-0.125,A2FYFCD16Z3PCC,3SNR5F7RA597AOC2DOU98SGLOEGIEB,3OS46CRSLJFB5Y1HWFFW0DAP9WGV6T,2,1
126,2,object_10,object_04,881.29999999702,3,2,156.79999999702,0.7777777777777778,1,object_07,5,2260,0,7,9,forest_8,1,memory-2step-stake-s,621,1799055,0.0-19.0-0.0-0.126,A2FYFCD16Z3PCC,3SNR5F7RA597AOC2DOU98SGLOEGIEB,3OS46CRSLJFB5Y1HWFFW0DAP9WGV6T,4,3
127,1,object_03,object_08,1017.200000003,1,1,133.29999999702,1.0,1,object_07,1,2269,0,9,6,desert_6,1,memory-2step-stake-s,622,1807305,0.0-19.0-0.0-0.127,A2FYFCD16Z3PCC,3SNR5F7RA597AOC2DOU98SGLOEGIEB,3OS46CRSLJFB5Y1HWFFW0DAP9WGV6T,1,2
128,3,object_01,object_06,1096.5,5,2,451.90000000596,0.7777777777777778,1,object_07,5,2304,0,7,8,library_7,1,memory-2step-stake-s,624,2088964,0.0-19.0-0.1-0.128,A2FYFCD16Z3PCC,3SNR5F7RA597AOC2DOU98SGLOEGIEB,3OS46CRSLJFB5Y1HWFFW0DAP9WGV6T,6,5
129,3,object_01,object_06,828.80000001192,5,2,214.40000000596,0.6666666666666666,1,object_07,5,2334,0,6,9,library_5,1,memory-2step-stake-s,625,2097000,0.0-19.0-0.1-0.129,A2FYFCD16Z3PCC,3SNR5F7RA597AOC2DOU98SGLOEGIEB,3OS46CRSLJFB5Y1HWFFW0DAP9WGV6T,6,5
130,3,object_06,object_01,808.09999999404,6,2,43.100000008941,0.8888888888888888,2,object_05,5,2374,0,6,8,library_4,1,memory-2step-stake-s,626,2105069,0.0-19.0-0.1-0.130,A2FYFCD16Z3PCC,3SNR5F7RA597AOC2DOU98SGLOEGIEB,3OS46CRSLJFB5Y1HWFFW0DAP9WGV6T,5,6
131,3,object_01,object_06,572.5,6,1,139.10000000894,0.6666666666666666,2,object_05,5,2404,0,5,6,library_5,1,memory-2step-stake-s,627,2113057,0.0-19.0-0.1-0.131,A2FYFCD16Z3PCC,3SNR5F7RA597AOC2DOU98SGLOEGIEB,3OS46CRSLJFB5Y1HWFFW0DAP9WGV6T,6,5
132,1,object_03,object_08,1023.8999999911,2,2,131.5,1.0,2,object_05,1,2413,0,4,9,desert_3,1,memory-2step-stake-s,628,2121349,0.0-19.0-0.1-0.132,A2FYFCD16Z3PCC,3SNR5F7RA597AOC2DOU98SGLOEGIEB,3OS46CRSLJFB5Y1HWFFW0DAP9WGV6T,1,2
133,4,object_02,object_09,1364.0,8,2,318.70000000298,0.7777777777777778,2,object_05,5,2448,0,2,7,restaurant_7,1,memory-2step-stake-s,629,2129602,0.0-19.0-0.1-0.133,A2FYFCD16Z3PCC,3SNR5F7RA597AOC2DOU98SGLOEGIEB,3OS46CRSLJFB5Y1HWFFW0DAP9WGV6T,7,8
134,1,object_08,object_03,926.89999999106,2,1,0.8999999910593,0.5555555555555556,2,object_05,1,2453,0,0,5,desert_8,1,memory-2step-stake-s,630,2137332,0.0-19.0-0.1-0.134,A2FYFCD16Z3PCC,3SNR5F7RA597AOC2DOU98SGLOEGIEB,3OS46CRSLJFB5Y1HWFFW0DAP9WGV6T,2,1
135,1,object_08,object_03,850.59999999404,1,2,229.5,0.2222222222222222,1,object_07,1,2455,0,2,7,desert_6,1,memory-2step-stake-s,631,2144985,0.0-19.0-0.1-0.135,A2FYFCD16Z3PCC,3SNR5F7RA597AOC2DOU98SGLOEGIEB,3OS46CRSLJFB5Y1HWFFW0DAP9WGV6T,2,1
136,3,object_01,object_06,664.40000000596,6,1,42.59999999404,0.8888888888888888,2,object_05,5,2495,0,1,8,library_8,1,memory-2step-stake-s,632,2153058,0.0-19.0-0.1-0.136,A2FYFCD16Z3PCC,3SNR5F7RA597AOC2DOU98SGLOEGIEB,3OS46CRSLJFB5Y1HWFFW0DAP9WGV6T,6,5
137,1,object_03,object_08,709.29999999702,2,2,191.5,0.8888888888888888,2,object_05,5,2535,0,2,8,desert_3,1,memory-2step-stake-s,633,2161278,0.0-19.0-0.1-0.137,A2FYFCD16Z3PCC,3SNR5F7RA597AOC2DOU98SGLOEGIEB,3OS46CRSLJFB5Y1HWFFW0DAP9WGV6T,1,2
138,2,object_04,object_10,1328.6999999881,3,1,282.90000000596,0.2222222222222222,1,object_07,1,2537,0,2,8,forest_3,1,memory-2step-stake-s,634,2168977,0.0-19.0-0.1-0.138,A2FYFCD16Z3PCC,3SNR5F7RA597AOC2DOU98SGLOEGIEB,3OS46CRSLJFB5Y1HWFFW0DAP9WGV6T,3,4
139,4,object_09,object_02,1254.799999997,7,2,194.09999999404,0.5555555555555556,1,object_07,5,2562,0,5,9,restaurant_5,1,memory-2step-stake-s,635,2176913,0.0-19.0-0.1-0.139,A2FYFCD16Z3PCC,3SNR5F7RA597AOC2DOU98SGLOEGIEB,3OS46CRSLJFB5Y1HWFFW0DAP9WGV6T,8,7
140,1,object_08,object_03,712.5,2,1,44.0,1.0,2,object_05,1,2571,0,4,9,desert_6,1,memory-2step-stake-s,636,2185101,0.0-19.0-0.1-0.140,A2FYFCD16Z3PCC,3SNR5F7RA597AOC2DOU98SGLOEGIEB,3OS46CRSLJFB5Y1HWFFW0DAP9WGV6T,2,1
141,2,object_04,object_10,748.70000000298,4,2,167.90000000596,0.7777777777777778,2,object_05,1,2578,0,5,7,forest_6,1,memory-2step-stake-s,637,2193185,0.0-19.0-0.1-0.141,A2FYFCD16Z3PCC,3SNR5F7RA597AOC2DOU98SGLOEGIEB,3OS46CRSLJFB5Y1HWFFW0DAP9WGV6T,3,4
142,3,object_01,object_06,-1.0,-1,-1,-1.0,0.0,-,0,5,2578,0,6,7,library_5,1,memory-2step-stake-s,638,2199694,0.0-19.0-0.1-0.142,A2FYFCD16Z3PCC,3SNR5F7RA597AOC2DOU98SGLOEGIEB,3OS46CRSLJFB5Y1HWFFW0DAP9WGV6T,6,5
143,3,object_01,object_06,681.69999998808,6,1,99.5,0.8888888888888888,2,object_05,1,2586,0,9,8,library_7,1,memory-2step-stake-s,639,2207825,0.0-19.0-0.1-0.143,A2FYFCD16Z3PCC,3SNR5F7RA597AOC2DOU98SGLOEGIEB,3OS46CRSLJFB5Y1HWFFW0DAP9WGV6T,6,5
144,2,object_10,object_04,536.29999999702,4,1,163.40000000596,0.8888888888888888,2,object_05,1,2594,0,8,8,forest_3,1,memory-2step-stake-s,640,2216022,0.0-19.0-0.1-0.144,A2FYFCD16Z3PCC,3SNR5F7RA597AOC2DOU98SGLOEGIEB,3OS46CRSLJFB5Y1HWFFW0DAP9WGV6T,4,3
145,4,object_09,object_02,436.0,8,1,243.59999999404,1.0,2,object_05,5,2639,0,8,9,restaurant_2,1,memory-2step-stake-s,641,2224419,0.0-19.0-0.1-0.145,A2FYFCD16Z3PCC,3SNR5F7RA597AOC2DOU98SGLOEGIEB,3OS46CRSLJFB5Y1HWFFW0DAP9WGV6T,8,7
146,1,object_08,object_03,677.70000000298,2,1,178.40000000596,0.7777777777777778,2,object_05,1,2646,0,8,7,desert_6,1,memory-2step-stake-s,642,2232551,0.0-19.0-0.1-0.146,A2FYFCD16Z3PCC,3SNR5F7RA597AOC2DOU98SGLOEGIEB,3OS46CRSLJFB5Y1HWFFW0DAP9WGV6T,2,1
147,3,object_01,object_06,977.09999999404,6,1,221.09999999404,0.8888888888888888,2,object_05,5,2686,0,5,8,library_4,1,memory-2step-stake-s,643,2240793,0.0-19.0-0.1-0.147,A2FYFCD16Z3PCC,3SNR5F7RA597AOC2DOU98SGLOEGIEB,3OS46CRSLJFB5Y1HWFFW0DAP9WGV6T,6,5
148,2,object_04,object_10,1104.299999997,4,2,178.90000000596,0.5555555555555556,2,object_05,5,2711,0,5,5,forest_3,1,memory-2step-stake-s,644,2248716,0.0-19.0-0.1-0.148,A2FYFCD16Z3PCC,3SNR5F7RA597AOC2DOU98SGLOEGIEB,3OS46CRSLJFB5Y1HWFFW0DAP9WGV6T,3,4
149,2,object_04,object_10,772.60000000894,4,2,151.79999999702,0.5555555555555556,2,object_05,1,2716,0,5,5,forest_3,1,memory-2step-stake-s,645,2256585,0.0-19.0-0.1-0.149,A2FYFCD16Z3PCC,3SNR5F7RA597AOC2DOU98SGLOEGIEB,3OS46CRSLJFB5Y1HWFFW0DAP9WGV6T,3,4
150,3,object_06,object_01,1222.5,5,1,211.89999999106,0.6666666666666666,1,object_07,5,2746,0,6,1,library_7,1,memory-2step-stake-s,646,2264641,0.0-19.0-0.1-0.150,A2FYFCD16Z3PCC,3SNR5F7RA597AOC2DOU98SGLOEGIEB,3OS46CRSLJFB5Y1HWFFW0DAP9WGV6T,5,6
151,2,object_04,object_10,838.79999999702,3,1,25.59999999404,0.5555555555555556,1,object_07,1,2751,0,5,0,forest_7,1,memory-2step-stake-s,647,2272391,0.0-19.0-0.1-0.151,A2FYFCD16Z3PCC,3SNR5F7RA597AOC2DOU98SGLOEGIEB,3OS46CRSLJFB5Y1HWFFW0DAP9WGV6T,3,4
152,4,object_02,object_09,1336.799999997,8,2,141.59999999404,0.3333333333333333,2,object_05,5,2766,0,1,3,restaurant_7,1,memory-2step-stake-s,648,2280069,0.0-19.0-0.1-0.152,A2FYFCD16Z3PCC,3SNR5F7RA597AOC2DOU98SGLOEGIEB,3OS46CRSLJFB5Y1HWFFW0DAP9WGV6T,7,8
153,1,object_03,object_08,1026.6000000089,1,1,5.0,0.1111111111111111,1,object_07,1,2767,0,1,2,desert_3,1,memory-2step-stake-s,649,2287391,0.0-19.0-0.1-0.153,A2FYFCD16Z3PCC,3SNR5F7RA597AOC2DOU98SGLOEGIEB,3OS46CRSLJFB5Y1HWFFW0DAP9WGV6T,1,2
154,2,object_04,object_10,858.29999999702,4,2,389.10000000894,0.0,2,object_05,1,2767,0,1,0,forest_7,1,memory-2step-stake-s,650,2294991,0.0-19.0-0.1-0.154,A2FYFCD16Z3PCC,3SNR5F7RA597AOC2DOU98SGLOEGIEB,3OS46CRSLJFB5Y1HWFFW0DAP9WGV6T,3,4
155,3,object_01,object_06,-1.0,-1,-1,-1.0,0.0,-,0,5,2767,0,4,2,library_8,1,memory-2step-stake-s,651,2301498,0.0-19.0-0.1-0.155,A2FYFCD16Z3PCC,3SNR5F7RA597AOC2DOU98SGLOEGIEB,3OS46CRSLJFB5Y1HWFFW0DAP9WGV6T,6,5
156,2,object_10,object_04,1223.700000003,3,2,259.10000000894,0.2222222222222222,1,object_07,1,2769,0,2,0,forest_7,1,memory-2step-stake-s,652,2309169,0.0-19.0-0.1-0.156,A2FYFCD16Z3PCC,3SNR5F7RA597AOC2DOU98SGLOEGIEB,3OS46CRSLJFB5Y1HWFFW0DAP9WGV6T,4,3
157,2,object_04,object_10,-1.0,-1,-1,-1.0,0.0,-,0,1,2769,0,2,2,forest_8,1,memory-2step-stake-s,653,2315674,0.0-19.0-0.1-0.157,A2FYFCD16Z3PCC,3SNR5F7RA597AOC2DOU98SGLOEGIEB,3OS46CRSLJFB5Y1HWFFW0DAP9WGV6T,3,4
158,3,object_01,object_06,1198.700000003,6,1,304.39999999106,0.2222222222222222,2,object_05,5,2779,0,2,2,library_5,1,memory-2step-stake-s,654,2323394,0.0-19.0-0.1-0.158,A2FYFCD16Z3PCC,3SNR5F7RA597AOC2DOU98SGLOEGIEB,3OS46CRSLJFB5Y1HWFFW0DAP9WGV6T,6,5
159,4,object_02,object_09,679.59999999404,7,1,19.399999991059,0.2222222222222222,1,object_07,5,2789,0,2,7,restaurant_8,1,memory-2step-stake-s,655,2330835,0.0-19.0-0.1-0.159,A2FYFCD16Z3PCC,3SNR5F7RA597AOC2DOU98SGLOEGIEB,3OS46CRSLJFB5Y1HWFFW0DAP9WGV6T,7,8
160,4,object_02,object_09,129.0,7,1,227.0,0.3333333333333333,1,object_07,5,2804,0,3,8,restaurant_2,1,memory-2step-stake-s,656,2338583,0.0-19.0-0.1-0.160,A2FYFCD16Z3PCC,3SNR5F7RA597AOC2DOU98SGLOEGIEB,3OS46CRSLJFB5Y1HWFFW0DAP9WGV6T,7,8
161,3,object_01,object_06,666.5,6,1,116.5,0.8888888888888888,2,object_05,1,2812,0,4,8,library_4,1,memory-2step-stake-s,657,2346743,0.0-19.0-0.1-0.161,A2FYFCD16Z3PCC,3SNR5F7RA597AOC2DOU98SGLOEGIEB,3OS46CRSLJFB5Y1HWFFW0DAP9WGV6T,6,5
162,1,object_08,object_03,818.79999999702,2,1,141.70000000298,0.8888888888888888,2,object_05,5,2852,0,5,8,desert_8,1,memory-2step-stake-s,658,2354923,0.0-19.0-0.1-0.162,A2FYFCD16Z3PCC,3SNR5F7RA597AOC2DOU98SGLOEGIEB,3OS46CRSLJFB5Y1HWFFW0DAP9WGV6T,2,1
163,2,object_04,object_10,918.5,4,2,186.60000000894,0.8888888888888888,2,object_05,1,2860,0,7,8,forest_8,1,memory-2step-stake-s,659,2363131,0.0-19.0-0.1-0.163,A2FYFCD16Z3PCC,3SNR5F7RA597AOC2DOU98SGLOEGIEB,3OS46CRSLJFB5Y1HWFFW0DAP9WGV6T,3,4
164,2,object_04,object_10,806.09999999404,4,2,274.30000001192,0.6666666666666666,2,object_05,5,2890,0,9,6,forest_7,1,memory-2step-stake-s,660,2371230,0.0-19.0-0.1-0.164,A2FYFCD16Z3PCC,3SNR5F7RA597AOC2DOU98SGLOEGIEB,3OS46CRSLJFB5Y1HWFFW0DAP9WGV6T,3,4
165,4,object_02,object_09,723.70000000298,8,2,198.70000000298,0.5555555555555556,2,object_05,5,2915,0,8,5,restaurant_5,1,memory-2step-stake-s,661,2379164,0.0-19.0-0.1-0.165,A2FYFCD16Z3PCC,3SNR5F7RA597AOC2DOU98SGLOEGIEB,3OS46CRSLJFB5Y1HWFFW0DAP9WGV6T,7,8
166,4,object_09,object_02,949.20000000298,8,1,16.5,0.8888888888888888,2,object_05,5,2955,0,8,8,restaurant_2,1,memory-2step-stake-s,662,2387224,0.0-19.0-0.1-0.166,A2FYFCD16Z3PCC,3SNR5F7RA597AOC2DOU98SGLOEGIEB,3OS46CRSLJFB5Y1HWFFW0DAP9WGV6T,8,7
167,1,object_03,object_08,792.70000000298,2,2,154.79999999702,0.2222222222222222,2,object_05,1,2957,0,8,2,desert_8,1,memory-2step-stake-s,663,2394819,0.0-19.0-0.1-0.167,A2FYFCD16Z3PCC,3SNR5F7RA597AOC2DOU98SGLOEGIEB,3OS46CRSLJFB5Y1HWFFW0DAP9WGV6T,1,2
168,3,object_01,object_06,1053.5,6,1,257.10000000894,0.4444444444444444,2,object_05,5,2977,0,8,4,library_5,1,memory-2step-stake-s,664,2402696,0.0-19.0-0.1-0.168,A2FYFCD16Z3PCC,3SNR5F7RA597AOC2DOU98SGLOEGIEB,3OS46CRSLJFB5Y1HWFFW0DAP9WGV6T,6,5
169,2,object_10,object_04,938.0,3,2,36.70000000298,1.0,1,object_07,5,3022,0,9,1,forest_6,1,memory-2step-stake-s,665,2410853,0.0-19.0-0.1-0.169,A2FYFCD16Z3PCC,3SNR5F7RA597AOC2DOU98SGLOEGIEB,3OS46CRSLJFB5Y1HWFFW0DAP9WGV6T,4,3
170,3,object_06,object_01,915.60000000894,5,1,158.90000000596,0.8888888888888888,1,object_07,5,3062,0,8,1,library_8,1,memory-2step-stake-s,666,2419037,0.0-19.0-0.1-0.170,A2FYFCD16Z3PCC,3SNR5F7RA597AOC2DOU98SGLOEGIEB,3OS46CRSLJFB5Y1HWFFW0DAP9WGV6T,5,6
171,1,object_03,object_08,1284.099999994,1,1,127.89999999106,0.7777777777777778,1,object_07,1,3069,0,7,1,desert_1,1,memory-2step-stake-s,667,2427090,0.0-19.0-0.1-0.171,A2FYFCD16Z3PCC,3SNR5F7RA597AOC2DOU98SGLOEGIEB,3OS46CRSLJFB5Y1HWFFW0DAP9WGV6T,1,2
172,4,object_02,object_09,1175.3000000119,7,1,42.90000000596,0.4444444444444444,1,object_07,5,3089,0,4,1,restaurant_5,1,memory-2step-stake-s,668,2434759,0.0-19.0-0.1-0.172,A2FYFCD16Z3PCC,3SNR5F7RA597AOC2DOU98SGLOEGIEB,3OS46CRSLJFB5Y1HWFFW0DAP9WGV6T,7,8
173,1,object_03,object_08,658.0,1,1,157.0,0.3333333333333333,1,object_07,1,3092,0,3,1,desert_6,1,memory-2step-stake-s,669,2442441,0.0-19.0-0.1-0.173,A2FYFCD16Z3PCC,3SNR5F7RA597AOC2DOU98SGLOEGIEB,3OS46CRSLJFB5Y1HWFFW0DAP9WGV6T,1,2
174,2,object_10,object_04,1031.900000006,3,2,330.90000000596,0.3333333333333333,1,object_07,1,3095,0,3,0,forest_6,1,memory-2step-stake-s,670,2450290,0.0-19.0-0.1-0.174,A2FYFCD16Z3PCC,3SNR5F7RA597AOC2DOU98SGLOEGIEB,3OS46CRSLJFB5Y1HWFFW0DAP9WGV6T,4,3
175,2,object_04,object_10,1159.3999999911,4,2,354.60000000894,0.3333333333333333,2,object_05,1,3098,0,1,3,forest_6,1,memory-2step-stake-s,671,2458166,0.0-19.0-0.1-0.175,A2FYFCD16Z3PCC,3SNR5F7RA597AOC2DOU98SGLOEGIEB,3OS46CRSLJFB5Y1HWFFW0DAP9WGV6T,3,4
176,4,object_02,object_09,820.09999999404,7,1,278.90000000596,0.1111111111111111,1,object_07,5,3103,0,1,2,restaurant_8,1,memory-2step-stake-s,672,2465759,0.0-19.0-0.1-0.176,A2FYFCD16Z3PCC,3SNR5F7RA597AOC2DOU98SGLOEGIEB,3OS46CRSLJFB5Y1HWFFW0DAP9WGV6T,7,8
177,1,object_03,object_08,592.59999999404,1,1,203.0,0.4444444444444444,1,object_07,1,3107,0,4,5,desert_1,1,memory-2step-stake-s,673,2473596,0.0-19.0-0.1-0.177,A2FYFCD16Z3PCC,3SNR5F7RA597AOC2DOU98SGLOEGIEB,3OS46CRSLJFB5Y1HWFFW0DAP9WGV6T,1,2
178,2,object_10,object_04,827.0,4,1,198.20000000298,0.5555555555555556,2,object_05,1,3112,0,4,5,forest_3,1,memory-2step-stake-s,674,2481528,0.0-19.0-0.1-0.178,A2FYFCD16Z3PCC,3SNR5F7RA597AOC2DOU98SGLOEGIEB,3OS46CRSLJFB5Y1HWFFW0DAP9WGV6T,4,3
179,1,object_08,object_03,680.90000000596,1,2,18.600000008941,0.3333333333333333,1,object_07,1,3115,0,3,5,desert_3,1,memory-2step-stake-s,675,2489074,0.0-19.0-0.1-0.179,A2FYFCD16Z3PCC,3SNR5F7RA597AOC2DOU98SGLOEGIEB,3OS46CRSLJFB5Y1HWFFW0DAP9WGV6T,2,1
180,3,object_06,object_01,970.20000000298,6,2,238.79999999702,0.3333333333333333,2,object_05,1,3118,0,4,3,library_8,1,memory-2step-stake-s,676,2496831,0.0-19.0-0.1-0.180,A2FYFCD16Z3PCC,3SNR5F7RA597AOC2DOU98SGLOEGIEB,3OS46CRSLJFB5Y1HWFFW0DAP9WGV6T,5,6
181,1,object_08,object_03,186.20000000298,2,1,118.40000000596,0.1111111111111111,2,object_05,5,3123,0,1,1,desert_3,1,memory-2step-stake-s,677,2504263,0.0-19.0-0.1-0.181,A2FYFCD16Z3PCC,3SNR5F7RA597AOC2DOU98SGLOEGIEB,3OS46CRSLJFB5Y1HWFFW0DAP9WGV6T,2,1
182,1,object_08,object_03,723.29999999702,1,2,262.79999999702,0.3333333333333333,1,object_07,1,3126,0,3,1,desert_1,1,memory-2step-stake-s,678,2512047,0.0-19.0-0.1-0.182,A2FYFCD16Z3PCC,3SNR5F7RA597AOC2DOU98SGLOEGIEB,3OS46CRSLJFB5Y1HWFFW0DAP9WGV6T,2,1
183,2,object_10,object_04,1107.0,3,2,188.59999999404,0.1111111111111111,1,object_07,1,3127,0,1,2,forest_3,1,memory-2step-stake-s,679,2519550,0.0-19.0-0.1-0.183,A2FYFCD16Z3PCC,3SNR5F7RA597AOC2DOU98SGLOEGIEB,3OS46CRSLJFB5Y1HWFFW0DAP9WGV6T,4,3
184,3,object_06,object_01,995.60000000894,5,1,159.5,0.1111111111111111,1,object_07,1,3128,0,1,1,library_5,1,memory-2step-stake-s,680,2527037,0.0-19.0-0.1-0.184,A2FYFCD16Z3PCC,3SNR5F7RA597AOC2DOU98SGLOEGIEB,3OS46CRSLJFB5Y1HWFFW0DAP9WGV6T,5,6
185,4,object_09,object_02,1116.6000000089,8,1,111.79999999702,0.4444444444444444,2,object_05,5,3148,0,2,4,restaurant_7,1,memory-2step-stake-s,681,2534791,0.0-19.0-0.1-0.185,A2FYFCD16Z3PCC,3SNR5F7RA597AOC2DOU98SGLOEGIEB,3OS46CRSLJFB5Y1HWFFW0DAP9WGV6T,8,7
186,2,object_10,object_04,971.20000000298,4,1,175.0,0.3333333333333333,2,object_05,5,3163,0,4,3,forest_3,1,memory-2step-stake-s,682,2542483,0.0-19.0-0.1-0.186,A2FYFCD16Z3PCC,3SNR5F7RA597AOC2DOU98SGLOEGIEB,3OS46CRSLJFB5Y1HWFFW0DAP9WGV6T,4,3
187,2,object_04,object_10,1021.400000006,4,2,167.39999999106,0.1111111111111111,2,object_05,1,3164,0,6,1,forest_6,1,memory-2step-stake-s,683,2549965,0.0-19.0-0.1-0.187,A2FYFCD16Z3PCC,3SNR5F7RA597AOC2DOU98SGLOEGIEB,3OS46CRSLJFB5Y1HWFFW0DAP9WGV6T,3,4
188,3,object_06,object_01,-1.0,-1,-1,-1.0,0.0,-,0,5,3164,0,8,1,library_8,1,memory-2step-stake-s,684,2556478,0.0-19.0-0.1-0.188,A2FYFCD16Z3PCC,3SNR5F7RA597AOC2DOU98SGLOEGIEB,3OS46CRSLJFB5Y1HWFFW0DAP9WGV6T,5,6
189,3,object_06,object_01,1395.200000003,6,2,22.29999999702,0.5555555555555556,2,object_05,5,3189,0,7,5,library_8,1,memory-2step-stake-s,685,2564222,0.0-19.0-0.1-0.189,A2FYFCD16Z3PCC,3SNR5F7RA597AOC2DOU98SGLOEGIEB,3OS46CRSLJFB5Y1HWFFW0DAP9WGV6T,5,6
190,2,object_04,object_10,507.70000000298,3,1,25.199999988079,0.6666666666666666,1,object_07,1,3195,0,6,5,forest_8,1,memory-2step-stake-s,686,2572092,0.0-19.0-0.1-0.190,A2FYFCD16Z3PCC,3SNR5F7RA597AOC2DOU98SGLOEGIEB,3OS46CRSLJFB5Y1HWFFW0DAP9WGV6T,3,4
191,2,object_10,object_04,1078.0,4,1,159.59999999404,0.4444444444444444,2,object_05,1,3199,0,6,4,forest_8,1,memory-2step-stake-s,687,2579879,0.0-19.0-0.1-0.191,A2FYFCD16Z3PCC,3SNR5F7RA597AOC2DOU98SGLOEGIEB,3OS46CRSLJFB5Y1HWFFW0DAP9WGV6T,4,3
192,2,object_10,object_04,1035.5,3,2,229.29999999702,0.8888888888888888,1,object_07,1,3207,0,8,4,forest_8,1,memory-2step-stake-s,688,2588144,0.0-19.0-0.1-0.192,A2FYFCD16Z3PCC,3SNR5F7RA597AOC2DOU98SGLOEGIEB,3OS46CRSLJFB5Y1HWFFW0DAP9WGV6T,4,3
193,4,object_09,object_02,674.09999999404,7,2,260.69999998808,0.7777777777777778,1,object_07,1,3214,0,7,6,restaurant_8,1,memory-2step-stake-s,689,2596337,0.0-19.0-0.1-0.193,A2FYFCD16Z3PCC,3SNR5F7RA597AOC2DOU98SGLOEGIEB,3OS46CRSLJFB5Y1HWFFW0DAP9WGV6T,8,7
194,2,object_04,object_10,1144.700000003,4,2,243.20000000298,0.8888888888888888,2,object_05,1,3222,0,3,8,forest_6,1,memory-2step-stake-s,690,2604616,0.0-19.0-0.1-0.194,A2FYFCD16Z3PCC,3SNR5F7RA597AOC2DOU98SGLOEGIEB,3OS46CRSLJFB5Y1HWFFW0DAP9WGV6T,3,4
195,3,object_01,object_06,1072.799999997,5,2,181.39999999106,0.5555555555555556,1,object_07,5,3247,0,5,8,library_5,1,memory-2step-stake-s,691,2612525,0.0-19.0-0.1-0.195,A2FYFCD16Z3PCC,3SNR5F7RA597AOC2DOU98SGLOEGIEB,3OS46CRSLJFB5Y1HWFFW0DAP9WGV6T,6,5
196,3,object_06,object_01,820.30000001192,6,2,104.29999999702,0.6666666666666666,2,object_05,5,3277,0,5,6,library_4,1,memory-2step-stake-s,692,2620448,0.0-19.0-0.1-0.196,A2FYFCD16Z3PCC,3SNR5F7RA597AOC2DOU98SGLOEGIEB,3OS46CRSLJFB5Y1HWFFW0DAP9WGV6T,5,6
197,4,object_09,object_02,689.89999999106,7,2,92.59999999404,0.0,1,object_07,1,3277,0,0,5,restaurant_7,1,memory-2step-stake-s,693,2627751,0.0-19.0-0.1-0.197,A2FYFCD16Z3PCC,3SNR5F7RA597AOC2DOU98SGLOEGIEB,3OS46CRSLJFB5Y1HWFFW0DAP9WGV6T,8,7
198,1,object_03,object_08,937.40000000596,1,1,141.39999999106,0.2222222222222222,1,object_07,1,3279,0,2,6,desert_6,1,memory-2step-stake-s,694,2635321,0.0-19.0-0.1-0.198,A2FYFCD16Z3PCC,3SNR5F7RA597AOC2DOU98SGLOEGIEB,3OS46CRSLJFB5Y1HWFFW0DAP9WGV6T,1,2
199,4,object_02,object_09,1303.0,8,2,129.79999999702,0.5555555555555556,2,object_05,1,3284,0,4,5,restaurant_8,1,memory-2step-stake-s,695,2643186,0.0-19.0-0.1-0.199,A2FYFCD16Z3PCC,3SNR5F7RA597AOC2DOU98SGLOEGIEB,3OS46CRSLJFB5Y1HWFFW0DAP9WGV6T,7,8
200,4,object_02,object_09,1135.8000000119,8,2,90.600000008941,0.5555555555555556,2,object_05,5,3309,0,7,5,restaurant_2,1,memory-2step-stake-s,696,2650993,0.0-19.0-0.1-0.200,A2FYFCD16Z3PCC,3SNR5F7RA597AOC2DOU98SGLOEGIEB,3OS46CRSLJFB5Y1HWFFW0DAP9WGV6T,7,8
201,2,object_04,object_10,1032.099999994,3,1,330.89999999106,0.8888888888888888,1,object_07,1,3317,0,8,7,forest_7,1,memory-2step-stake-s,697,2659359,0.0-19.0-0.1-0.201,A2FYFCD16Z3PCC,3SNR5F7RA597AOC2DOU98SGLOEGIEB,3OS46CRSLJFB5Y1HWFFW0DAP9WGV6T,3,4
202,2,object_10,object_04,1235.3000000119,3,2,279.39999999106,0.5555555555555556,1,object_07,1,3322,0,5,7,forest_8,1,memory-2step-stake-s,698,2667354,0.0-19.0-0.1-0.202,A2FYFCD16Z3PCC,3SNR5F7RA597AOC2DOU98SGLOEGIEB,3OS46CRSLJFB5Y1HWFFW0DAP9WGV6T,4,3
203,2,object_10,object_04,671.79999999702,4,1,209.29999999702,0.6666666666666666,2,object_05,5,3352,0,8,6,forest_7,1,memory-2step-stake-s,699,2675390,0.0-19.0-0.1-0.203,A2FYFCD16Z3PCC,3SNR5F7RA597AOC2DOU98SGLOEGIEB,3OS46CRSLJFB5Y1HWFFW0DAP9WGV6T,4,3
204,3,object_06,object_01,1170.799999997,5,1,189.10000000894,0.6666666666666666,1,object_07,5,3382,0,6,3,library_4,1,memory-2step-stake-s,700,2683402,0.0-19.0-0.1-0.204,A2FYFCD16Z3PCC,3SNR5F7RA597AOC2DOU98SGLOEGIEB,3OS46CRSLJFB5Y1HWFFW0DAP9WGV6T,5,6
205,4,object_09,object_02,180.20000000298,8,1,80.600000008941,0.1111111111111111,2,object_05,5,3387,0,3,1,restaurant_8,1,memory-2step-stake-s,701,2690802,0.0-19.0-0.1-0.205,A2FYFCD16Z3PCC,3SNR5F7RA597AOC2DOU98SGLOEGIEB,3OS46CRSLJFB5Y1HWFFW0DAP9WGV6T,8,7
206,2,object_04,object_10,992.29999999702,3,1,18.29999999702,0.4444444444444444,1,object_07,5,3407,0,4,0,forest_6,1,memory-2step-stake-s,702,2698455,0.0-19.0-0.1-0.206,A2FYFCD16Z3PCC,3SNR5F7RA597AOC2DOU98SGLOEGIEB,3OS46CRSLJFB5Y1HWFFW0DAP9WGV6T,3,4
207,1,object_08,object_03,898.5,1,2,20.800000011921,0.5555555555555556,1,object_07,5,3432,0,5,1,desert_1,1,memory-2step-stake-s,703,2706192,0.0-19.0-0.1-0.207,A2FYFCD16Z3PCC,3SNR5F7RA597AOC2DOU98SGLOEGIEB,3OS46CRSLJFB5Y1HWFFW0DAP9WGV6T,2,1
208,4,object_02,object_09,1233.700000003,7,1,132.89999999106,0.5555555555555556,1,object_07,5,3457,0,5,1,restaurant_5,1,memory-2step-stake-s,704,2714041,0.0-19.0-0.1-0.208,A2FYFCD16Z3PCC,3SNR5F7RA597AOC2DOU98SGLOEGIEB,3OS46CRSLJFB5Y1HWFFW0DAP9WGV6T,7,8
209,3,object_06,object_01,1162.0,5,1,61.0,0.4444444444444444,1,object_07,1,3461,0,4,1,library_5,1,memory-2step-stake-s,705,2721718,0.0-19.0-0.1-0.209,A2FYFCD16Z3PCC,3SNR5F7RA597AOC2DOU98SGLOEGIEB,3OS46CRSLJFB5Y1HWFFW0DAP9WGV6T,5,6
210,1,object_08,object_03,787.69999998808,1,2,238.0,0.2222222222222222,1,object_07,5,3471,0,2,2,desert_8,1,memory-2step-stake-s,706,2729371,0.0-19.0-0.1-0.210,A2FYFCD16Z3PCC,3SNR5F7RA597AOC2DOU98SGLOEGIEB,3OS46CRSLJFB5Y1HWFFW0DAP9WGV6T,2,1
211,4,object_09,object_02,920.20000000298,8,1,10.5,0.2222222222222222,2,object_05,5,3481,0,1,2,restaurant_7,1,memory-2step-stake-s,707,2736798,0.0-19.0-0.1-0.211,A2FYFCD16Z3PCC,3SNR5F7RA597AOC2DOU98SGLOEGIEB,3OS46CRSLJFB5Y1HWFFW0DAP9WGV6T,8,7
212,4,object_02,object_09,660.29999999702,7,1,751.60000000894,0.2222222222222222,1,object_07,5,3491,0,2,6,restaurant_2,1,memory-2step-stake-s,708,2744963,0.0-19.0-0.1-0.212,A2FYFCD16Z3PCC,3SNR5F7RA597AOC2DOU98SGLOEGIEB,3OS46CRSLJFB5Y1HWFFW0DAP9WGV6T,7,8
213,3,object_06,object_01,71.600000008941,5,1,122.90000000596,0.2222222222222222,1,object_07,5,3501,0,2,2,library_8,1,memory-2step-stake-s,709,2752498,0.0-19.0-0.1-0.213,A2FYFCD16Z3PCC,3SNR5F7RA597AOC2DOU98SGLOEGIEB,3OS46CRSLJFB5Y1HWFFW0DAP9WGV6T,5,6
214,4,object_02,object_09,399.09999999404,8,2,74.0,0.1111111111111111,2,object_05,5,3506,0,3,1,restaurant_7,1,memory-2step-stake-s,710,2759893,0.0-19.0-0.1-0.214,A2FYFCD16Z3PCC,3SNR5F7RA597AOC2DOU98SGLOEGIEB,3OS46CRSLJFB5Y1HWFFW0DAP9WGV6T,7,8
215,4,object_09,object_02,124.70000000298,8,1,138.20000000298,0.0,2,object_05,5,3506,0,5,0,restaurant_7,1,memory-2step-stake-s,711,2767258,0.0-19.0-0.1-0.215,A2FYFCD16Z3PCC,3SNR5F7RA597AOC2DOU98SGLOEGIEB,3OS46CRSLJFB5Y1HWFFW0DAP9WGV6T,8,7
216,3,object_06,object_01,1009.200000003,5,1,172.89999999106,0.4444444444444444,1,object_07,5,3526,0,4,1,library_8,1,memory-2step-stake-s,712,2775072,0.0-19.0-0.1-0.216,A2FYFCD16Z3PCC,3SNR5F7RA597AOC2DOU98SGLOEGIEB,3OS46CRSLJFB5Y1HWFFW0DAP9WGV6T,5,6
217,2,object_10,object_04,999.59999999404,3,2,454.0,0.3333333333333333,1,object_07,1,3529,0,3,1,forest_6,1,memory-2step-stake-s,713,2783072,0.0-19.0-0.1-0.217,A2FYFCD16Z3PCC,3SNR5F7RA597AOC2DOU98SGLOEGIEB,3OS46CRSLJFB5Y1HWFFW0DAP9WGV6T,4,3
218,1,object_03,object_08,729.40000000596,1,1,620.5,0.4444444444444444,1,object_07,1,3533,0,4,1,desert_3,1,memory-2step-stake-s,714,2791320,0.0-19.0-0.1-0.218,A2FYFCD16Z3PCC,3SNR5F7RA597AOC2DOU98SGLOEGIEB,3OS46CRSLJFB5Y1HWFFW0DAP9WGV6T,1,2
219,3,object_06,object_01,706.19999998808,5,1,310.39999999106,0.7777777777777778,1,object_07,5,3568,0,7,2,library_4,1,memory-2step-stake-s,715,2799550,0.0-19.0-0.1-0.219,A2FYFCD16Z3PCC,3SNR5F7RA597AOC2DOU98SGLOEGIEB,3OS46CRSLJFB5Y1HWFFW0DAP9WGV6T,5,6
220,1,object_03,object_08,624.39999999106,1,1,150.0,0.8888888888888888,1,object_07,5,3608,0,8,3,desert_1,1,memory-2step-stake-s,716,2807729,0.0-19.0-0.1-0.220,A2FYFCD16Z3PCC,3SNR5F7RA597AOC2DOU98SGLOEGIEB,3OS46CRSLJFB5Y1HWFFW0DAP9WGV6T,1,2
221,1,object_08,object_03,960.79999999702,1,2,219.09999999404,0.5555555555555556,1,object_07,1,3613,0,5,2,desert_3,1,memory-2step-stake-s,717,2815683,0.0-19.0-0.1-0.221,A2FYFCD16Z3PCC,3SNR5F7RA597AOC2DOU98SGLOEGIEB,3OS46CRSLJFB5Y1HWFFW0DAP9WGV6T,2,1
222,4,object_02,object_09,655.40000000596,7,1,161.19999998808,0.8888888888888888,1,object_07,5,3653,0,8,0,restaurant_5,1,memory-2step-stake-s,718,2823901,0.0-19.0-0.1-0.222,A2FYFCD16Z3PCC,3SNR5F7RA597AOC2DOU98SGLOEGIEB,3OS46CRSLJFB5Y1HWFFW0DAP9WGV6T,7,8
223,3,object_01,object_06,1053.700000003,5,2,352.29999999702,0.8888888888888888,1,object_07,5,3693,0,8,0,library_7,1,memory-2step-stake-s,719,2832278,0.0-19.0-0.1-0.223,A2FYFCD16Z3PCC,3SNR5F7RA597AOC2DOU98SGLOEGIEB,3OS46CRSLJFB5Y1HWFFW0DAP9WGV6T,6,5
224,3,object_01,object_06,956.70000000298,5,2,279.09999999404,0.3333333333333333,1,object_07,5,3708,0,3,3,library_4,1,memory-2step-stake-s,720,2840074,0.0-19.0-0.1-0.224,A2FYFCD16Z3PCC,3SNR5F7RA597AOC2DOU98SGLOEGIEB,3OS46CRSLJFB5Y1HWFFW0DAP9WGV6T,6,5
225,1,object_08,object_03,760.59999999404,2,1,42.90000000596,0.3333333333333333,2,object_05,1,3711,0,3,3,desert_8,1,memory-2step-stake-s,721,2847646,0.0-19.0-0.1-0.225,A2FYFCD16Z3PCC,3SNR5F7RA597AOC2DOU98SGLOEGIEB,3OS46CRSLJFB5Y1HWFFW0DAP9WGV6T,2,1
226,2,object_10,object_04,708.90000000596,4,1,31.199999988079,0.4444444444444444,2,object_05,1,3715,0,4,4,forest_6,1,memory-2step-stake-s,722,2855295,0.0-19.0-0.1-0.226,A2FYFCD16Z3PCC,3SNR5F7RA597AOC2DOU98SGLOEGIEB,3OS46CRSLJFB5Y1HWFFW0DAP9WGV6T,4,3
227,2,object_10,object_04,1147.1000000089,3,2,135.0,0.1111111111111111,1,object_07,1,3716,0,1,2,forest_3,1,memory-2step-stake-s,723,2862749,0.0-19.0-0.1-0.227,A2FYFCD16Z3PCC,3SNR5F7RA597AOC2DOU98SGLOEGIEB,3OS46CRSLJFB5Y1HWFFW0DAP9WGV6T,4,3
228,2,object_10,object_04,806.30000001192,4,1,335.90000000596,0.1111111111111111,2,object_05,5,3721,0,5,1,forest_8,1,memory-2step-stake-s,724,2870400,0.0-19.0-0.1-0.228,A2FYFCD16Z3PCC,3SNR5F7RA597AOC2DOU98SGLOEGIEB,3OS46CRSLJFB5Y1HWFFW0DAP9WGV6T,4,3
229,3,object_01,object_06,967.90000000596,5,2,58.5,0.8888888888888888,1,object_07,5,3761,0,8,1,library_7,1,memory-2step-stake-s,725,2878488,0.0-19.0-0.1-0.229,A2FYFCD16Z3PCC,3SNR5F7RA597AOC2DOU98SGLOEGIEB,3OS46CRSLJFB5Y1HWFFW0DAP9WGV6T,6,5
230,1,object_08,object_03,723.70000000298,1,2,166.79999999702,0.7777777777777778,1,object_07,1,3768,0,7,2,desert_1,1,memory-2step-stake-s,726,2886591,0.0-19.0-0.1-0.230,A2FYFCD16Z3PCC,3SNR5F7RA597AOC2DOU98SGLOEGIEB,3OS46CRSLJFB5Y1HWFFW0DAP9WGV6T,2,1
231,4,object_09,object_02,715.0,7,2,164.60000000894,0.3333333333333333,1,object_07,5,3783,0,3,5,restaurant_2,1,memory-2step-stake-s,727,2894295,0.0-19.0-0.1-0.231,A2FYFCD16Z3PCC,3SNR5F7RA597AOC2DOU98SGLOEGIEB,3OS46CRSLJFB5Y1HWFFW0DAP9WGV6T,8,7
232,4,object_02,object_09,750.10000000894,7,1,113.29999999702,0.8888888888888888,1,object_07,1,3791,0,8,5,restaurant_7,1,memory-2step-stake-s,728,2902464,0.0-19.0-0.1-0.232,A2FYFCD16Z3PCC,3SNR5F7RA597AOC2DOU98SGLOEGIEB,3OS46CRSLJFB5Y1HWFFW0DAP9WGV6T,7,8
233,2,object_04,object_10,874.20000000298,3,1,157.0,0.4444444444444444,1,object_07,1,3795,0,4,3,forest_8,1,memory-2step-stake-s,729,2910242,0.0-19.0-0.1-0.233,A2FYFCD16Z3PCC,3SNR5F7RA597AOC2DOU98SGLOEGIEB,3OS46CRSLJFB5Y1HWFFW0DAP9WGV6T,3,4
234,4,object_02,object_09,840.59999999404,7,1,130.70000000298,0.7777777777777778,1,object_07,5,3830,0,7,3,restaurant_5,1,memory-2step-stake-s,730,2918296,0.0-19.0-0.1-0.234,A2FYFCD16Z3PCC,3SNR5F7RA597AOC2DOU98SGLOEGIEB,3OS46CRSLJFB5Y1HWFFW0DAP9WGV6T,7,8
235,2,object_10,object_04,771.89999999106,3,2,135.29999999702,0.6666666666666666,1,object_07,1,3836,0,6,4,forest_3,1,memory-2step-stake-s,731,2926293,0.0-19.0-0.1-0.235,A2FYFCD16Z3PCC,3SNR5F7RA597AOC2DOU98SGLOEGIEB,3OS46CRSLJFB5Y1HWFFW0DAP9WGV6T,4,3
236,3,object_01,object_06,876.60000000894,5,2,191.5,0.3333333333333333,1,object_07,5,3851,0,3,2,library_4,1,memory-2step-stake-s,732,2934024,0.0-19.0-0.1-0.236,A2FYFCD16Z3PCC,3SNR5F7RA597AOC2DOU98SGLOEGIEB,3OS46CRSLJFB5Y1HWFFW0DAP9WGV6T,6,5
237,4,object_09,object_02,912.79999999702,7,2,539.89999999106,0.2222222222222222,1,object_07,5,3861,0,2,2,restaurant_8,1,memory-2step-stake-s,733,2942002,0.0-19.0-0.1-0.237,A2FYFCD16Z3PCC,3SNR5F7RA597AOC2DOU98SGLOEGIEB,3OS46CRSLJFB5Y1HWFFW0DAP9WGV6T,8,7
238,4,object_09,object_02,704.70000000298,8,1,259.70000000298,0.4444444444444444,2,object_05,5,3881,0,6,4,restaurant_2,1,memory-2step-stake-s,734,2949879,0.0-19.0-0.1-0.238,A2FYFCD16Z3PCC,3SNR5F7RA597AOC2DOU98SGLOEGIEB,3OS46CRSLJFB5Y1HWFFW0DAP9WGV6T,8,7
239,3,object_01,object_06,724.29999999702,5,2,239.30000001192,0.7777777777777778,1,object_07,5,3916,0,7,3,library_7,1,memory-2step-stake-s,735,2958069,0.0-19.0-0.1-0.239,A2FYFCD16Z3PCC,3SNR5F7RA597AOC2DOU98SGLOEGIEB,3OS46CRSLJFB5Y1HWFFW0DAP9WGV6T,6,5
240,3,object_06,object_01,910.89999999106,5,1,297.40000000596,0.8888888888888888,1,object_07,5,3956,0,8,3,library_5,1,memory-2step-stake-s,736,2966407,0.0-19.0-0.1-0.240,A2FYFCD16Z3PCC,3SNR5F7RA597AOC2DOU98SGLOEGIEB,3OS46CRSLJFB5Y1HWFFW0DAP9WGV6T,5,6
241,4,object_02,object_09,660.5,7,1,149.59999999404,1.0,1,object_07,5,4001,0,9,3,restaurant_2,1,memory-2step-stake-s,737,2974680,0.0-19.0-0.1-0.241,A2FYFCD16Z3PCC,3SNR5F7RA597AOC2DOU98SGLOEGIEB,3OS46CRSLJFB5Y1HWFFW0DAP9WGV6T,7,8
242,2,object_10,object_04,906.90000000596,3,2,524.5,0.4444444444444444,1,object_07,1,4005,0,4,3,forest_6,1,memory-2step-stake-s,738,2982823,0.0-19.0-0.1-0.242,A2FYFCD16Z3PCC,3SNR5F7RA597AOC2DOU98SGLOEGIEB,3OS46CRSLJFB5Y1HWFFW0DAP9WGV6T,4,3
243,3,object_01,object_06,621.5,5,2,208.10000000894,0.5555555555555556,1,object_07,5,4030,0,5,4,library_4,1,memory-2step-stake-s,739,2990763,0.0-19.0-0.1-0.243,A2FYFCD16Z3PCC,3SNR5F7RA597AOC2DOU98SGLOEGIEB,3OS46CRSLJFB5Y1HWFFW0DAP9WGV6T,6,5
244,4,object_02,object_09,1256.0,7,1,136.29999999702,0.4444444444444444,1,object_07,5,4050,0,4,5,restaurant_7,1,memory-2step-stake-s,740,2998545,0.0-19.0-0.1-0.244,A2FYFCD16Z3PCC,3SNR5F7RA597AOC2DOU98SGLOEGIEB,3OS46CRSLJFB5Y1HWFFW0DAP9WGV6T,7,8
245,2,object_04,object_10,673.5,3,1,276.20000000298,0.5555555555555556,1,object_07,1,4055,0,5,9,forest_6,1,memory-2step-stake-s,741,3006541,0.0-19.0-0.1-0.245,A2FYFCD16Z3PCC,3SNR5F7RA597AOC2DOU98SGLOEGIEB,3OS46CRSLJFB5Y1HWFFW0DAP9WGV6T,3,4
246,2,object_04,object_10,565.79999999702,4,2,585.40000000596,0.8888888888888888,2,object_05,1,4063,0,7,8,forest_8,1,memory-2step-stake-s,742,3015171,0.0-19.0-0.1-0.246,A2FYFCD16Z3PCC,3SNR5F7RA597AOC2DOU98SGLOEGIEB,3OS46CRSLJFB5Y1HWFFW0DAP9WGV6T,3,4
247,2,object_10,object_04,1015.599999994,4,1,177.79999999702,1.0,2,object_05,5,4108,0,8,9,forest_3,1,memory-2step-stake-s,743,3023479,0.0-19.0-0.1-0.247,A2FYFCD16Z3PCC,3SNR5F7RA597AOC2DOU98SGLOEGIEB,3OS46CRSLJFB5Y1HWFFW0DAP9WGV6T,4,3
248,3,object_06,object_01,796.20000000298,6,2,559.5,0.8888888888888888,2,object_05,5,4148,0,3,8,library_7,1,memory-2step-stake-s,744,3032075,0.0-19.0-0.1-0.248,A2FYFCD16Z3PCC,3SNR5F7RA597AOC2DOU98SGLOEGIEB,3OS46CRSLJFB5Y1HWFFW0DAP9WGV6T,5,6
249,4,object_09,object_02,613.69999998808,8,1,1135.5,0.6666666666666666,2,object_05,5,4178,0,3,6,restaurant_5,1,memory-2step-stake-s,745,3041037,0.0-19.0-0.1-0.249,A2FYFCD16Z3PCC,3SNR5F7RA597AOC2DOU98SGLOEGIEB,3OS46CRSLJFB5Y1HWFFW0DAP9WGV6T,8,7
250,4,object_02,object_09,789.09999999404,8,2,232.20000000298,0.7777777777777778,2,object_05,1,4185,0,4,7,restaurant_8,1,memory-2step-stake-s,746,3049188,0.0-19.0-0.1-0.250,A2FYFCD16Z3PCC,3SNR5F7RA597AOC2DOU98SGLOEGIEB,3OS46CRSLJFB5Y1HWFFW0DAP9WGV6T,7,8
251,3,object_06,object_01,886.59999999404,6,2,202.20000000298,0.6666666666666666,2,object_05,5,4215,0,6,6,library_4,1,memory-2step-stake-s,747,3057209,0.0-19.0-0.1-0.251,A2FYFCD16Z3PCC,3SNR5F7RA597AOC2DOU98SGLOEGIEB,3OS46CRSLJFB5Y1HWFFW0DAP9WGV6T,5,6
252,4,object_02,object_09,1154.1999999881,8,2,50.899999991059,0.8888888888888888,2,object_05,5,4255,0,4,8,restaurant_7,1,memory-2step-stake-s,748,3065304,0.0-19.0-0.1-0.252,A2FYFCD16Z3PCC,3SNR5F7RA597AOC2DOU98SGLOEGIEB,3OS46CRSLJFB5Y1HWFFW0DAP9WGV6T,7,8
253,3,object_06,object_01,993.5,6,2,51.59999999404,1.0,2,object_05,5,4300,0,5,9,library_7,1,memory-2step-stake-s,749,3073495,0.0-19.0-0.1-0.253,A2FYFCD16Z3PCC,3SNR5F7RA597AOC2DOU98SGLOEGIEB,3OS46CRSLJFB5Y1HWFFW0DAP9WGV6T,5,6
254,3,object_06,object_01,874.59999999404,6,2,356.20000000298,0.6666666666666666,2,object_05,5,4330,0,4,6,library_8,1,memory-2step-stake-s,750,3081675,0.0-19.0-0.1-0.254,A2FYFCD16Z3PCC,3SNR5F7RA597AOC2DOU98SGLOEGIEB,3OS46CRSLJFB5Y1HWFFW0DAP9WGV6T,5,6
255,2,object_10,object_04,1342.8999999911,4,1,57.59999999404,0.8888888888888888,2,object_05,5,4370,0,5,8,forest_7,1,memory-2step-stake-s,751,3089795,0.0-19.0-0.1-0.255,A2FYFCD16Z3PCC,3SNR5F7RA597AOC2DOU98SGLOEGIEB,3OS46CRSLJFB5Y1HWFFW0DAP9WGV6T,4,3
