,state1,stim_left,stim_right,rt_1,choice1,response1,rt_2,points,state2,stim_state2,stake,score,practice,rews1,rews2,background,high_arm,trial_type,trial_index,time_elapsed,internal_node_id,subid,hitid,assignmentid,stim_left_num,stim_right_num
0,4,object_08,object_10,830.19999998808,8,1,-1.0,0.0,2,object_06,1,0,0,0,1,restaurant_7,2,memory-2step-stake-s,494,866801,0.0-19.0-0.0-0.0,A3NHBXYOMMJ2W6,3MQKOF1EF54KJDI76AN431783D3WDT,3YWRV122CWFYWXV5K42PO54X1IJU87,8,7
1,1,object_07,object_09,875.90000000596,2,2,628.09999999404,0.2222222222222222,2,object_06,5,10,0,1,2,desert_2,2,memory-2step-stake-s,495,874907,0.0-19.0-0.0-0.1,A3NHBXYOMMJ2W6,3MQKOF1EF54KJDI76AN431783D3WDT,3YWRV122CWFYWXV5K42PO54X1IJU87,1,2
2,3,object_01,object_04,813.0,5,2,1083.1999999881,0.0,1,object_05,1,10,0,0,2,library_6,2,memory-2step-stake-s,496,883247,0.0-19.0-0.0-0.2,A3NHBXYOMMJ2W6,3MQKOF1EF54KJDI76AN431783D3WDT,3YWRV122CWFYWXV5K42PO54X1IJU87,6,5
3,2,object_02,object_03,800.5,4,1,429.90000000596,0.1111111111111111,2,object_06,5,15,0,2,1,forest_2,2,memory-2step-stake-s,497,891079,0.0-19.0-0.0-0.3,A3NHBXYOMMJ2W6,3MQKOF1EF54KJDI76AN431783D3WDT,3YWRV122CWFYWXV5K42PO54X1IJU87,4,3
4,1,object_09,object_07,862.70000001788,2,1,191.19999998808,0.0,2,object_06,5,15,0,5,0,desert_3,2,memory-2step-stake-s,498,898531,0.0-19.0-0.0-0.4,A3NHBXYOMMJ2W6,3MQKOF1EF54KJDI76AN431783D3WDT,3YWRV122CWFYWXV5K42PO54X1IJU87,2,1
5,2,object_02,object_03,546.10000002384,3,2,782.20000001788,0.3333333333333333,1,object_05,5,30,0,3,2,forest_2,2,memory-2step-stake-s,499,906923,0.0-19.0-0.0-0.5,A3NHBXYOMMJ2W6,3MQKOF1EF54KJDI76AN431783D3WDT,3YWRV122CWFYWXV5K42PO54X1IJU87,4,3
6,3,object_01,object_04,889.0,6,1,836.69999998808,0.0,2,object_06,1,30,0,3,0,library_2,2,memory-2step-stake-s,500,915030,0.0-19.0-0.0-0.6,A3NHBXYOMMJ2W6,3MQKOF1EF54KJDI76AN431783D3WDT,3YWRV122CWFYWXV5K42PO54X1IJU87,6,5
7,3,object_04,object_01,785.5,6,2,383.10000002384,0.0,2,object_06,1,30,0,2,0,library_5,2,memory-2step-stake-s,501,922704,0.0-19.0-0.0-0.7,A3NHBXYOMMJ2W6,3MQKOF1EF54KJDI76AN431783D3WDT,3YWRV122CWFYWXV5K42PO54X1IJU87,5,6
8,1,object_07,object_09,509.20000001788,1,1,382.0,0.2222222222222222,1,object_05,5,40,0,2,1,desert_2,2,memory-2step-stake-s,502,930602,0.0-19.0-0.0-0.8,A3NHBXYOMMJ2W6,3MQKOF1EF54KJDI76AN431783D3WDT,3YWRV122CWFYWXV5K42PO54X1IJU87,1,2
9,2,object_02,object_03,583.20000001788,3,2,793.70000001788,0.4444444444444444,1,object_05,5,60,0,4,3,forest_2,2,memory-2step-stake-s,503,939119,0.0-19.0-0.0-0.9,A3NHBXYOMMJ2W6,3MQKOF1EF54KJDI76AN431783D3WDT,3YWRV122CWFYWXV5K42PO54X1IJU87,4,3
10,2,object_03,object_02,839.30000001192,3,1,719.40000000596,0.6666666666666666,1,object_05,5,90,0,6,2,forest_7,2,memory-2step-stake-s,504,947787,0.0-19.0-0.0-0.10,A3NHBXYOMMJ2W6,3MQKOF1EF54KJDI76AN431783D3WDT,3YWRV122CWFYWXV5K42PO54X1IJU87,3,4
11,2,object_02,object_03,513.19999998808,3,2,412.0,0.5555555555555556,1,object_05,5,115,0,5,2,forest_2,2,memory-2step-stake-s,505,956030,0.0-19.0-0.0-0.11,A3NHBXYOMMJ2W6,3MQKOF1EF54KJDI76AN431783D3WDT,3YWRV122CWFYWXV5K42PO54X1IJU87,4,3
12,3,object_01,object_04,936.0,6,1,614.40000000596,0.4444444444444444,2,object_06,1,119,0,1,4,library_6,2,memory-2step-stake-s,506,964385,0.0-19.0-0.0-0.12,A3NHBXYOMMJ2W6,3MQKOF1EF54KJDI76AN431783D3WDT,3YWRV122CWFYWXV5K42PO54X1IJU87,6,5
13,1,object_07,object_09,1096.400000006,2,2,640.80000001192,0.5555555555555556,2,object_06,5,144,0,0,5,desert_3,2,memory-2step-stake-s,507,972879,0.0-19.0-0.0-0.13,A3NHBXYOMMJ2W6,3MQKOF1EF54KJDI76AN431783D3WDT,3YWRV122CWFYWXV5K42PO54X1IJU87,1,2
14,1,object_07,object_09,911.69999998808,1,1,549.70000001788,0.1111111111111111,1,object_05,5,149,0,1,4,desert_4,2,memory-2step-stake-s,508,980816,0.0-19.0-0.0-0.14,A3NHBXYOMMJ2W6,3MQKOF1EF54KJDI76AN431783D3WDT,3YWRV122CWFYWXV5K42PO54X1IJU87,1,2
15,1,object_07,object_09,1103.0,2,2,507.59999999404,0.3333333333333333,2,object_06,1,152,0,3,3,desert_2,2,memory-2step-stake-s,509,988930,0.0-19.0-0.0-0.15,A3NHBXYOMMJ2W6,3MQKOF1EF54KJDI76AN431783D3WDT,3YWRV122CWFYWXV5K42PO54X1IJU87,1,2
16,4,object_08,object_10,1432.8999999762,7,2,487.09999999404,0.2222222222222222,1,object_05,5,162,0,2,2,restaurant_4,2,memory-2step-stake-s,510,996918,0.0-19.0-0.0-0.16,A3NHBXYOMMJ2W6,3MQKOF1EF54KJDI76AN431783D3WDT,3YWRV122CWFYWXV5K42PO54X1IJU87,8,7
17,2,object_03,object_02,1078.3999999762,3,1,1025.599999994,0.2222222222222222,1,object_05,5,172,0,2,2,forest_5,2,memory-2step-stake-s,511,1005438,0.0-19.0-0.0-0.17,A3NHBXYOMMJ2W6,3MQKOF1EF54KJDI76AN431783D3WDT,3YWRV122CWFYWXV5K42PO54X1IJU87,3,4
18,4,object_08,object_10,740.59999999404,8,1,1459.1000000238,0.0,2,object_06,5,172,0,2,0,restaurant_6,2,memory-2step-stake-s,512,1014176,0.0-19.0-0.0-0.18,A3NHBXYOMMJ2W6,3MQKOF1EF54KJDI76AN431783D3WDT,3YWRV122CWFYWXV5K42PO54X1IJU87,8,7
19,4,object_08,object_10,1071.0,8,1,471.90000000596,0.1111111111111111,2,object_06,1,173,0,5,1,restaurant_2,2,memory-2step-stake-s,513,1022023,0.0-19.0-0.0-0.19,A3NHBXYOMMJ2W6,3MQKOF1EF54KJDI76AN431783D3WDT,3YWRV122CWFYWXV5K42PO54X1IJU87,8,7
20,4,object_10,object_08,1014.5,8,2,606.59999999404,0.3333333333333333,2,object_06,1,176,0,2,3,restaurant_7,2,memory-2step-stake-s,514,1030203,0.0-19.0-0.0-0.20,A3NHBXYOMMJ2W6,3MQKOF1EF54KJDI76AN431783D3WDT,3YWRV122CWFYWXV5K42PO54X1IJU87,7,8
21,2,object_03,object_02,444.59999999404,3,1,514.10000002384,0.4444444444444444,1,object_05,5,196,0,4,4,forest_3,2,memory-2step-stake-s,515,1038424,0.0-19.0-0.0-0.21,A3NHBXYOMMJ2W6,3MQKOF1EF54KJDI76AN431783D3WDT,3YWRV122CWFYWXV5K42PO54X1IJU87,3,4
22,1,object_07,object_09,744.90000000596,1,1,536.5,0.4444444444444444,1,object_05,5,216,0,4,5,desert_3,2,memory-2step-stake-s,516,1046639,0.0-19.0-0.0-0.22,A3NHBXYOMMJ2W6,3MQKOF1EF54KJDI76AN431783D3WDT,3YWRV122CWFYWXV5K42PO54X1IJU87,1,2
23,2,object_03,object_02,458.19999998808,3,1,451.5,0.7777777777777778,1,object_05,5,251,0,7,7,forest_3,2,memory-2step-stake-s,517,1055098,0.0-19.0-0.0-0.23,A3NHBXYOMMJ2W6,3MQKOF1EF54KJDI76AN431783D3WDT,3YWRV122CWFYWXV5K42PO54X1IJU87,3,4
24,3,object_01,object_04,692.69999998808,5,2,533.0,0.6666666666666666,1,object_05,1,257,0,6,8,library_1,2,memory-2step-stake-s,518,1063548,0.0-19.0-0.0-0.24,A3NHBXYOMMJ2W6,3MQKOF1EF54KJDI76AN431783D3WDT,3YWRV122CWFYWXV5K42PO54X1IJU87,6,5
25,1,object_07,object_09,713.80000001192,2,2,543.70000001788,0.7777777777777778,2,object_06,5,292,0,5,7,desert_3,2,memory-2step-stake-s,519,1072125,0.0-19.0-0.0-0.25,A3NHBXYOMMJ2W6,3MQKOF1EF54KJDI76AN431783D3WDT,3YWRV122CWFYWXV5K42PO54X1IJU87,1,2
26,2,object_03,object_02,587.70000001788,3,1,593.30000001192,0.7777777777777778,1,object_05,5,327,0,7,9,forest_5,2,memory-2step-stake-s,520,1080739,0.0-19.0-0.0-0.26,A3NHBXYOMMJ2W6,3MQKOF1EF54KJDI76AN431783D3WDT,3YWRV122CWFYWXV5K42PO54X1IJU87,3,4
27,1,object_09,object_07,794.79999998212,1,2,635.90000000596,0.8888888888888888,1,object_05,5,367,0,8,8,desert_3,2,memory-2step-stake-s,521,1089524,0.0-19.0-0.0-0.27,A3NHBXYOMMJ2W6,3MQKOF1EF54KJDI76AN431783D3WDT,3YWRV122CWFYWXV5K42PO54X1IJU87,2,1
28,2,object_02,object_03,1135.3000000119,3,2,566.20000001788,0.6666666666666666,1,object_05,5,397,0,6,6,forest_7,2,memory-2step-stake-s,522,1098004,0.0-19.0-0.0-0.28,A3NHBXYOMMJ2W6,3MQKOF1EF54KJDI76AN431783D3WDT,3YWRV122CWFYWXV5K42PO54X1IJU87,4,3
29,4,object_10,object_08,1074.7000000179,8,2,511.80000001192,0.5555555555555556,2,object_06,5,422,0,7,5,restaurant_6,2,memory-2step-stake-s,523,1106332,0.0-19.0-0.0-0.29,A3NHBXYOMMJ2W6,3MQKOF1EF54KJDI76AN431783D3WDT,3YWRV122CWFYWXV5K42PO54X1IJU87,7,8
30,3,object_04,object_01,1138.0,5,1,494.90000000596,0.5555555555555556,1,object_05,5,447,0,5,4,library_5,2,memory-2step-stake-s,524,1114646,0.0-19.0-0.0-0.30,A3NHBXYOMMJ2W6,3MQKOF1EF54KJDI76AN431783D3WDT,3YWRV122CWFYWXV5K42PO54X1IJU87,5,6
31,4,object_08,object_10,657.0,8,1,570.90000000596,0.4444444444444444,2,object_06,5,467,0,5,4,restaurant_4,2,memory-2step-stake-s,525,1122928,0.0-19.0-0.0-0.31,A3NHBXYOMMJ2W6,3MQKOF1EF54KJDI76AN431783D3WDT,3YWRV122CWFYWXV5K42PO54X1IJU87,8,7
32,4,object_08,object_10,751.5,7,2,401.69999998808,0.5555555555555556,1,object_05,1,472,0,5,5,restaurant_2,2,memory-2step-stake-s,526,1131152,0.0-19.0-0.0-0.32,A3NHBXYOMMJ2W6,3MQKOF1EF54KJDI76AN431783D3WDT,3YWRV122CWFYWXV5K42PO54X1IJU87,8,7
33,2,object_03,object_02,458.70000001788,3,1,824.29999998212,0.4444444444444444,1,object_05,5,492,0,4,3,forest_7,2,memory-2step-stake-s,527,1139686,0.0-19.0-0.0-0.33,A3NHBXYOMMJ2W6,3MQKOF1EF54KJDI76AN431783D3WDT,3YWRV122CWFYWXV5K42PO54X1IJU87,3,4
34,3,object_04,object_01,856.0,6,2,495.90000000596,0.5555555555555556,2,object_06,1,497,0,4,5,library_1,2,memory-2step-stake-s,528,1147982,0.0-19.0-0.0-0.34,A3NHBXYOMMJ2W6,3MQKOF1EF54KJDI76AN431783D3WDT,3YWRV122CWFYWXV5K42PO54X1IJU87,5,6
35,4,object_10,object_08,654.59999999404,8,2,725.19999998808,0.7777777777777778,2,object_06,1,504,0,5,7,restaurant_6,2,memory-2step-stake-s,529,1156682,0.0-19.0-0.0-0.35,A3NHBXYOMMJ2W6,3MQKOF1EF54KJDI76AN431783D3WDT,3YWRV122CWFYWXV5K42PO54X1IJU87,7,8
36,4,object_08,object_10,743.09999999404,7,2,566.19999998808,0.4444444444444444,1,object_05,1,508,0,4,6,restaurant_2,2,memory-2step-stake-s,530,1164939,0.0-19.0-0.0-0.36,A3NHBXYOMMJ2W6,3MQKOF1EF54KJDI76AN431783D3WDT,3YWRV122CWFYWXV5K42PO54X1IJU87,8,7
37,4,object_08,object_10,968.5,8,1,484.09999999404,0.6666666666666666,2,object_06,1,514,0,6,6,restaurant_4,2,memory-2step-stake-s,531,1173318,0.0-19.0-0.0-0.37,A3NHBXYOMMJ2W6,3MQKOF1EF54KJDI76AN431783D3WDT,3YWRV122CWFYWXV5K42PO54X1IJU87,8,7
38,1,object_09,object_07,1231.6999999881,1,2,446.80000001192,0.5555555555555556,1,object_05,1,519,0,5,4,desert_5,2,memory-2step-stake-s,532,1181552,0.0-19.0-0.0-0.38,A3NHBXYOMMJ2W6,3MQKOF1EF54KJDI76AN431783D3WDT,3YWRV122CWFYWXV5K42PO54X1IJU87,2,1
39,4,object_10,object_08,558.90000000596,7,1,448.69999998808,0.6666666666666666,1,object_05,1,525,0,6,0,restaurant_4,2,memory-2step-stake-s,533,1189942,0.0-19.0-0.0-0.39,A3NHBXYOMMJ2W6,3MQKOF1EF54KJDI76AN431783D3WDT,3YWRV122CWFYWXV5K42PO54X1IJU87,7,8
40,2,object_03,object_02,1461.8999999762,3,1,1322.0,0.7777777777777778,1,object_05,5,560,0,7,1,forest_2,2,memory-2step-stake-s,534,1199327,0.0-19.0-0.0-0.40,A3NHBXYOMMJ2W6,3MQKOF1EF54KJDI76AN431783D3WDT,3YWRV122CWFYWXV5K42PO54X1IJU87,3,4
41,1,object_07,object_09,700.70000001788,2,2,622.59999999404,0.1111111111111111,2,object_06,5,565,0,5,1,desert_5,2,memory-2step-stake-s,535,1207351,0.0-19.0-0.0-0.41,A3NHBXYOMMJ2W6,3MQKOF1EF54KJDI76AN431783D3WDT,3YWRV122CWFYWXV5K42PO54X1IJU87,1,2
42,3,object_01,object_04,775.20000001788,6,1,584.90000000596,0.1111111111111111,2,object_06,1,566,0,5,1,library_6,2,memory-2step-stake-s,536,1215324,0.0-19.0-0.0-0.42,A3NHBXYOMMJ2W6,3MQKOF1EF54KJDI76AN431783D3WDT,3YWRV122CWFYWXV5K42PO54X1IJU87,6,5
43,2,object_03,object_02,388.5,3,1,423.30000001192,0.6666666666666666,1,object_05,5,596,0,6,1,forest_2,2,memory-2step-stake-s,537,1223749,0.0-19.0-0.0-0.43,A3NHBXYOMMJ2W6,3MQKOF1EF54KJDI76AN431783D3WDT,3YWRV122CWFYWXV5K42PO54X1IJU87,3,4
44,1,object_09,object_07,1033.900000006,1,2,656.40000000596,0.6666666666666666,1,object_05,5,626,0,6,1,desert_4,2,memory-2step-stake-s,538,1232363,0.0-19.0-0.0-0.44,A3NHBXYOMMJ2W6,3MQKOF1EF54KJDI76AN431783D3WDT,3YWRV122CWFYWXV5K42PO54X1IJU87,2,1
45,3,object_04,object_01,1101.900000006,5,1,618.40000000596,0.8888888888888888,1,object_05,5,666,0,8,2,library_2,2,memory-2step-stake-s,539,1241114,0.0-19.0-0.0-0.45,A3NHBXYOMMJ2W6,3MQKOF1EF54KJDI76AN431783D3WDT,3YWRV122CWFYWXV5K42PO54X1IJU87,5,6
46,4,object_10,object_08,1109.900000006,8,2,433.5,0.2222222222222222,2,object_06,1,668,0,8,2,restaurant_2,2,memory-2step-stake-s,540,1249036,0.0-19.0-0.0-0.46,A3NHBXYOMMJ2W6,3MQKOF1EF54KJDI76AN431783D3WDT,3YWRV122CWFYWXV5K42PO54X1IJU87,7,8
47,2,object_03,object_02,599.69999998808,3,1,465.09999999404,0.7777777777777778,1,object_05,5,703,0,7,5,forest_2,2,memory-2step-stake-s,541,1257522,0.0-19.0-0.0-0.47,A3NHBXYOMMJ2W6,3MQKOF1EF54KJDI76AN431783D3WDT,3YWRV122CWFYWXV5K42PO54X1IJU87,3,4
48,4,object_10,object_08,760.80000001192,7,1,558.5,0.7777777777777778,1,object_05,1,710,0,7,2,restaurant_4,2,memory-2step-stake-s,542,1266083,0.0-19.0-0.0-0.48,A3NHBXYOMMJ2W6,3MQKOF1EF54KJDI76AN431783D3WDT,3YWRV122CWFYWXV5K42PO54X1IJU87,7,8
49,4,object_08,object_10,926.30000001192,8,1,499.0,0.0,2,object_06,1,710,0,4,0,restaurant_7,2,memory-2step-stake-s,543,1273872,0.0-19.0-0.0-0.49,A3NHBXYOMMJ2W6,3MQKOF1EF54KJDI76AN431783D3WDT,3YWRV122CWFYWXV5K42PO54X1IJU87,8,7
50,1,object_07,object_09,-1.0,-1,-1,-1.0,0.0,-,0,1,710,0,4,0,desert_2,2,memory-2step-stake-s,544,1280447,0.0-19.0-0.0-0.50,A3NHBXYOMMJ2W6,3MQKOF1EF54KJDI76AN431783D3WDT,3YWRV122CWFYWXV5K42PO54X1IJU87,1,2
51,1,object_07,object_09,873.29999998212,2,2,432.0,0.4444444444444444,2,object_06,5,730,0,8,4,desert_4,2,memory-2step-stake-s,545,1288584,0.0-19.0-0.0-0.51,A3NHBXYOMMJ2W6,3MQKOF1EF54KJDI76AN431783D3WDT,3YWRV122CWFYWXV5K42PO54X1IJU87,1,2
52,4,object_08,object_10,1082.2000000179,8,1,355.70000001788,0.6666666666666666,2,object_06,1,736,0,9,6,restaurant_4,2,memory-2step-stake-s,546,1296860,0.0-19.0-0.0-0.52,A3NHBXYOMMJ2W6,3MQKOF1EF54KJDI76AN431783D3WDT,3YWRV122CWFYWXV5K42PO54X1IJU87,8,7
53,4,object_08,object_10,1086.2999999821,8,1,394.30000001192,0.6666666666666666,2,object_06,1,742,0,9,6,restaurant_6,2,memory-2step-stake-s,547,1305145,0.0-19.0-0.0-0.53,A3NHBXYOMMJ2W6,3MQKOF1EF54KJDI76AN431783D3WDT,3YWRV122CWFYWXV5K42PO54X1IJU87,8,7
54,4,object_10,object_08,886.40000000596,7,1,339.90000000596,1.0,1,object_05,1,751,0,9,9,restaurant_4,2,memory-2step-stake-s,548,1313698,0.0-19.0-0.0-0.54,A3NHBXYOMMJ2W6,3MQKOF1EF54KJDI76AN431783D3WDT,3YWRV122CWFYWXV5K42PO54X1IJU87,7,8
55,4,object_08,object_10,1059.1999999881,7,2,561.19999998808,0.8888888888888888,1,object_05,5,791,0,8,9,restaurant_6,2,memory-2step-stake-s,549,1322393,0.0-19.0-0.0-0.55,A3NHBXYOMMJ2W6,3MQKOF1EF54KJDI76AN431783D3WDT,3YWRV122CWFYWXV5K42PO54X1IJU87,8,7
56,2,object_02,object_03,531.09999999404,3,2,398.09999999404,0.7777777777777778,1,object_05,5,826,0,7,8,forest_5,2,memory-2step-stake-s,550,1330813,0.0-19.0-0.0-0.56,A3NHBXYOMMJ2W6,3MQKOF1EF54KJDI76AN431783D3WDT,3YWRV122CWFYWXV5K42PO54X1IJU87,4,3
57,2,object_02,object_03,584.90000000596,3,2,114.69999998808,0.4444444444444444,1,object_05,5,846,0,4,9,forest_5,2,memory-2step-stake-s,551,1338618,0.0-19.0-0.0-0.57,A3NHBXYOMMJ2W6,3MQKOF1EF54KJDI76AN431783D3WDT,3YWRV122CWFYWXV5K42PO54X1IJU87,4,3
58,3,object_01,object_04,643.0,6,1,355.30000001192,0.7777777777777778,2,object_06,1,853,0,4,7,library_5,2,memory-2step-stake-s,552,1347004,0.0-19.0-0.0-0.58,A3NHBXYOMMJ2W6,3MQKOF1EF54KJDI76AN431783D3WDT,3YWRV122CWFYWXV5K42PO54X1IJU87,6,5
59,2,object_02,object_03,423.5,3,2,353.39999997616,0.3333333333333333,1,object_05,5,868,0,3,5,forest_2,2,memory-2step-stake-s,553,1354941,0.0-19.0-0.0-0.59,A3NHBXYOMMJ2W6,3MQKOF1EF54KJDI76AN431783D3WDT,3YWRV122CWFYWXV5K42PO54X1IJU87,4,3
60,2,object_03,object_02,786.90000000596,3,1,462.5,0.1111111111111111,1,object_05,1,869,0,1,7,forest_5,2,memory-2step-stake-s,554,1362796,0.0-19.0-0.0-0.60,A3NHBXYOMMJ2W6,3MQKOF1EF54KJDI76AN431783D3WDT,3YWRV122CWFYWXV5K42PO54X1IJU87,3,4
61,3,object_04,object_01,980.80000001192,6,2,421.59999999404,0.8888888888888888,2,object_06,5,909,0,2,8,library_5,2,memory-2step-stake-s,555,1371387,0.0-19.0-0.0-0.61,A3NHBXYOMMJ2W6,3MQKOF1EF54KJDI76AN431783D3WDT,3YWRV122CWFYWXV5K42PO54X1IJU87,5,6
62,1,object_09,object_07,928.80000001192,2,1,404.0,0.8888888888888888,2,object_06,1,917,0,0,8,desert_4,2,memory-2step-stake-s,556,1379971,0.0-19.0-0.0-0.62,A3NHBXYOMMJ2W6,3MQKOF1EF54KJDI76AN431783D3WDT,3YWRV122CWFYWXV5K42PO54X1IJU87,2,1
63,2,object_02,object_03,723.0,4,1,467.09999999404,0.6666666666666666,2,object_06,1,923,0,1,6,forest_7,2,memory-2step-stake-s,557,1388379,0.0-19.0-0.0-0.63,A3NHBXYOMMJ2W6,3MQKOF1EF54KJDI76AN431783D3WDT,3YWRV122CWFYWXV5K42PO54X1IJU87,4,3
64,2,object_03,object_02,783.40000000596,4,2,464.59999999404,0.5555555555555556,2,object_06,5,948,0,2,5,forest_3,2,memory-2step-stake-s,558,1396679,0.0-19.0-0.0-0.64,A3NHBXYOMMJ2W6,3MQKOF1EF54KJDI76AN431783D3WDT,3YWRV122CWFYWXV5K42PO54X1IJU87,3,4
65,1,object_09,object_07,1215.0,2,1,-1.0,0.0,2,object_06,5,948,0,2,7,desert_3,2,memory-2step-stake-s,559,1405255,0.0-19.0-0.0-0.65,A3NHBXYOMMJ2W6,3MQKOF1EF54KJDI76AN431783D3WDT,3YWRV122CWFYWXV5K42PO54X1IJU87,2,1
66,3,object_01,object_04,1244.7999999821,5,2,429.5,0.4444444444444444,1,object_05,1,952,0,4,9,library_6,2,memory-2step-stake-s,560,1413407,0.0-19.0-0.0-0.66,A3NHBXYOMMJ2W6,3MQKOF1EF54KJDI76AN431783D3WDT,3YWRV122CWFYWXV5K42PO54X1IJU87,6,5
67,1,object_07,object_09,939.10000002384,2,2,919.0,1.0,2,object_06,5,997,0,5,9,desert_4,2,memory-2step-stake-s,561,1422647,0.0-19.0-0.0-0.67,A3NHBXYOMMJ2W6,3MQKOF1EF54KJDI76AN431783D3WDT,3YWRV122CWFYWXV5K42PO54X1IJU87,1,2
68,3,object_04,object_01,1337.3000000119,5,1,391.0,0.7777777777777778,1,object_05,1,1004,0,7,8,library_1,2,memory-2step-stake-s,562,1431126,0.0-19.0-0.0-0.68,A3NHBXYOMMJ2W6,3MQKOF1EF54KJDI76AN431783D3WDT,3YWRV122CWFYWXV5K42PO54X1IJU87,5,6
69,3,object_01,object_04,578.09999999404,6,1,484.79999998212,0.8888888888888888,2,object_06,1,1012,0,8,8,library_1,2,memory-2step-stake-s,563,1439777,0.0-19.0-0.0-0.69,A3NHBXYOMMJ2W6,3MQKOF1EF54KJDI76AN431783D3WDT,3YWRV122CWFYWXV5K42PO54X1IJU87,6,5
70,3,object_01,object_04,717.5,5,2,462.30000001192,0.8888888888888888,1,object_05,5,1052,0,8,6,library_2,2,memory-2step-stake-s,564,1448417,0.0-19.0-0.0-0.70,A3NHBXYOMMJ2W6,3MQKOF1EF54KJDI76AN431783D3WDT,3YWRV122CWFYWXV5K42PO54X1IJU87,6,5
71,1,object_07,object_09,623.70000001788,2,2,546.19999998808,0.8888888888888888,2,object_06,5,1092,0,9,8,desert_5,2,memory-2step-stake-s,565,1457137,0.0-19.0-0.0-0.71,A3NHBXYOMMJ2W6,3MQKOF1EF54KJDI76AN431783D3WDT,3YWRV122CWFYWXV5K42PO54X1IJU87,1,2
72,1,object_07,object_09,683.59999999404,1,1,565.70000001788,0.7777777777777778,1,object_05,5,1127,0,7,9,desert_4,2,memory-2step-stake-s,566,1465768,0.0-19.0-0.0-0.72,A3NHBXYOMMJ2W6,3MQKOF1EF54KJDI76AN431783D3WDT,3YWRV122CWFYWXV5K42PO54X1IJU87,1,2
73,3,object_04,object_01,852.5,6,2,437.69999998808,1.0,2,object_06,5,1172,0,8,9,library_5,2,memory-2step-stake-s,567,1474470,0.0-19.0-0.0-0.73,A3NHBXYOMMJ2W6,3MQKOF1EF54KJDI76AN431783D3WDT,3YWRV122CWFYWXV5K42PO54X1IJU87,5,6
74,4,object_10,object_08,-1.0,-1,-1,-1.0,0.0,-,0,5,1172,0,9,7,restaurant_7,2,memory-2step-stake-s,568,1481024,0.0-19.0-0.0-0.74,A3NHBXYOMMJ2W6,3MQKOF1EF54KJDI76AN431783D3WDT,3YWRV122CWFYWXV5K42PO54X1IJU87,7,8
75,4,object_10,object_08,461.30000001192,8,2,430.79999998212,0.1111111111111111,2,object_06,1,1173,0,6,1,restaurant_7,2,memory-2step-stake-s,569,1488825,0.0-19.0-0.0-0.75,A3NHBXYOMMJ2W6,3MQKOF1EF54KJDI76AN431783D3WDT,3YWRV122CWFYWXV5K42PO54X1IJU87,7,8
76,3,object_01,object_04,812.59999999404,5,2,433.40000000596,0.6666666666666666,1,object_05,1,1179,0,6,1,library_5,2,memory-2step-stake-s,570,1497147,0.0-19.0-0.0-0.76,A3NHBXYOMMJ2W6,3MQKOF1EF54KJDI76AN431783D3WDT,3YWRV122CWFYWXV5K42PO54X1IJU87,6,5
77,2,object_03,object_02,478.19999998808,3,1,441.29999998212,0.7777777777777778,1,object_05,5,1214,0,7,1,forest_5,2,memory-2step-stake-s,571,1505575,0.0-19.0-0.0-0.77,A3NHBXYOMMJ2W6,3MQKOF1EF54KJDI76AN431783D3WDT,3YWRV122CWFYWXV5K42PO54X1IJU87,3,4
78,4,object_10,object_08,445.19999998808,8,2,532.39999997616,0.1111111111111111,2,object_06,5,1219,0,7,1,restaurant_2,2,memory-2step-stake-s,572,1513471,0.0-19.0-0.0-0.78,A3NHBXYOMMJ2W6,3MQKOF1EF54KJDI76AN431783D3WDT,3YWRV122CWFYWXV5K42PO54X1IJU87,7,8
79,3,object_01,object_04,566.0,6,1,524.40000000596,0.4444444444444444,2,object_06,1,1223,0,7,4,library_1,2,memory-2step-stake-s,573,1521682,0.0-19.0-0.0-0.79,A3NHBXYOMMJ2W6,3MQKOF1EF54KJDI76AN431783D3WDT,3YWRV122CWFYWXV5K42PO54X1IJU87,6,5
80,1,object_07,object_09,840.09999999404,2,2,543.80000001192,0.6666666666666666,2,object_06,1,1229,0,7,6,desert_5,2,memory-2step-stake-s,574,1530154,0.0-19.0-0.0-0.80,A3NHBXYOMMJ2W6,3MQKOF1EF54KJDI76AN431783D3WDT,3YWRV122CWFYWXV5K42PO54X1IJU87,1,2
81,4,object_08,object_10,652.30000001192,8,1,-1.0,0.0,2,object_06,1,1229,0,7,2,restaurant_6,2,memory-2step-stake-s,575,1538732,0.0-19.0-0.0-0.81,A3NHBXYOMMJ2W6,3MQKOF1EF54KJDI76AN431783D3WDT,3YWRV122CWFYWXV5K42PO54X1IJU87,8,7
82,2,object_02,object_03,385.0,3,2,285.80000001192,0.8888888888888888,1,object_05,5,1269,0,8,2,forest_3,2,memory-2step-stake-s,576,1547123,0.0-19.0-0.0-0.82,A3NHBXYOMMJ2W6,3MQKOF1EF54KJDI76AN431783D3WDT,3YWRV122CWFYWXV5K42PO54X1IJU87,4,3
83,4,object_10,object_08,649.19999998808,7,1,522.0,0.8888888888888888,1,object_05,1,1277,0,8,3,restaurant_7,2,memory-2step-stake-s,577,1555766,0.0-19.0-0.0-0.83,A3NHBXYOMMJ2W6,3MQKOF1EF54KJDI76AN431783D3WDT,3YWRV122CWFYWXV5K42PO54X1IJU87,7,8
84,2,object_03,object_02,868.0,3,1,535.79999998212,0.7777777777777778,1,object_05,5,1312,0,7,3,forest_5,2,memory-2step-stake-s,578,1564311,0.0-19.0-0.0-0.84,A3NHBXYOMMJ2W6,3MQKOF1EF54KJDI76AN431783D3WDT,3YWRV122CWFYWXV5K42PO54X1IJU87,3,4
85,2,object_02,object_03,815.69999998808,3,2,332.20000001788,0.5555555555555556,1,object_05,5,1337,0,5,1,forest_7,2,memory-2step-stake-s,579,1572462,0.0-19.0-0.0-0.85,A3NHBXYOMMJ2W6,3MQKOF1EF54KJDI76AN431783D3WDT,3YWRV122CWFYWXV5K42PO54X1IJU87,4,3
86,1,object_07,object_09,333.09999999404,1,1,504.79999998212,0.5555555555555556,1,object_05,5,1362,0,5,2,desert_5,2,memory-2step-stake-s,580,1580762,0.0-19.0-0.0-0.86,A3NHBXYOMMJ2W6,3MQKOF1EF54KJDI76AN431783D3WDT,3YWRV122CWFYWXV5K42PO54X1IJU87,1,2
87,2,object_03,object_02,393.0,3,1,448.29999998212,0.4444444444444444,1,object_05,5,1382,0,4,2,forest_3,2,memory-2step-stake-s,581,1588903,0.0-19.0-0.0-0.87,A3NHBXYOMMJ2W6,3MQKOF1EF54KJDI76AN431783D3WDT,3YWRV122CWFYWXV5K42PO54X1IJU87,3,4
88,3,object_04,object_01,485.5,5,1,405.0,0.3333333333333333,1,object_05,1,1385,0,3,5,library_1,2,memory-2step-stake-s,582,1596889,0.0-19.0-0.0-0.88,A3NHBXYOMMJ2W6,3MQKOF1EF54KJDI76AN431783D3WDT,3YWRV122CWFYWXV5K42PO54X1IJU87,5,6
89,4,object_08,object_10,962.5,8,1,457.39999997616,0.4444444444444444,2,object_06,5,1405,0,2,4,restaurant_2,2,memory-2step-stake-s,583,1605064,0.0-19.0-0.0-0.89,A3NHBXYOMMJ2W6,3MQKOF1EF54KJDI76AN431783D3WDT,3YWRV122CWFYWXV5K42PO54X1IJU87,8,7
90,4,object_08,object_10,939.10000002384,7,2,478.5,0.0,1,object_05,5,1405,0,0,7,restaurant_6,2,memory-2step-stake-s,584,1612816,0.0-19.0-0.0-0.90,A3NHBXYOMMJ2W6,3MQKOF1EF54KJDI76AN431783D3WDT,3YWRV122CWFYWXV5K42PO54X1IJU87,8,7
91,1,object_09,object_07,922.30000001192,2,1,410.90000000596,0.7777777777777778,2,object_06,5,1440,0,1,7,desert_3,2,memory-2step-stake-s,585,1621231,0.0-19.0-0.0-0.91,A3NHBXYOMMJ2W6,3MQKOF1EF54KJDI76AN431783D3WDT,3YWRV122CWFYWXV5K42PO54X1IJU87,2,1
92,1,object_09,object_07,1272.6999999881,2,1,453.29999998212,0.5555555555555556,2,object_06,5,1465,0,1,5,desert_5,2,memory-2step-stake-s,586,1629505,0.0-19.0-0.0-0.92,A3NHBXYOMMJ2W6,3MQKOF1EF54KJDI76AN431783D3WDT,3YWRV122CWFYWXV5K42PO54X1IJU87,2,1
93,3,object_01,object_04,461.90000000596,6,1,435.90000000596,0.5555555555555556,2,object_06,1,1470,0,3,5,library_6,2,memory-2step-stake-s,587,1637759,0.0-19.0-0.0-0.93,A3NHBXYOMMJ2W6,3MQKOF1EF54KJDI76AN431783D3WDT,3YWRV122CWFYWXV5K42PO54X1IJU87,6,5
94,4,object_10,object_08,1003.6999999881,8,2,370.59999999404,0.2222222222222222,2,object_06,5,1480,0,2,2,restaurant_7,2,memory-2step-stake-s,588,1645626,0.0-19.0-0.0-0.94,A3NHBXYOMMJ2W6,3MQKOF1EF54KJDI76AN431783D3WDT,3YWRV122CWFYWXV5K42PO54X1IJU87,7,8
95,1,object_09,object_07,630.90000000596,1,2,282.09999999404,0.0,1,object_05,1,1480,0,0,0,desert_5,2,memory-2step-stake-s,589,1653199,0.0-19.0-0.0-0.95,A3NHBXYOMMJ2W6,3MQKOF1EF54KJDI76AN431783D3WDT,3YWRV122CWFYWXV5K42PO54X1IJU87,2,1
96,3,object_01,object_04,367.19999998808,6,1,350.59999999404,0.2222222222222222,2,object_06,1,1482,0,2,2,library_6,2,memory-2step-stake-s,590,1661055,0.0-19.0-0.0-0.96,A3NHBXYOMMJ2W6,3MQKOF1EF54KJDI76AN431783D3WDT,3YWRV122CWFYWXV5K42PO54X1IJU87,6,5
97,2,object_03,object_02,863.09999999404,3,1,255.70000001788,0.2222222222222222,1,object_05,5,1492,0,2,3,forest_3,2,memory-2step-stake-s,591,1668776,0.0-19.0-0.0-0.97,A3NHBXYOMMJ2W6,3MQKOF1EF54KJDI76AN431783D3WDT,3YWRV122CWFYWXV5K42PO54X1IJU87,3,4
98,3,object_04,object_01,1099.3000000119,6,2,857.80000001192,0.3333333333333333,2,object_06,5,1507,0,2,3,library_6,2,memory-2step-stake-s,592,1677251,0.0-19.0-0.0-0.98,A3NHBXYOMMJ2W6,3MQKOF1EF54KJDI76AN431783D3WDT,3YWRV122CWFYWXV5K42PO54X1IJU87,5,6
99,2,object_03,object_02,464.29999998212,3,1,302.90000000596,0.2222222222222222,1,object_05,5,1517,0,2,1,forest_3,2,memory-2step-stake-s,593,1685030,0.0-19.0-0.0-0.99,A3NHBXYOMMJ2W6,3MQKOF1EF54KJDI76AN431783D3WDT,3YWRV122CWFYWXV5K42PO54X1IJU87,3,4
100,1,object_09,object_07,871.19999998808,2,1,450.5,0.2222222222222222,2,object_06,5,1527,0,4,2,desert_2,2,memory-2step-stake-s,594,1692972,0.0-19.0-0.0-0.100,A3NHBXYOMMJ2W6,3MQKOF1EF54KJDI76AN431783D3WDT,3YWRV122CWFYWXV5K42PO54X1IJU87,2,1
101,3,object_01,object_04,1247.599999994,5,2,370.5,0.3333333333333333,1,object_05,1,1530,0,3,1,library_2,2,memory-2step-stake-s,595,1700933,0.0-19.0-0.0-0.101,A3NHBXYOMMJ2W6,3MQKOF1EF54KJDI76AN431783D3WDT,3YWRV122CWFYWXV5K42PO54X1IJU87,6,5
102,1,object_07,object_09,697.79999998212,2,2,621.30000001192,0.1111111111111111,2,object_06,1,1531,0,3,1,desert_2,2,memory-2step-stake-s,596,1708934,0.0-19.0-0.0-0.102,A3NHBXYOMMJ2W6,3MQKOF1EF54KJDI76AN431783D3WDT,3YWRV122CWFYWXV5K42PO54X1IJU87,1,2
103,4,object_10,object_08,650.89999997616,7,1,-1.0,0.0,1,object_05,1,1531,0,3,3,restaurant_4,2,memory-2step-stake-s,597,1717515,0.0-19.0-0.0-0.103,A3NHBXYOMMJ2W6,3MQKOF1EF54KJDI76AN431783D3WDT,3YWRV122CWFYWXV5K42PO54X1IJU87,7,8
104,4,object_08,object_10,471.80000001192,8,1,374.5,0.0,2,object_06,5,1531,0,1,0,restaurant_4,2,memory-2step-stake-s,598,1725177,0.0-19.0-0.0-0.104,A3NHBXYOMMJ2W6,3MQKOF1EF54KJDI76AN431783D3WDT,3YWRV122CWFYWXV5K42PO54X1IJU87,8,7
105,3,object_04,object_01,656.70000001788,6,2,418.79999998212,0.4444444444444444,2,object_06,1,1535,0,1,4,library_5,2,memory-2step-stake-s,599,1733284,0.0-19.0-0.0-0.105,A3NHBXYOMMJ2W6,3MQKOF1EF54KJDI76AN431783D3WDT,3YWRV122CWFYWXV5K42PO54X1IJU87,5,6
106,2,object_03,object_02,696.80000001192,4,2,408.09999999404,0.7777777777777778,2,object_06,5,1570,0,2,7,forest_7,2,memory-2step-stake-s,600,1741715,0.0-19.0-0.0-0.106,A3NHBXYOMMJ2W6,3MQKOF1EF54KJDI76AN431783D3WDT,3YWRV122CWFYWXV5K42PO54X1IJU87,3,4
107,1,object_09,object_07,825.20000001788,2,1,587.20000001788,0.8888888888888888,2,object_06,5,1610,0,4,8,desert_5,2,memory-2step-stake-s,601,1750455,0.0-19.0-0.0-0.107,A3NHBXYOMMJ2W6,3MQKOF1EF54KJDI76AN431783D3WDT,3YWRV122CWFYWXV5K42PO54X1IJU87,2,1
108,1,object_07,object_09,918.59999999404,2,2,1220.5,0.8888888888888888,2,object_06,5,1650,0,7,8,desert_4,2,memory-2step-stake-s,602,1759772,0.0-19.0-0.0-0.108,A3NHBXYOMMJ2W6,3MQKOF1EF54KJDI76AN431783D3WDT,3YWRV122CWFYWXV5K42PO54X1IJU87,1,2
109,4,object_10,object_08,427.70000001788,8,2,394.19999998808,1.0,2,object_06,1,1659,0,5,9,restaurant_6,2,memory-2step-stake-s,603,1768372,0.0-19.0-0.0-0.109,A3NHBXYOMMJ2W6,3MQKOF1EF54KJDI76AN431783D3WDT,3YWRV122CWFYWXV5K42PO54X1IJU87,7,8
110,2,object_03,object_02,548.59999999404,4,2,365.0,0.7777777777777778,2,object_06,1,1666,0,5,7,forest_5,2,memory-2step-stake-s,604,1776767,0.0-19.0-0.0-0.110,A3NHBXYOMMJ2W6,3MQKOF1EF54KJDI76AN431783D3WDT,3YWRV122CWFYWXV5K42PO54X1IJU87,3,4
111,2,object_02,object_03,473.40000000596,4,1,0.80000001192093,0.6666666666666666,2,object_06,5,1696,0,8,6,forest_5,2,memory-2step-stake-s,605,1784679,0.0-19.0-0.0-0.111,A3NHBXYOMMJ2W6,3MQKOF1EF54KJDI76AN431783D3WDT,3YWRV122CWFYWXV5K42PO54X1IJU87,4,3
112,3,object_04,object_01,742.20000001788,5,1,363.80000001192,0.7777777777777778,1,object_05,1,1703,0,7,6,library_1,2,memory-2step-stake-s,606,1793086,0.0-19.0-0.0-0.112,A3NHBXYOMMJ2W6,3MQKOF1EF54KJDI76AN431783D3WDT,3YWRV122CWFYWXV5K42PO54X1IJU87,5,6
113,1,object_09,object_07,550.59999999404,1,2,603.09999999404,0.8888888888888888,1,object_05,5,1743,0,8,5,desert_5,2,memory-2step-stake-s,607,1801849,0.0-19.0-0.0-0.113,A3NHBXYOMMJ2W6,3MQKOF1EF54KJDI76AN431783D3WDT,3YWRV122CWFYWXV5K42PO54X1IJU87,2,1
114,1,object_09,object_07,409.90000000596,2,1,462.30000001192,0.5555555555555556,2,object_06,5,1768,0,7,5,desert_2,2,memory-2step-stake-s,608,1810152,0.0-19.0-0.0-0.114,A3NHBXYOMMJ2W6,3MQKOF1EF54KJDI76AN431783D3WDT,3YWRV122CWFYWXV5K42PO54X1IJU87,2,1
115,2,object_02,object_03,749.0,3,2,295.90000000596,0.6666666666666666,1,object_05,1,1774,0,6,7,forest_7,2,memory-2step-stake-s,609,1818369,0.0-19.0-0.0-0.115,A3NHBXYOMMJ2W6,3MQKOF1EF54KJDI76AN431783D3WDT,3YWRV122CWFYWXV5K42PO54X1IJU87,4,3
116,3,object_04,object_01,799.79999998212,6,2,446.30000001192,0.5555555555555556,2,object_06,5,1799,0,6,5,library_5,2,memory-2step-stake-s,610,1826637,0.0-19.0-0.0-0.116,A3NHBXYOMMJ2W6,3MQKOF1EF54KJDI76AN431783D3WDT,3YWRV122CWFYWXV5K42PO54X1IJU87,5,6
117,3,object_01,object_04,704.89999997616,6,1,418.40000000596,1.0,2,object_06,1,1808,0,4,9,library_5,2,memory-2step-stake-s,611,1835340,0.0-19.0-0.0-0.117,A3NHBXYOMMJ2W6,3MQKOF1EF54KJDI76AN431783D3WDT,3YWRV122CWFYWXV5K42PO54X1IJU87,6,5
118,2,object_03,object_02,910.09999999404,4,2,504.5,0.7777777777777778,2,object_06,5,1843,0,5,7,forest_7,2,memory-2step-stake-s,612,1843858,0.0-19.0-0.0-0.118,A3NHBXYOMMJ2W6,3MQKOF1EF54KJDI76AN431783D3WDT,3YWRV122CWFYWXV5K42PO54X1IJU87,3,4
119,2,object_03,object_02,413.40000000596,4,2,367.19999998808,0.6666666666666666,2,object_06,5,1873,0,7,6,forest_7,2,memory-2step-stake-s,613,1852125,0.0-19.0-0.0-0.119,A3NHBXYOMMJ2W6,3MQKOF1EF54KJDI76AN431783D3WDT,3YWRV122CWFYWXV5K42PO54X1IJU87,3,4
120,3,object_01,object_04,635.59999999404,5,2,448.5,0.4444444444444444,1,object_05,1,1877,0,4,5,library_2,2,memory-2step-stake-s,614,1860290,0.0-19.0-0.0-0.120,A3NHBXYOMMJ2W6,3MQKOF1EF54KJDI76AN431783D3WDT,3YWRV122CWFYWXV5K42PO54X1IJU87,6,5
121,2,object_03,object_02,583.89999997616,4,2,453.69999998808,0.4444444444444444,2,object_06,5,1897,0,2,4,forest_3,2,memory-2step-stake-s,615,1868430,0.0-19.0-0.0-0.121,A3NHBXYOMMJ2W6,3MQKOF1EF54KJDI76AN431783D3WDT,3YWRV122CWFYWXV5K42PO54X1IJU87,3,4
122,1,object_09,object_07,715.40000000596,1,2,366.40000000596,0.1111111111111111,1,object_05,5,1902,0,1,4,desert_3,2,memory-2step-stake-s,616,1876168,0.0-19.0-0.0-0.122,A3NHBXYOMMJ2W6,3MQKOF1EF54KJDI76AN431783D3WDT,3YWRV122CWFYWXV5K42PO54X1IJU87,2,1
123,4,object_08,object_10,507.0,8,1,484.30000001192,0.7777777777777778,2,object_06,1,1909,0,2,7,restaurant_7,2,memory-2step-stake-s,617,1884642,0.0-19.0-0.0-0.123,A3NHBXYOMMJ2W6,3MQKOF1EF54KJDI76AN431783D3WDT,3YWRV122CWFYWXV5K42PO54X1IJU87,8,7
124,4,object_10,object_08,659.59999999404,8,2,815.10000002384,0.8888888888888888,2,object_06,1,1917,0,6,8,restaurant_2,2,memory-2step-stake-s,618,1893593,0.0-19.0-0.0-0.124,A3NHBXYOMMJ2W6,3MQKOF1EF54KJDI76AN431783D3WDT,3YWRV122CWFYWXV5K42PO54X1IJU87,7,8
125,3,object_01,object_04,652.29999998212,6,1,940.70000001788,0.8888888888888888,2,object_06,1,1925,0,8,8,library_5,2,memory-2step-stake-s,619,1902651,0.0-19.0-0.0-0.125,A3NHBXYOMMJ2W6,3MQKOF1EF54KJDI76AN431783D3WDT,3YWRV122CWFYWXV5K42PO54X1IJU87,6,5
126,2,object_02,object_03,613.59999999404,4,1,338.5,0.8888888888888888,2,object_06,1,1933,0,5,8,forest_3,2,memory-2step-stake-s,620,1911105,0.0-19.0-0.0-0.126,A3NHBXYOMMJ2W6,3MQKOF1EF54KJDI76AN431783D3WDT,3YWRV122CWFYWXV5K42PO54X1IJU87,4,3
127,2,object_03,object_02,628.59999999404,4,2,470.69999998808,0.8888888888888888,2,object_06,1,1941,0,3,8,forest_7,2,memory-2step-stake-s,621,1919705,0.0-19.0-0.0-0.127,A3NHBXYOMMJ2W6,3MQKOF1EF54KJDI76AN431783D3WDT,3YWRV122CWFYWXV5K42PO54X1IJU87,3,4
128,4,object_08,object_10,698.29999998212,8,1,916.5,0.7777777777777778,2,object_06,1,1948,0,1,7,restaurant_6,2,memory-2step-stake-s,623,2072944,0.0-19.0-0.1-0.128,A3NHBXYOMMJ2W6,3MQKOF1EF54KJDI76AN431783D3WDT,3YWRV122CWFYWXV5K42PO54X1IJU87,8,7
129,4,object_08,object_10,458.30000001192,7,2,371.79999998212,0.4444444444444444,1,object_05,1,1952,0,4,7,restaurant_7,2,memory-2step-stake-s,624,2080986,0.0-19.0-0.1-0.129,A3NHBXYOMMJ2W6,3MQKOF1EF54KJDI76AN431783D3WDT,3YWRV122CWFYWXV5K42PO54X1IJU87,8,7
130,2,object_03,object_02,886.5,3,1,481.69999998808,0.2222222222222222,1,object_05,5,1962,0,2,7,forest_3,2,memory-2step-stake-s,625,2088953,0.0-19.0-0.1-0.130,A3NHBXYOMMJ2W6,3MQKOF1EF54KJDI76AN431783D3WDT,3YWRV122CWFYWXV5K42PO54X1IJU87,3,4
131,3,object_04,object_01,739.39999997616,6,2,445.90000000596,0.6666666666666666,2,object_06,5,1992,0,1,6,library_2,2,memory-2step-stake-s,626,2097324,0.0-19.0-0.1-0.131,A3NHBXYOMMJ2W6,3MQKOF1EF54KJDI76AN431783D3WDT,3YWRV122CWFYWXV5K42PO54X1IJU87,5,6
132,4,object_08,object_10,636.80000001192,7,2,281.30000001192,0.6666666666666666,1,object_05,5,2022,0,6,7,restaurant_2,2,memory-2step-stake-s,627,2105538,0.0-19.0-0.1-0.132,A3NHBXYOMMJ2W6,3MQKOF1EF54KJDI76AN431783D3WDT,3YWRV122CWFYWXV5K42PO54X1IJU87,8,7
133,2,object_03,object_02,518.89999997616,3,1,346.90000000596,0.5555555555555556,1,object_05,5,2047,0,5,5,forest_3,2,memory-2step-stake-s,628,2113678,0.0-19.0-0.1-0.133,A3NHBXYOMMJ2W6,3MQKOF1EF54KJDI76AN431783D3WDT,3YWRV122CWFYWXV5K42PO54X1IJU87,3,4
134,1,object_09,object_07,1005.0,2,1,378.09999999404,0.6666666666666666,2,object_06,5,2077,0,5,6,desert_2,2,memory-2step-stake-s,629,2121967,0.0-19.0-0.1-0.134,A3NHBXYOMMJ2W6,3MQKOF1EF54KJDI76AN431783D3WDT,3YWRV122CWFYWXV5K42PO54X1IJU87,2,1
135,2,object_02,object_03,461.30000001192,3,2,500.10000002384,0.5555555555555556,1,object_05,5,2102,0,5,5,forest_2,2,memory-2step-stake-s,630,2130285,0.0-19.0-0.1-0.135,A3NHBXYOMMJ2W6,3MQKOF1EF54KJDI76AN431783D3WDT,3YWRV122CWFYWXV5K42PO54X1IJU87,4,3
136,3,object_04,object_01,335.69999998808,5,1,425.60000002384,0.5555555555555556,1,object_05,1,2107,0,5,6,library_6,2,memory-2step-stake-s,631,2138511,0.0-19.0-0.1-0.136,A3NHBXYOMMJ2W6,3MQKOF1EF54KJDI76AN431783D3WDT,3YWRV122CWFYWXV5K42PO54X1IJU87,5,6
137,1,object_09,object_07,427.90000000596,2,1,386.40000000596,0.2222222222222222,2,object_06,5,2117,0,6,2,desert_3,2,memory-2step-stake-s,632,2146415,0.0-19.0-0.1-0.137,A3NHBXYOMMJ2W6,3MQKOF1EF54KJDI76AN431783D3WDT,3YWRV122CWFYWXV5K42PO54X1IJU87,2,1
138,3,object_04,object_01,989.5,5,1,337.30000001192,0.7777777777777778,1,object_05,1,2124,0,7,4,library_6,2,memory-2step-stake-s,633,2154765,0.0-19.0-0.1-0.138,A3NHBXYOMMJ2W6,3MQKOF1EF54KJDI76AN431783D3WDT,3YWRV122CWFYWXV5K42PO54X1IJU87,5,6
139,4,object_10,object_08,1002.8999999762,7,1,790.90000000596,0.8888888888888888,1,object_05,1,2132,0,8,2,restaurant_6,2,memory-2step-stake-s,634,2163681,0.0-19.0-0.1-0.139,A3NHBXYOMMJ2W6,3MQKOF1EF54KJDI76AN431783D3WDT,3YWRV122CWFYWXV5K42PO54X1IJU87,7,8
140,1,object_09,object_07,517.60000002384,2,1,514.59999999404,0.3333333333333333,2,object_06,5,2147,0,8,3,desert_2,2,memory-2step-stake-s,635,2171801,0.0-19.0-0.1-0.140,A3NHBXYOMMJ2W6,3MQKOF1EF54KJDI76AN431783D3WDT,3YWRV122CWFYWXV5K42PO54X1IJU87,2,1
141,3,object_04,object_01,1284.099999994,6,2,480.90000000596,0.5555555555555556,2,object_06,1,2152,0,7,5,library_1,2,memory-2step-stake-s,636,2180088,0.0-19.0-0.1-0.141,A3NHBXYOMMJ2W6,3MQKOF1EF54KJDI76AN431783D3WDT,3YWRV122CWFYWXV5K42PO54X1IJU87,5,6
142,4,object_08,object_10,1356.900000006,8,1,561.79999998212,0.7777777777777778,2,object_06,1,2159,0,0,7,restaurant_6,2,memory-2step-stake-s,637,2188672,0.0-19.0-0.1-0.142,A3NHBXYOMMJ2W6,3MQKOF1EF54KJDI76AN431783D3WDT,3YWRV122CWFYWXV5K42PO54X1IJU87,8,7
143,1,object_09,object_07,505.39999997616,1,2,615.40000000596,0.4444444444444444,1,object_05,5,2179,0,4,6,desert_4,2,memory-2step-stake-s,638,2197018,0.0-19.0-0.1-0.143,A3NHBXYOMMJ2W6,3MQKOF1EF54KJDI76AN431783D3WDT,3YWRV122CWFYWXV5K42PO54X1IJU87,2,1
144,4,object_10,object_08,581.19999998808,7,1,422.5,0.2222222222222222,1,object_05,1,2181,0,2,6,restaurant_7,2,memory-2step-stake-s,639,2204946,0.0-19.0-0.1-0.144,A3NHBXYOMMJ2W6,3MQKOF1EF54KJDI76AN431783D3WDT,3YWRV122CWFYWXV5K42PO54X1IJU87,7,8
145,1,object_09,object_07,758.09999999404,2,1,431.40000000596,0.5555555555555556,2,object_06,5,2206,0,4,5,desert_5,2,memory-2step-stake-s,640,2213216,0.0-19.0-0.1-0.145,A3NHBXYOMMJ2W6,3MQKOF1EF54KJDI76AN431783D3WDT,3YWRV122CWFYWXV5K42PO54X1IJU87,2,1
146,1,object_07,object_09,513.59999999404,2,2,566.59999999404,0.2222222222222222,2,object_06,5,2216,0,3,2,desert_2,2,memory-2step-stake-s,641,2221282,0.0-19.0-0.1-0.146,A3NHBXYOMMJ2W6,3MQKOF1EF54KJDI76AN431783D3WDT,3YWRV122CWFYWXV5K42PO54X1IJU87,1,2
147,4,object_08,object_10,202.5,8,1,295.80000001192,0.1111111111111111,2,object_06,1,2217,0,5,1,restaurant_7,2,memory-2step-stake-s,642,2228981,0.0-19.0-0.1-0.147,A3NHBXYOMMJ2W6,3MQKOF1EF54KJDI76AN431783D3WDT,3YWRV122CWFYWXV5K42PO54X1IJU87,8,7
148,3,object_04,object_01,512.0,6,2,447.09999999404,0.1111111111111111,2,object_06,5,2222,0,5,1,library_1,2,memory-2step-stake-s,643,2236845,0.0-19.0-0.1-0.148,A3NHBXYOMMJ2W6,3MQKOF1EF54KJDI76AN431783D3WDT,3YWRV122CWFYWXV5K42PO54X1IJU87,5,6
149,1,object_09,object_07,532.0,2,1,216.90000000596,0.2222222222222222,2,object_06,5,2232,0,4,2,desert_4,2,memory-2step-stake-s,644,2244534,0.0-19.0-0.1-0.149,A3NHBXYOMMJ2W6,3MQKOF1EF54KJDI76AN431783D3WDT,3YWRV122CWFYWXV5K42PO54X1IJU87,2,1
150,2,object_02,object_03,443.89999997616,3,2,340.79999998212,0.4444444444444444,1,object_05,5,2252,0,4,0,forest_3,2,memory-2step-stake-s,645,2252590,0.0-19.0-0.1-0.150,A3NHBXYOMMJ2W6,3MQKOF1EF54KJDI76AN431783D3WDT,3YWRV122CWFYWXV5K42PO54X1IJU87,4,3
151,4,object_08,object_10,377.89999997616,8,1,385.90000000596,0.0,2,object_06,1,2252,0,5,0,restaurant_6,2,memory-2step-stake-s,646,2260250,0.0-19.0-0.1-0.151,A3NHBXYOMMJ2W6,3MQKOF1EF54KJDI76AN431783D3WDT,3YWRV122CWFYWXV5K42PO54X1IJU87,8,7
152,1,object_09,object_07,431.29999998212,2,1,419.79999998212,0.1111111111111111,2,object_06,5,2257,0,8,1,desert_5,2,memory-2step-stake-s,647,2268052,0.0-19.0-0.1-0.152,A3NHBXYOMMJ2W6,3MQKOF1EF54KJDI76AN431783D3WDT,3YWRV122CWFYWXV5K42PO54X1IJU87,2,1
153,3,object_04,object_01,655.40000000596,5,1,404.40000000596,0.6666666666666666,1,object_05,5,2287,0,6,1,library_1,2,memory-2step-stake-s,648,2276386,0.0-19.0-0.1-0.153,A3NHBXYOMMJ2W6,3MQKOF1EF54KJDI76AN431783D3WDT,3YWRV122CWFYWXV5K42PO54X1IJU87,5,6
154,3,object_04,object_01,447.5,6,2,397.10000002384,0.1111111111111111,2,object_06,5,2292,0,6,1,library_2,2,memory-2step-stake-s,649,2284181,0.0-19.0-0.1-0.154,A3NHBXYOMMJ2W6,3MQKOF1EF54KJDI76AN431783D3WDT,3YWRV122CWFYWXV5K42PO54X1IJU87,5,6
155,2,object_02,object_03,549.80000001192,4,1,462.0,0.4444444444444444,2,object_06,5,2312,0,7,4,forest_2,2,memory-2step-stake-s,650,2292371,0.0-19.0-0.1-0.155,A3NHBXYOMMJ2W6,3MQKOF1EF54KJDI76AN431783D3WDT,3YWRV122CWFYWXV5K42PO54X1IJU87,4,3
156,1,object_07,object_09,309.20000001788,1,1,406.39999997616,0.8888888888888888,1,object_05,5,2352,0,8,6,desert_2,2,memory-2step-stake-s,651,2300898,0.0-19.0-0.1-0.156,A3NHBXYOMMJ2W6,3MQKOF1EF54KJDI76AN431783D3WDT,3YWRV122CWFYWXV5K42PO54X1IJU87,1,2
157,1,object_09,object_07,943.09999999404,2,1,1266.7999999821,0.4444444444444444,2,object_06,5,2372,0,7,4,desert_2,2,memory-2step-stake-s,652,2309886,0.0-19.0-0.1-0.157,A3NHBXYOMMJ2W6,3MQKOF1EF54KJDI76AN431783D3WDT,3YWRV122CWFYWXV5K42PO54X1IJU87,2,1
158,2,object_02,object_03,788.80000001192,4,1,574.0,0.0,2,object_06,5,2372,0,8,0,forest_3,2,memory-2step-stake-s,653,2317765,0.0-19.0-0.1-0.158,A3NHBXYOMMJ2W6,3MQKOF1EF54KJDI76AN431783D3WDT,3YWRV122CWFYWXV5K42PO54X1IJU87,4,3
159,4,object_08,object_10,301.30000001192,7,2,345.0,0.8888888888888888,1,object_05,1,2380,0,8,3,restaurant_7,2,memory-2step-stake-s,654,2326233,0.0-19.0-0.1-0.159,A3NHBXYOMMJ2W6,3MQKOF1EF54KJDI76AN431783D3WDT,3YWRV122CWFYWXV5K42PO54X1IJU87,8,7
160,1,object_07,object_09,447.59999999404,1,1,636.30000001192,0.7777777777777778,1,object_05,5,2415,0,7,5,desert_4,2,memory-2step-stake-s,655,2334852,0.0-19.0-0.1-0.160,A3NHBXYOMMJ2W6,3MQKOF1EF54KJDI76AN431783D3WDT,3YWRV122CWFYWXV5K42PO54X1IJU87,1,2
161,4,object_10,object_08,991.90000000596,7,1,563.79999998212,0.6666666666666666,1,object_05,1,2421,0,6,5,restaurant_4,2,memory-2step-stake-s,656,2343362,0.0-19.0-0.1-0.161,A3NHBXYOMMJ2W6,3MQKOF1EF54KJDI76AN431783D3WDT,3YWRV122CWFYWXV5K42PO54X1IJU87,7,8
162,2,object_03,object_02,489.09999999404,3,1,371.0,1.0,1,object_05,5,2466,0,9,7,forest_2,2,memory-2step-stake-s,657,2351926,0.0-19.0-0.1-0.162,A3NHBXYOMMJ2W6,3MQKOF1EF54KJDI76AN431783D3WDT,3YWRV122CWFYWXV5K42PO54X1IJU87,3,4
163,4,object_10,object_08,500.89999997616,8,2,484.40000000596,0.7777777777777778,2,object_06,5,2501,0,9,7,restaurant_6,2,memory-2step-stake-s,658,2360449,0.0-19.0-0.1-0.163,A3NHBXYOMMJ2W6,3MQKOF1EF54KJDI76AN431783D3WDT,3YWRV122CWFYWXV5K42PO54X1IJU87,7,8
164,4,object_08,object_10,311.59999999404,8,1,345.0,0.6666666666666666,2,object_06,1,2507,0,9,6,restaurant_2,2,memory-2step-stake-s,659,2368717,0.0-19.0-0.1-0.164,A3NHBXYOMMJ2W6,3MQKOF1EF54KJDI76AN431783D3WDT,3YWRV122CWFYWXV5K42PO54X1IJU87,8,7
165,2,object_02,object_03,675.5,3,2,407.30000001192,0.6666666666666666,1,object_05,5,2537,0,6,1,forest_7,2,memory-2step-stake-s,660,2377047,0.0-19.0-0.1-0.165,A3NHBXYOMMJ2W6,3MQKOF1EF54KJDI76AN431783D3WDT,3YWRV122CWFYWXV5K42PO54X1IJU87,4,3
166,2,object_03,object_02,800.80000001192,3,1,370.20000001788,0.6666666666666666,1,object_05,1,2543,0,6,2,forest_2,2,memory-2step-stake-s,661,2385335,0.0-19.0-0.1-0.166,A3NHBXYOMMJ2W6,3MQKOF1EF54KJDI76AN431783D3WDT,3YWRV122CWFYWXV5K42PO54X1IJU87,3,4
167,1,object_07,object_09,365.5,2,2,453.90000000596,0.3333333333333333,2,object_06,5,2558,0,6,3,desert_4,2,memory-2step-stake-s,662,2393428,0.0-19.0-0.1-0.167,A3NHBXYOMMJ2W6,3MQKOF1EF54KJDI76AN431783D3WDT,3YWRV122CWFYWXV5K42PO54X1IJU87,1,2
168,2,object_03,object_02,587.20000001788,3,1,353.69999998808,0.6666666666666666,1,object_05,5,2588,0,6,5,forest_5,2,memory-2step-stake-s,663,2401735,0.0-19.0-0.1-0.168,A3NHBXYOMMJ2W6,3MQKOF1EF54KJDI76AN431783D3WDT,3YWRV122CWFYWXV5K42PO54X1IJU87,3,4
169,4,object_08,object_10,545.19999998808,8,1,995.40000000596,0.4444444444444444,2,object_06,1,2592,0,5,4,restaurant_7,2,memory-2step-stake-s,664,2410448,0.0-19.0-0.1-0.169,A3NHBXYOMMJ2W6,3MQKOF1EF54KJDI76AN431783D3WDT,3YWRV122CWFYWXV5K42PO54X1IJU87,8,7
170,1,object_09,object_07,620.59999999404,1,2,578.80000001192,0.5555555555555556,1,object_05,5,2617,0,5,2,desert_5,2,memory-2step-stake-s,665,2418852,0.0-19.0-0.1-0.170,A3NHBXYOMMJ2W6,3MQKOF1EF54KJDI76AN431783D3WDT,3YWRV122CWFYWXV5K42PO54X1IJU87,2,1
171,2,object_03,object_02,335.5,3,1,289.60000002384,0.7777777777777778,1,object_05,5,2652,0,7,3,forest_3,2,memory-2step-stake-s,666,2427207,0.0-19.0-0.1-0.171,A3NHBXYOMMJ2W6,3MQKOF1EF54KJDI76AN431783D3WDT,3YWRV122CWFYWXV5K42PO54X1IJU87,3,4
172,1,object_07,object_09,528.19999998808,2,2,670.5,0.3333333333333333,2,object_06,1,2655,0,7,3,desert_4,2,memory-2step-stake-s,667,2435496,0.0-19.0-0.1-0.172,A3NHBXYOMMJ2W6,3MQKOF1EF54KJDI76AN431783D3WDT,3YWRV122CWFYWXV5K42PO54X1IJU87,1,2
173,1,object_07,object_09,443.5,1,1,662.40000000596,0.7777777777777778,1,object_05,5,2690,0,7,7,desert_4,2,memory-2step-stake-s,668,2444195,0.0-19.0-0.1-0.173,A3NHBXYOMMJ2W6,3MQKOF1EF54KJDI76AN431783D3WDT,3YWRV122CWFYWXV5K42PO54X1IJU87,1,2
174,2,object_03,object_02,657.5,4,2,528.70000001788,1.0,2,object_06,5,2735,0,6,9,forest_5,2,memory-2step-stake-s,669,2453021,0.0-19.0-0.1-0.174,A3NHBXYOMMJ2W6,3MQKOF1EF54KJDI76AN431783D3WDT,3YWRV122CWFYWXV5K42PO54X1IJU87,3,4
175,4,object_10,object_08,499.70000001788,7,1,496.29999998212,0.7777777777777778,1,object_05,1,2742,0,7,8,restaurant_2,2,memory-2step-stake-s,670,2461572,0.0-19.0-0.1-0.175,A3NHBXYOMMJ2W6,3MQKOF1EF54KJDI76AN431783D3WDT,3YWRV122CWFYWXV5K42PO54X1IJU87,7,8
176,4,object_08,object_10,-1.0,-1,-1,-1.0,0.0,-,0,5,2742,0,9,7,restaurant_6,2,memory-2step-stake-s,671,2468151,0.0-19.0-0.1-0.176,A3NHBXYOMMJ2W6,3MQKOF1EF54KJDI76AN431783D3WDT,3YWRV122CWFYWXV5K42PO54X1IJU87,8,7
177,4,object_08,object_10,299.80000001192,8,1,396.20000001788,0.4444444444444444,2,object_06,1,2746,0,8,4,restaurant_4,2,memory-2step-stake-s,672,2476286,0.0-19.0-0.1-0.177,A3NHBXYOMMJ2W6,3MQKOF1EF54KJDI76AN431783D3WDT,3YWRV122CWFYWXV5K42PO54X1IJU87,8,7
178,3,object_04,object_01,917.09999999404,6,2,357.80000001192,0.5555555555555556,2,object_06,1,2751,0,4,5,library_6,2,memory-2step-stake-s,673,2484491,0.0-19.0-0.1-0.178,A3NHBXYOMMJ2W6,3MQKOF1EF54KJDI76AN431783D3WDT,3YWRV122CWFYWXV5K42PO54X1IJU87,5,6
179,2,object_03,object_02,359.80000001192,3,1,508.5,0.5555555555555556,1,object_05,5,2776,0,5,5,forest_7,2,memory-2step-stake-s,674,2492823,0.0-19.0-0.1-0.179,A3NHBXYOMMJ2W6,3MQKOF1EF54KJDI76AN431783D3WDT,3YWRV122CWFYWXV5K42PO54X1IJU87,3,4
180,4,object_08,object_10,549.30000001192,7,2,475.59999999404,0.5555555555555556,1,object_05,1,2781,0,5,7,restaurant_2,2,memory-2step-stake-s,675,2501135,0.0-19.0-0.1-0.180,A3NHBXYOMMJ2W6,3MQKOF1EF54KJDI76AN431783D3WDT,3YWRV122CWFYWXV5K42PO54X1IJU87,8,7
181,1,object_09,object_07,360.5,1,2,414.0,0.4444444444444444,1,object_05,5,2801,0,4,5,desert_4,2,memory-2step-stake-s,676,2509229,0.0-19.0-0.1-0.181,A3NHBXYOMMJ2W6,3MQKOF1EF54KJDI76AN431783D3WDT,3YWRV122CWFYWXV5K42PO54X1IJU87,2,1
182,2,object_02,object_03,503.29999998212,4,1,477.89999997616,0.3333333333333333,2,object_06,5,2816,0,6,3,forest_2,2,memory-2step-stake-s,677,2517288,0.0-19.0-0.1-0.182,A3NHBXYOMMJ2W6,3MQKOF1EF54KJDI76AN431783D3WDT,3YWRV122CWFYWXV5K42PO54X1IJU87,4,3
183,3,object_01,object_04,627.29999998212,6,1,409.70000001788,0.3333333333333333,2,object_06,1,2819,0,6,3,library_5,2,memory-2step-stake-s,678,2525282,0.0-19.0-0.1-0.183,A3NHBXYOMMJ2W6,3MQKOF1EF54KJDI76AN431783D3WDT,3YWRV122CWFYWXV5K42PO54X1IJU87,6,5
184,3,object_01,object_04,1043.6000000238,5,2,596.5,0.5555555555555556,1,object_05,5,2844,0,5,6,library_2,2,memory-2step-stake-s,679,2533670,0.0-19.0-0.1-0.184,A3NHBXYOMMJ2W6,3MQKOF1EF54KJDI76AN431783D3WDT,3YWRV122CWFYWXV5K42PO54X1IJU87,6,5
185,3,object_01,object_04,339.90000000596,5,2,401.39999997616,0.5555555555555556,1,object_05,1,2849,0,5,6,library_5,2,memory-2step-stake-s,680,2541841,0.0-19.0-0.1-0.185,A3NHBXYOMMJ2W6,3MQKOF1EF54KJDI76AN431783D3WDT,3YWRV122CWFYWXV5K42PO54X1IJU87,6,5
186,1,object_07,object_09,333.19999998808,2,2,692.90000000596,0.6666666666666666,2,object_06,5,2879,0,3,6,desert_4,2,memory-2step-stake-s,681,2550447,0.0-19.0-0.1-0.186,A3NHBXYOMMJ2W6,3MQKOF1EF54KJDI76AN431783D3WDT,3YWRV122CWFYWXV5K42PO54X1IJU87,1,2
187,3,object_01,object_04,78.0,5,2,337.09999999404,0.6666666666666666,1,object_05,1,2885,0,6,6,library_2,2,memory-2step-stake-s,682,2558673,0.0-19.0-0.1-0.187,A3NHBXYOMMJ2W6,3MQKOF1EF54KJDI76AN431783D3WDT,3YWRV122CWFYWXV5K42PO54X1IJU87,6,5
188,1,object_09,object_07,809.80000001192,2,1,420.20000001788,0.7777777777777778,2,object_06,5,2920,0,5,7,desert_2,2,memory-2step-stake-s,683,2567080,0.0-19.0-0.1-0.188,A3NHBXYOMMJ2W6,3MQKOF1EF54KJDI76AN431783D3WDT,3YWRV122CWFYWXV5K42PO54X1IJU87,2,1
189,3,object_04,object_01,392.90000000596,6,2,461.5,1.0,2,object_06,1,2929,0,7,9,library_6,2,memory-2step-stake-s,684,2575759,0.0-19.0-0.1-0.189,A3NHBXYOMMJ2W6,3MQKOF1EF54KJDI76AN431783D3WDT,3YWRV122CWFYWXV5K42PO54X1IJU87,5,6
190,1,object_07,object_09,1177.099999994,1,1,544.69999998808,0.5555555555555556,1,object_05,5,2954,0,5,6,desert_3,2,memory-2step-stake-s,685,2584114,0.0-19.0-0.1-0.190,A3NHBXYOMMJ2W6,3MQKOF1EF54KJDI76AN431783D3WDT,3YWRV122CWFYWXV5K42PO54X1IJU87,1,2
191,4,object_08,object_10,328.79999998212,7,2,557.69999998808,0.7777777777777778,1,object_05,1,2961,0,7,4,restaurant_2,2,memory-2step-stake-s,686,2592692,0.0-19.0-0.1-0.191,A3NHBXYOMMJ2W6,3MQKOF1EF54KJDI76AN431783D3WDT,3YWRV122CWFYWXV5K42PO54X1IJU87,8,7
192,3,object_01,object_04,473.69999998808,6,1,406.30000001192,0.2222222222222222,2,object_06,1,2963,0,7,2,library_5,2,memory-2step-stake-s,687,2600588,0.0-19.0-0.1-0.192,A3NHBXYOMMJ2W6,3MQKOF1EF54KJDI76AN431783D3WDT,3YWRV122CWFYWXV5K42PO54X1IJU87,6,5
193,1,object_07,object_09,1307.599999994,2,2,866.09999999404,0.7777777777777778,2,object_06,5,2998,0,4,7,desert_2,2,memory-2step-stake-s,688,2609476,0.0-19.0-0.1-0.193,A3NHBXYOMMJ2W6,3MQKOF1EF54KJDI76AN431783D3WDT,3YWRV122CWFYWXV5K42PO54X1IJU87,1,2
194,3,object_01,object_04,402.40000000596,5,2,-1.0,0.0,1,object_05,1,2998,0,3,8,library_6,2,memory-2step-stake-s,689,2618061,0.0-19.0-0.1-0.194,A3NHBXYOMMJ2W6,3MQKOF1EF54KJDI76AN431783D3WDT,3YWRV122CWFYWXV5K42PO54X1IJU87,6,5
195,1,object_09,object_07,916.69999998808,2,1,1317.400000006,0.3333333333333333,2,object_06,5,3013,0,1,3,desert_2,2,memory-2step-stake-s,690,2626963,0.0-19.0-0.1-0.195,A3NHBXYOMMJ2W6,3MQKOF1EF54KJDI76AN431783D3WDT,3YWRV122CWFYWXV5K42PO54X1IJU87,2,1
196,3,object_04,object_01,392.80000001192,5,1,396.5,0.0,1,object_05,1,3013,0,0,0,library_6,2,memory-2step-stake-s,691,2634631,0.0-19.0-0.1-0.196,A3NHBXYOMMJ2W6,3MQKOF1EF54KJDI76AN431783D3WDT,3YWRV122CWFYWXV5K42PO54X1IJU87,5,6
197,1,object_09,object_07,540.19999998808,2,1,371.30000001192,0.4444444444444444,2,object_06,5,3033,0,2,4,desert_4,2,memory-2step-stake-s,692,2642694,0.0-19.0-0.1-0.197,A3NHBXYOMMJ2W6,3MQKOF1EF54KJDI76AN431783D3WDT,3YWRV122CWFYWXV5K42PO54X1IJU87,2,1
198,1,object_07,object_09,1018.6999999881,2,2,487.19999998808,0.1111111111111111,2,object_06,5,3038,0,2,1,desert_3,2,memory-2step-stake-s,693,2650564,0.0-19.0-0.1-0.198,A3NHBXYOMMJ2W6,3MQKOF1EF54KJDI76AN431783D3WDT,3YWRV122CWFYWXV5K42PO54X1IJU87,1,2
199,4,object_08,object_10,557.90000000596,7,2,420.90000000596,0.5555555555555556,1,object_05,1,3043,0,5,4,restaurant_4,2,memory-2step-stake-s,694,2658797,0.0-19.0-0.1-0.199,A3NHBXYOMMJ2W6,3MQKOF1EF54KJDI76AN431783D3WDT,3YWRV122CWFYWXV5K42PO54X1IJU87,8,7
200,1,object_07,object_09,335.10000002384,1,1,576.69999998808,0.4444444444444444,1,object_05,5,3063,0,4,2,desert_5,2,memory-2step-stake-s,695,2667068,0.0-19.0-0.1-0.200,A3NHBXYOMMJ2W6,3MQKOF1EF54KJDI76AN431783D3WDT,3YWRV122CWFYWXV5K42PO54X1IJU87,1,2
201,1,object_09,object_07,460.19999998808,2,1,461.5,0.1111111111111111,2,object_06,5,3068,0,5,1,desert_3,2,memory-2step-stake-s,696,2674928,0.0-19.0-0.1-0.201,A3NHBXYOMMJ2W6,3MQKOF1EF54KJDI76AN431783D3WDT,3YWRV122CWFYWXV5K42PO54X1IJU87,2,1
202,4,object_08,object_10,1444.7999999821,7,2,521.90000000596,0.7777777777777778,1,object_05,5,3103,0,7,0,restaurant_6,2,memory-2step-stake-s,697,2683462,0.0-19.0-0.1-0.202,A3NHBXYOMMJ2W6,3MQKOF1EF54KJDI76AN431783D3WDT,3YWRV122CWFYWXV5K42PO54X1IJU87,8,7
203,1,object_07,object_09,292.09999999404,2,2,370.69999998808,0.0,2,object_06,5,3103,0,5,0,desert_5,2,memory-2step-stake-s,698,2691115,0.0-19.0-0.1-0.203,A3NHBXYOMMJ2W6,3MQKOF1EF54KJDI76AN431783D3WDT,3YWRV122CWFYWXV5K42PO54X1IJU87,1,2
204,2,object_02,object_03,999.20000001788,4,1,385.29999998212,0.2222222222222222,2,object_06,5,3113,0,5,2,forest_3,2,memory-2step-stake-s,699,2698989,0.0-19.0-0.1-0.204,A3NHBXYOMMJ2W6,3MQKOF1EF54KJDI76AN431783D3WDT,3YWRV122CWFYWXV5K42PO54X1IJU87,4,3
205,2,object_03,object_02,488.69999998808,3,1,-1.0,0.0,1,object_05,5,3113,0,6,2,forest_7,2,memory-2step-stake-s,700,2707563,0.0-19.0-0.1-0.205,A3NHBXYOMMJ2W6,3MQKOF1EF54KJDI76AN431783D3WDT,3YWRV122CWFYWXV5K42PO54X1IJU87,3,4
206,4,object_10,object_08,692.90000000596,7,1,837.69999998808,0.7777777777777778,1,object_05,1,3120,0,7,1,restaurant_7,2,memory-2step-stake-s,701,2716391,0.0-19.0-0.1-0.206,A3NHBXYOMMJ2W6,3MQKOF1EF54KJDI76AN431783D3WDT,3YWRV122CWFYWXV5K42PO54X1IJU87,7,8
207,3,object_04,object_01,347.0,6,2,299.90000000596,0.4444444444444444,2,object_06,1,3124,0,7,4,library_2,2,memory-2step-stake-s,702,2724372,0.0-19.0-0.1-0.207,A3NHBXYOMMJ2W6,3MQKOF1EF54KJDI76AN431783D3WDT,3YWRV122CWFYWXV5K42PO54X1IJU87,5,6
208,2,object_03,object_02,810.09999999404,3,1,530.59999999404,0.7777777777777778,1,object_05,5,3159,0,7,4,forest_5,2,memory-2step-stake-s,703,2732916,0.0-19.0-0.1-0.208,A3NHBXYOMMJ2W6,3MQKOF1EF54KJDI76AN431783D3WDT,3YWRV122CWFYWXV5K42PO54X1IJU87,3,4
209,1,object_07,object_09,465.5,2,2,600.0,0.7777777777777778,2,object_06,5,3194,0,6,7,desert_3,2,memory-2step-stake-s,704,2741551,0.0-19.0-0.1-0.209,A3NHBXYOMMJ2W6,3MQKOF1EF54KJDI76AN431783D3WDT,3YWRV122CWFYWXV5K42PO54X1IJU87,1,2
210,4,object_08,object_10,577.30000001192,8,1,393.5,0.6666666666666666,2,object_06,1,3200,0,7,6,restaurant_7,2,memory-2step-stake-s,705,2749867,0.0-19.0-0.1-0.210,A3NHBXYOMMJ2W6,3MQKOF1EF54KJDI76AN431783D3WDT,3YWRV122CWFYWXV5K42PO54X1IJU87,8,7
211,4,object_08,object_10,1049.2000000179,7,2,112.40000000596,0.5555555555555556,1,object_05,1,3205,0,5,4,restaurant_6,2,memory-2step-stake-s,706,2757769,0.0-19.0-0.1-0.211,A3NHBXYOMMJ2W6,3MQKOF1EF54KJDI76AN431783D3WDT,3YWRV122CWFYWXV5K42PO54X1IJU87,8,7
212,4,object_08,object_10,677.30000001192,8,1,375.69999998808,0.1111111111111111,2,object_06,1,3206,0,7,1,restaurant_2,2,memory-2step-stake-s,707,2765538,0.0-19.0-0.1-0.212,A3NHBXYOMMJ2W6,3MQKOF1EF54KJDI76AN431783D3WDT,3YWRV122CWFYWXV5K42PO54X1IJU87,8,7
213,3,object_04,object_01,-1.0,-1,-1,-1.0,0.0,-,0,1,3206,0,8,3,library_2,2,memory-2step-stake-s,708,2772101,0.0-19.0-0.1-0.213,A3NHBXYOMMJ2W6,3MQKOF1EF54KJDI76AN431783D3WDT,3YWRV122CWFYWXV5K42PO54X1IJU87,5,6
214,4,object_10,object_08,375.70000001788,8,2,558.19999998808,0.4444444444444444,2,object_06,1,3210,0,9,4,restaurant_4,2,memory-2step-stake-s,709,2780366,0.0-19.0-0.1-0.214,A3NHBXYOMMJ2W6,3MQKOF1EF54KJDI76AN431783D3WDT,3YWRV122CWFYWXV5K42PO54X1IJU87,7,8
215,2,object_02,object_03,349.60000002384,4,1,823.69999998808,0.4444444444444444,2,object_06,5,3230,0,9,4,forest_3,2,memory-2step-stake-s,710,2788865,0.0-19.0-0.1-0.215,A3NHBXYOMMJ2W6,3MQKOF1EF54KJDI76AN431783D3WDT,3YWRV122CWFYWXV5K42PO54X1IJU87,4,3
216,4,object_10,object_08,594.0,8,2,1110.6999999881,0.4444444444444444,2,object_06,1,3234,0,5,4,restaurant_7,2,memory-2step-stake-s,711,2797665,0.0-19.0-0.1-0.216,A3NHBXYOMMJ2W6,3MQKOF1EF54KJDI76AN431783D3WDT,3YWRV122CWFYWXV5K42PO54X1IJU87,7,8
217,4,object_10,object_08,449.0,8,2,-1.0,0.0,2,object_06,1,3234,0,8,4,restaurant_2,2,memory-2step-stake-s,712,2806257,0.0-19.0-0.1-0.217,A3NHBXYOMMJ2W6,3MQKOF1EF54KJDI76AN431783D3WDT,3YWRV122CWFYWXV5K42PO54X1IJU87,7,8
218,3,object_04,object_01,318.89999997616,5,1,1341.1999999881,0.8888888888888888,1,object_05,1,3242,0,8,1,library_1,2,memory-2step-stake-s,713,2815707,0.0-19.0-0.1-0.218,A3NHBXYOMMJ2W6,3MQKOF1EF54KJDI76AN431783D3WDT,3YWRV122CWFYWXV5K42PO54X1IJU87,5,6
219,3,object_01,object_04,758.29999995232,6,1,745.29999995232,0.1111111111111111,2,object_06,5,3247,0,8,1,library_1,2,memory-2step-stake-s,714,2823826,0.0-19.0-0.1-0.219,A3NHBXYOMMJ2W6,3MQKOF1EF54KJDI76AN431783D3WDT,3YWRV122CWFYWXV5K42PO54X1IJU87,6,5
220,2,object_03,object_02,473.19999998808,4,2,351.80000001192,0.4444444444444444,2,object_06,1,3251,0,9,4,forest_2,2,memory-2step-stake-s,715,2831874,0.0-19.0-0.1-0.220,A3NHBXYOMMJ2W6,3MQKOF1EF54KJDI76AN431783D3WDT,3YWRV122CWFYWXV5K42PO54X1IJU87,3,4
221,2,object_03,object_02,793.0,4,2,494.5,0.2222222222222222,2,object_06,5,3261,0,8,2,forest_7,2,memory-2step-stake-s,716,2839859,0.0-19.0-0.1-0.221,A3NHBXYOMMJ2W6,3MQKOF1EF54KJDI76AN431783D3WDT,3YWRV122CWFYWXV5K42PO54X1IJU87,3,4
222,2,object_02,object_03,871.30000001192,4,1,544.89999997616,0.1111111111111111,2,object_06,5,3266,0,8,1,forest_5,2,memory-2step-stake-s,717,2847778,0.0-19.0-0.1-0.222,A3NHBXYOMMJ2W6,3MQKOF1EF54KJDI76AN431783D3WDT,3YWRV122CWFYWXV5K42PO54X1IJU87,4,3
223,2,object_02,object_03,284.59999996424,3,2,385.40000003576,0.7777777777777778,1,object_05,5,3301,0,7,1,forest_5,2,memory-2step-stake-s,718,2856166,0.0-19.0-0.1-0.223,A3NHBXYOMMJ2W6,3MQKOF1EF54KJDI76AN431783D3WDT,3YWRV122CWFYWXV5K42PO54X1IJU87,4,3
224,3,object_01,object_04,246.10000002384,5,2,408.60000002384,0.6666666666666666,1,object_05,1,3307,0,6,0,library_2,2,memory-2step-stake-s,719,2864482,0.0-19.0-0.1-0.224,A3NHBXYOMMJ2W6,3MQKOF1EF54KJDI76AN431783D3WDT,3YWRV122CWFYWXV5K42PO54X1IJU87,6,5
225,2,object_02,object_03,240.19999998808,4,1,391.60000002384,0.1111111111111111,2,object_06,5,3312,0,8,1,forest_5,2,memory-2step-stake-s,720,2872289,0.0-19.0-0.1-0.225,A3NHBXYOMMJ2W6,3MQKOF1EF54KJDI76AN431783D3WDT,3YWRV122CWFYWXV5K42PO54X1IJU87,4,3
226,4,object_08,object_10,645.69999998808,7,2,378.79999995232,1.0,1,object_05,1,3321,0,9,1,restaurant_4,2,memory-2step-stake-s,721,2880903,0.0-19.0-0.1-0.226,A3NHBXYOMMJ2W6,3MQKOF1EF54KJDI76AN431783D3WDT,3YWRV122CWFYWXV5K42PO54X1IJU87,8,7
227,1,object_07,object_09,895.19999998808,1,1,702.10000002384,0.5555555555555556,1,object_05,1,3326,0,5,1,desert_5,2,memory-2step-stake-s,722,2889432,0.0-19.0-0.1-0.227,A3NHBXYOMMJ2W6,3MQKOF1EF54KJDI76AN431783D3WDT,3YWRV122CWFYWXV5K42PO54X1IJU87,1,2
228,3,object_01,object_04,427.30000001192,6,1,594.69999998808,0.5555555555555556,2,object_06,1,3331,0,5,5,library_6,2,memory-2step-stake-s,723,2897794,0.0-19.0-0.1-0.228,A3NHBXYOMMJ2W6,3MQKOF1EF54KJDI76AN431783D3WDT,3YWRV122CWFYWXV5K42PO54X1IJU87,6,5
229,3,object_04,object_01,871.89999997616,6,2,535.39999997616,0.6666666666666666,2,object_06,1,3337,0,6,6,library_2,2,memory-2step-stake-s,724,2906231,0.0-19.0-0.1-0.229,A3NHBXYOMMJ2W6,3MQKOF1EF54KJDI76AN431783D3WDT,3YWRV122CWFYWXV5K42PO54X1IJU87,5,6
230,2,object_03,object_02,259.0,3,1,472.19999998808,0.4444444444444444,1,object_05,5,3357,0,4,7,forest_2,2,memory-2step-stake-s,725,2914401,0.0-19.0-0.1-0.230,A3NHBXYOMMJ2W6,3MQKOF1EF54KJDI76AN431783D3WDT,3YWRV122CWFYWXV5K42PO54X1IJU87,3,4
231,3,object_04,object_01,526.89999997616,5,1,447.40000003576,0.7777777777777778,1,object_05,5,3392,0,7,7,library_5,2,memory-2step-stake-s,726,2922854,0.0-19.0-0.1-0.231,A3NHBXYOMMJ2W6,3MQKOF1EF54KJDI76AN431783D3WDT,3YWRV122CWFYWXV5K42PO54X1IJU87,5,6
232,3,object_04,object_01,546.40000003576,5,1,1447.3999999762,0.7777777777777778,1,object_05,1,3399,0,7,6,library_6,2,memory-2step-stake-s,727,2932326,0.0-19.0-0.1-0.232,A3NHBXYOMMJ2W6,3MQKOF1EF54KJDI76AN431783D3WDT,3YWRV122CWFYWXV5K42PO54X1IJU87,5,6
233,1,object_09,object_07,455.19999998808,2,1,525.80000001192,0.8888888888888888,2,object_06,5,3439,0,7,8,desert_3,2,memory-2step-stake-s,728,2940966,0.0-19.0-0.1-0.233,A3NHBXYOMMJ2W6,3MQKOF1EF54KJDI76AN431783D3WDT,3YWRV122CWFYWXV5K42PO54X1IJU87,2,1
234,3,object_04,object_01,502.69999998808,5,1,490.5,0.8888888888888888,1,object_05,1,3447,0,8,6,library_1,2,memory-2step-stake-s,729,2949564,0.0-19.0-0.1-0.234,A3NHBXYOMMJ2W6,3MQKOF1EF54KJDI76AN431783D3WDT,3YWRV122CWFYWXV5K42PO54X1IJU87,5,6
235,3,object_04,object_01,830.0,5,1,410.20000004768,0.6666666666666666,1,object_05,1,3453,0,6,2,library_1,2,memory-2step-stake-s,730,2957914,0.0-19.0-0.1-0.235,A3NHBXYOMMJ2W6,3MQKOF1EF54KJDI76AN431783D3WDT,3YWRV122CWFYWXV5K42PO54X1IJU87,5,6
236,2,object_03,object_02,272.89999997616,3,1,456.89999997616,0.8888888888888888,1,object_05,5,3493,0,8,1,forest_7,2,memory-2step-stake-s,731,2966496,0.0-19.0-0.1-0.236,A3NHBXYOMMJ2W6,3MQKOF1EF54KJDI76AN431783D3WDT,3YWRV122CWFYWXV5K42PO54X1IJU87,3,4
237,4,object_10,object_08,461.09999996424,7,1,331.0,0.8888888888888888,1,object_05,1,3501,0,8,3,restaurant_2,2,memory-2step-stake-s,732,2974939,0.0-19.0-0.1-0.237,A3NHBXYOMMJ2W6,3MQKOF1EF54KJDI76AN431783D3WDT,3YWRV122CWFYWXV5K42PO54X1IJU87,7,8
238,3,object_04,object_01,366.90000003576,6,2,397.10000002384,0.5555555555555556,2,object_06,1,3506,0,8,5,library_2,2,memory-2step-stake-s,733,2983144,0.0-19.0-0.1-0.238,A3NHBXYOMMJ2W6,3MQKOF1EF54KJDI76AN431783D3WDT,3YWRV122CWFYWXV5K42PO54X1IJU87,5,6
239,1,object_07,object_09,420.0,1,1,1119.2999999523,0.5555555555555556,1,object_05,5,3531,0,5,1,desert_5,2,memory-2step-stake-s,734,2992097,0.0-19.0-0.1-0.239,A3NHBXYOMMJ2W6,3MQKOF1EF54KJDI76AN431783D3WDT,3YWRV122CWFYWXV5K42PO54X1IJU87,1,2
240,3,object_04,object_01,293.5,6,2,759.0,0.1111111111111111,2,object_06,1,3532,0,6,1,library_2,2,memory-2step-stake-s,735,3000245,0.0-19.0-0.1-0.240,A3NHBXYOMMJ2W6,3MQKOF1EF54KJDI76AN431783D3WDT,3YWRV122CWFYWXV5K42PO54X1IJU87,5,6
241,4,object_10,object_08,402.89999997616,7,1,537.30000001192,0.7777777777777778,1,object_05,5,3567,0,7,1,restaurant_4,2,memory-2step-stake-s,736,3008847,0.0-19.0-0.1-0.241,A3NHBXYOMMJ2W6,3MQKOF1EF54KJDI76AN431783D3WDT,3YWRV122CWFYWXV5K42PO54X1IJU87,7,8
242,3,object_04,object_01,266.80000001192,6,2,309.20000004768,0.1111111111111111,2,object_06,1,3568,0,7,1,library_5,2,memory-2step-stake-s,737,3016565,0.0-19.0-0.1-0.242,A3NHBXYOMMJ2W6,3MQKOF1EF54KJDI76AN431783D3WDT,3YWRV122CWFYWXV5K42PO54X1IJU87,5,6
243,2,object_03,object_02,352.89999997616,3,1,325.80000001192,1.0,1,object_05,5,3613,0,9,2,forest_5,2,memory-2step-stake-s,738,3025179,0.0-19.0-0.1-0.243,A3NHBXYOMMJ2W6,3MQKOF1EF54KJDI76AN431783D3WDT,3YWRV122CWFYWXV5K42PO54X1IJU87,3,4
244,4,object_08,object_10,1091.9000000358,7,2,489.59999996424,0.8888888888888888,1,object_05,1,3621,0,8,2,restaurant_2,2,memory-2step-stake-s,739,3033818,0.0-19.0-0.1-0.244,A3NHBXYOMMJ2W6,3MQKOF1EF54KJDI76AN431783D3WDT,3YWRV122CWFYWXV5K42PO54X1IJU87,8,7
245,3,object_01,object_04,253.19999998808,6,1,781.0,0.3333333333333333,2,object_06,5,3636,0,8,3,library_1,2,memory-2step-stake-s,740,3042179,0.0-19.0-0.1-0.245,A3NHBXYOMMJ2W6,3MQKOF1EF54KJDI76AN431783D3WDT,3YWRV122CWFYWXV5K42PO54X1IJU87,6,5
246,1,object_07,object_09,83.700000047684,1,1,400.19999998808,0.5555555555555556,1,object_05,1,3641,0,5,3,desert_3,2,memory-2step-stake-s,741,3050418,0.0-19.0-0.1-0.246,A3NHBXYOMMJ2W6,3MQKOF1EF54KJDI76AN431783D3WDT,3YWRV122CWFYWXV5K42PO54X1IJU87,1,2
247,2,object_03,object_02,757.29999995232,4,2,430.20000004768,0.7777777777777778,2,object_06,5,3676,0,4,7,forest_2,2,memory-2step-stake-s,742,3058851,0.0-19.0-0.1-0.247,A3NHBXYOMMJ2W6,3MQKOF1EF54KJDI76AN431783D3WDT,3YWRV122CWFYWXV5K42PO54X1IJU87,3,4
248,3,object_01,object_04,-1.0,-1,-1,-1.0,0.0,-,0,5,3676,0,5,6,library_2,2,memory-2step-stake-s,743,3065420,0.0-19.0-0.1-0.248,A3NHBXYOMMJ2W6,3MQKOF1EF54KJDI76AN431783D3WDT,3YWRV122CWFYWXV5K42PO54X1IJU87,6,5
249,3,object_04,object_01,288.39999997616,6,2,48.099999964237,0.6666666666666666,2,object_06,5,3706,0,3,6,library_5,2,memory-2step-stake-s,744,3073394,0.0-19.0-0.1-0.249,A3NHBXYOMMJ2W6,3MQKOF1EF54KJDI76AN431783D3WDT,3YWRV122CWFYWXV5K42PO54X1IJU87,5,6
250,1,object_07,object_09,600.10000002384,1,1,-1.0,0.0,1,object_05,5,3706,0,3,7,desert_3,2,memory-2step-stake-s,745,3081985,0.0-19.0-0.1-0.250,A3NHBXYOMMJ2W6,3MQKOF1EF54KJDI76AN431783D3WDT,3YWRV122CWFYWXV5K42PO54X1IJU87,1,2
251,4,object_08,object_10,383.09999996424,8,1,992.09999996424,0.8888888888888888,2,object_06,1,3714,0,2,8,restaurant_4,2,memory-2step-stake-s,746,3091116,0.0-19.0-0.1-0.251,A3NHBXYOMMJ2W6,3MQKOF1EF54KJDI76AN431783D3WDT,3YWRV122CWFYWXV5K42PO54X1IJU87,8,7
252,2,object_02,object_03,-1.0,-1,-1,-1.0,0.0,-,0,5,3714,0,2,8,forest_7,2,memory-2step-stake-s,747,3097676,0.0-19.0-0.1-0.252,A3NHBXYOMMJ2W6,3MQKOF1EF54KJDI76AN431783D3WDT,3YWRV122CWFYWXV5K42PO54X1IJU87,4,3
253,3,object_04,object_01,368.19999998808,6,2,483.69999998808,0.4444444444444444,2,object_06,5,3734,0,2,4,library_6,2,memory-2step-stake-s,748,3105860,0.0-19.0-0.1-0.253,A3NHBXYOMMJ2W6,3MQKOF1EF54KJDI76AN431783D3WDT,3YWRV122CWFYWXV5K42PO54X1IJU87,5,6
254,1,object_09,object_07,274.39999997616,2,1,386.09999996424,0.2222222222222222,2,object_06,5,3744,0,1,2,desert_2,2,memory-2step-stake-s,749,3113730,0.0-19.0-0.1-0.254,A3NHBXYOMMJ2W6,3MQKOF1EF54KJDI76AN431783D3WDT,3YWRV122CWFYWXV5K42PO54X1IJU87,2,1
255,3,object_01,object_04,347.30000001192,5,2,595.79999995232,0.3333333333333333,1,object_05,1,3747,0,3,2,library_1,2,memory-2step-stake-s,750,3121936,0.0-19.0-0.1-0.255,A3NHBXYOMMJ2W6,3MQKOF1EF54KJDI76AN431783D3WDT,3YWRV122CWFYWXV5K42PO54X1IJU87,6,5
