,state1,stim_left,stim_right,rt_1,choice1,response1,rt_2,points,state2,stim_state2,stake,score,practice,rews1,rews2,background,high_arm,trial_type,trial_index,time_elapsed,internal_node_id,subid,hitid,assignmentid,stim_left_num,stim_right_num
0,4,object_09,object_06,612.29999995232,8,2,1444.8000000119,0.4444444444444444,2,object_03,1,4,0,4,4,restaurant_6,2,memory-2step-stake-s,505,1292768,0.0-19.0-0.0-0.0,A2NMLTECRDWFN2,382GHPVPIV7ASJXQ3FB9V025S7G34H,3QILPRALQ9BL17BWN3Q3AAC3TM18N4,7,8
1,1,object_02,object_05,857.69999998808,1,2,1098.1000000238,0.3333333333333333,1,object_04,5,19,0,3,8,desert_4,2,memory-2step-stake-s,506,1301390,0.0-19.0-0.0-0.1,A2NMLTECRDWFN2,382GHPVPIV7ASJXQ3FB9V025S7G34H,3QILPRALQ9BL17BWN3Q3AAC3TM18N4,2,1
2,2,object_08,object_07,676.0,4,1,1391.3000000119,0.6666666666666666,2,object_03,5,49,0,1,6,forest_7,2,memory-2step-stake-s,507,1310608,0.0-19.0-0.0-0.2,A2NMLTECRDWFN2,382GHPVPIV7ASJXQ3FB9V025S7G34H,3QILPRALQ9BL17BWN3Q3AAC3TM18N4,4,3
3,4,object_06,object_09,824.39999997616,7,2,712.0,0.0,1,object_04,1,49,0,0,5,restaurant_1,2,memory-2step-stake-s,508,1318537,0.0-19.0-0.0-0.3,A2NMLTECRDWFN2,382GHPVPIV7ASJXQ3FB9V025S7G34H,3QILPRALQ9BL17BWN3Q3AAC3TM18N4,8,7
4,3,object_10,object_01,767.0,5,1,586.80000001192,0.2222222222222222,1,object_04,1,51,0,2,5,library_7,2,memory-2step-stake-s,509,1326557,0.0-19.0-0.0-0.4,A2NMLTECRDWFN2,382GHPVPIV7ASJXQ3FB9V025S7G34H,3QILPRALQ9BL17BWN3Q3AAC3TM18N4,5,6
5,2,object_08,object_07,974.0,4,1,519.80000001192,0.5555555555555556,2,object_03,1,56,0,2,5,forest_6,2,memory-2step-stake-s,510,1334819,0.0-19.0-0.0-0.5,A2NMLTECRDWFN2,382GHPVPIV7ASJXQ3FB9V025S7G34H,3QILPRALQ9BL17BWN3Q3AAC3TM18N4,4,3
6,4,object_06,object_09,798.19999998808,8,1,714.5,0.2222222222222222,2,object_03,1,58,0,4,2,restaurant_6,2,memory-2step-stake-s,511,1342946,0.0-19.0-0.0-0.6,A2NMLTECRDWFN2,382GHPVPIV7ASJXQ3FB9V025S7G34H,3QILPRALQ9BL17BWN3Q3AAC3TM18N4,8,7
7,1,object_02,object_05,1023.3999999762,2,1,410.90000003576,0.1111111111111111,2,object_03,5,63,0,2,1,desert_8,2,memory-2step-stake-s,512,1350697,0.0-19.0-0.0-0.7,A2NMLTECRDWFN2,382GHPVPIV7ASJXQ3FB9V025S7G34H,3QILPRALQ9BL17BWN3Q3AAC3TM18N4,2,1
8,3,object_10,object_01,681.39999997616,6,2,898.10000002384,0.3333333333333333,2,object_03,5,78,0,1,3,library_7,2,memory-2step-stake-s,513,1359138,0.0-19.0-0.0-0.8,A2NMLTECRDWFN2,382GHPVPIV7ASJXQ3FB9V025S7G34H,3QILPRALQ9BL17BWN3Q3AAC3TM18N4,5,6
9,2,object_07,object_08,-1.0,-1,-1,-1.0,0.0,-,0,5,78,0,2,1,forest_7,2,memory-2step-stake-s,514,1365645,0.0-19.0-0.0-0.9,A2NMLTECRDWFN2,382GHPVPIV7ASJXQ3FB9V025S7G34H,3QILPRALQ9BL17BWN3Q3AAC3TM18N4,3,4
10,4,object_06,object_09,429.30000001192,7,2,-1.0,0.0,1,object_04,1,78,0,3,1,restaurant_7,2,memory-2step-stake-s,515,1374162,0.0-19.0-0.0-0.10,A2NMLTECRDWFN2,382GHPVPIV7ASJXQ3FB9V025S7G34H,3QILPRALQ9BL17BWN3Q3AAC3TM18N4,8,7
11,3,object_10,object_01,382.19999998808,5,1,370.5,0.4444444444444444,1,object_04,1,82,0,4,1,library_2,2,memory-2step-stake-s,516,1382167,0.0-19.0-0.0-0.11,A2NMLTECRDWFN2,382GHPVPIV7ASJXQ3FB9V025S7G34H,3QILPRALQ9BL17BWN3Q3AAC3TM18N4,5,6
12,2,object_08,object_07,354.59999996424,3,2,645.5,0.5555555555555556,1,object_04,5,107,0,5,3,forest_3,2,memory-2step-stake-s,517,1390547,0.0-19.0-0.0-0.12,A2NMLTECRDWFN2,382GHPVPIV7ASJXQ3FB9V025S7G34H,3QILPRALQ9BL17BWN3Q3AAC3TM18N4,4,3
13,3,object_01,object_10,750.89999997616,6,1,150.69999998808,0.1111111111111111,2,object_03,1,108,0,4,1,library_2,2,memory-2step-stake-s,518,1398070,0.0-19.0-0.0-0.13,A2NMLTECRDWFN2,382GHPVPIV7ASJXQ3FB9V025S7G34H,3QILPRALQ9BL17BWN3Q3AAC3TM18N4,6,5
14,2,object_07,object_08,509.29999995232,3,1,408.89999997616,0.2222222222222222,1,object_04,5,118,0,2,1,forest_7,2,memory-2step-stake-s,519,1405902,0.0-19.0-0.0-0.14,A2NMLTECRDWFN2,382GHPVPIV7ASJXQ3FB9V025S7G34H,3QILPRALQ9BL17BWN3Q3AAC3TM18N4,3,4
15,4,object_09,object_06,652.0,7,1,116.10000002384,0.4444444444444444,1,object_04,1,122,0,4,2,restaurant_6,2,memory-2step-stake-s,520,1413646,0.0-19.0-0.0-0.15,A2NMLTECRDWFN2,382GHPVPIV7ASJXQ3FB9V025S7G34H,3QILPRALQ9BL17BWN3Q3AAC3TM18N4,7,8
16,4,object_06,object_09,683.5,7,2,405.39999997616,0.4444444444444444,1,object_04,1,126,0,4,0,restaurant_1,2,memory-2step-stake-s,521,1421672,0.0-19.0-0.0-0.16,A2NMLTECRDWFN2,382GHPVPIV7ASJXQ3FB9V025S7G34H,3QILPRALQ9BL17BWN3Q3AAC3TM18N4,8,7
17,1,object_05,object_02,594.40000003576,1,1,326.09999996424,0.2222222222222222,1,object_04,5,136,0,2,4,desert_8,2,memory-2step-stake-s,522,1429414,0.0-19.0-0.0-0.17,A2NMLTECRDWFN2,382GHPVPIV7ASJXQ3FB9V025S7G34H,3QILPRALQ9BL17BWN3Q3AAC3TM18N4,1,2
18,3,object_10,object_01,645.60000002384,6,2,409.0,0.7777777777777778,2,object_03,1,143,0,5,7,library_8,2,memory-2step-stake-s,523,1437763,0.0-19.0-0.0-0.18,A2NMLTECRDWFN2,382GHPVPIV7ASJXQ3FB9V025S7G34H,3QILPRALQ9BL17BWN3Q3AAC3TM18N4,5,6
19,4,object_09,object_06,671.39999997616,7,1,347.19999998808,0.4444444444444444,1,object_04,1,147,0,4,5,restaurant_6,2,memory-2step-stake-s,524,1445729,0.0-19.0-0.0-0.19,A2NMLTECRDWFN2,382GHPVPIV7ASJXQ3FB9V025S7G34H,3QILPRALQ9BL17BWN3Q3AAC3TM18N4,7,8
20,3,object_01,object_10,744.90000003576,5,2,464.59999996424,0.6666666666666666,1,object_04,5,177,0,6,6,library_2,2,memory-2step-stake-s,525,1454025,0.0-19.0-0.0-0.20,A2NMLTECRDWFN2,382GHPVPIV7ASJXQ3FB9V025S7G34H,3QILPRALQ9BL17BWN3Q3AAC3TM18N4,6,5
21,2,object_07,object_08,530.5,3,1,428.79999995232,0.4444444444444444,1,object_04,5,197,0,4,8,forest_3,2,memory-2step-stake-s,526,1462069,0.0-19.0-0.0-0.21,A2NMLTECRDWFN2,382GHPVPIV7ASJXQ3FB9V025S7G34H,3QILPRALQ9BL17BWN3Q3AAC3TM18N4,3,4
22,3,object_01,object_10,748.89999997616,6,1,687.60000002384,0.5555555555555556,2,object_03,5,222,0,4,5,library_5,2,memory-2step-stake-s,527,1470474,0.0-19.0-0.0-0.22,A2NMLTECRDWFN2,382GHPVPIV7ASJXQ3FB9V025S7G34H,3QILPRALQ9BL17BWN3Q3AAC3TM18N4,6,5
23,4,object_06,object_09,951.39999997616,7,2,635.69999998808,0.1111111111111111,1,object_04,5,227,0,1,5,restaurant_1,2,memory-2step-stake-s,528,1478422,0.0-19.0-0.0-0.23,A2NMLTECRDWFN2,382GHPVPIV7ASJXQ3FB9V025S7G34H,3QILPRALQ9BL17BWN3Q3AAC3TM18N4,8,7
24,3,object_10,object_01,1045.3000000119,5,1,576.0,0.2222222222222222,1,object_04,5,237,0,2,5,library_7,2,memory-2step-stake-s,529,1486420,0.0-19.0-0.0-0.24,A2NMLTECRDWFN2,382GHPVPIV7ASJXQ3FB9V025S7G34H,3QILPRALQ9BL17BWN3Q3AAC3TM18N4,5,6
25,3,object_10,object_01,734.60000002384,6,2,425.89999997616,0.7777777777777778,2,object_03,1,244,0,1,7,library_5,2,memory-2step-stake-s,530,1494768,0.0-19.0-0.0-0.25,A2NMLTECRDWFN2,382GHPVPIV7ASJXQ3FB9V025S7G34H,3QILPRALQ9BL17BWN3Q3AAC3TM18N4,5,6
26,1,object_02,object_05,810.5,2,1,374.60000002384,0.6666666666666666,2,object_03,1,250,0,2,6,desert_5,2,memory-2step-stake-s,531,1502961,0.0-19.0-0.0-0.26,A2NMLTECRDWFN2,382GHPVPIV7ASJXQ3FB9V025S7G34H,3QILPRALQ9BL17BWN3Q3AAC3TM18N4,2,1
27,4,object_06,object_09,760.69999998808,8,1,3.1999999880791,0.7777777777777778,2,object_03,1,257,0,3,7,restaurant_1,2,memory-2step-stake-s,532,1510902,0.0-19.0-0.0-0.27,A2NMLTECRDWFN2,382GHPVPIV7ASJXQ3FB9V025S7G34H,3QILPRALQ9BL17BWN3Q3AAC3TM18N4,8,7
28,1,object_02,object_05,650.80000001192,2,1,428.39999997616,0.4444444444444444,2,object_03,1,261,0,3,4,desert_4,2,memory-2step-stake-s,533,1518963,0.0-19.0-0.0-0.28,A2NMLTECRDWFN2,382GHPVPIV7ASJXQ3FB9V025S7G34H,3QILPRALQ9BL17BWN3Q3AAC3TM18N4,2,1
29,3,object_10,object_01,983.5,6,2,450.89999997616,0.4444444444444444,2,object_03,1,265,0,4,4,library_5,2,memory-2step-stake-s,534,1527032,0.0-19.0-0.0-0.29,A2NMLTECRDWFN2,382GHPVPIV7ASJXQ3FB9V025S7G34H,3QILPRALQ9BL17BWN3Q3AAC3TM18N4,5,6
30,2,object_07,object_08,498.90000003576,3,1,452.90000003576,0.4444444444444444,1,object_04,5,285,0,4,7,forest_6,2,memory-2step-stake-s,535,1535145,0.0-19.0-0.0-0.30,A2NMLTECRDWFN2,382GHPVPIV7ASJXQ3FB9V025S7G34H,3QILPRALQ9BL17BWN3Q3AAC3TM18N4,3,4
31,3,object_01,object_10,740.0,6,1,829.5,0.7777777777777778,2,object_03,5,320,0,5,7,library_2,2,memory-2step-stake-s,536,1543893,0.0-19.0-0.0-0.31,A2NMLTECRDWFN2,382GHPVPIV7ASJXQ3FB9V025S7G34H,3QILPRALQ9BL17BWN3Q3AAC3TM18N4,6,5
32,4,object_06,object_09,564.69999998808,7,2,570.80000001192,0.6666666666666666,1,object_04,1,326,0,6,6,restaurant_7,2,memory-2step-stake-s,537,1552289,0.0-19.0-0.0-0.32,A2NMLTECRDWFN2,382GHPVPIV7ASJXQ3FB9V025S7G34H,3QILPRALQ9BL17BWN3Q3AAC3TM18N4,8,7
33,1,object_05,object_02,697.40000003576,2,2,517.0,0.7777777777777778,2,object_03,5,361,0,7,7,desert_8,2,memory-2step-stake-s,538,1560725,0.0-19.0-0.0-0.33,A2NMLTECRDWFN2,382GHPVPIV7ASJXQ3FB9V025S7G34H,3QILPRALQ9BL17BWN3Q3AAC3TM18N4,1,2
34,2,object_08,object_07,515.60000002384,3,2,1054.9000000358,0.6666666666666666,1,object_04,5,391,0,6,4,forest_8,2,memory-2step-stake-s,539,1569631,0.0-19.0-0.0-0.34,A2NMLTECRDWFN2,382GHPVPIV7ASJXQ3FB9V025S7G34H,3QILPRALQ9BL17BWN3Q3AAC3TM18N4,4,3
35,3,object_01,object_10,896.70000004768,6,1,268.5,0.3333333333333333,2,object_03,1,394,0,6,3,library_8,2,memory-2step-stake-s,540,1577423,0.0-19.0-0.0-0.35,A2NMLTECRDWFN2,382GHPVPIV7ASJXQ3FB9V025S7G34H,3QILPRALQ9BL17BWN3Q3AAC3TM18N4,6,5
36,1,object_02,object_05,522.69999998808,2,1,716.69999998808,0.2222222222222222,2,object_03,5,404,0,3,2,desert_8,2,memory-2step-stake-s,541,1585571,0.0-19.0-0.0-0.36,A2NMLTECRDWFN2,382GHPVPIV7ASJXQ3FB9V025S7G34H,3QILPRALQ9BL17BWN3Q3AAC3TM18N4,2,1
37,2,object_07,object_08,525.60000002384,3,1,560.40000003576,0.4444444444444444,1,object_04,5,424,0,4,1,forest_6,2,memory-2step-stake-s,542,1593758,0.0-19.0-0.0-0.37,A2NMLTECRDWFN2,382GHPVPIV7ASJXQ3FB9V025S7G34H,3QILPRALQ9BL17BWN3Q3AAC3TM18N4,3,4
38,4,object_06,object_09,678.39999997616,8,1,490.40000003576,0.1111111111111111,2,object_03,1,425,0,2,1,restaurant_2,2,memory-2step-stake-s,543,1601567,0.0-19.0-0.0-0.38,A2NMLTECRDWFN2,382GHPVPIV7ASJXQ3FB9V025S7G34H,3QILPRALQ9BL17BWN3Q3AAC3TM18N4,8,7
39,4,object_09,object_06,730.10000002384,7,1,51.800000011921,0.5555555555555556,1,object_04,5,450,0,5,3,restaurant_2,2,memory-2step-stake-s,544,1609342,0.0-19.0-0.0-0.39,A2NMLTECRDWFN2,382GHPVPIV7ASJXQ3FB9V025S7G34H,3QILPRALQ9BL17BWN3Q3AAC3TM18N4,7,8
40,1,object_05,object_02,723.80000001192,2,2,469.79999995232,0.1111111111111111,2,object_03,5,455,0,5,1,desert_2,2,memory-2step-stake-s,545,1617130,0.0-19.0-0.0-0.40,A2NMLTECRDWFN2,382GHPVPIV7ASJXQ3FB9V025S7G34H,3QILPRALQ9BL17BWN3Q3AAC3TM18N4,1,2
41,2,object_08,object_07,543.5,3,2,482.69999998808,0.5555555555555556,1,object_04,5,480,0,5,3,forest_7,2,memory-2step-stake-s,546,1625342,0.0-19.0-0.0-0.41,A2NMLTECRDWFN2,382GHPVPIV7ASJXQ3FB9V025S7G34H,3QILPRALQ9BL17BWN3Q3AAC3TM18N4,4,3
42,1,object_02,object_05,561.39999997616,2,1,622.30000001192,0.2222222222222222,2,object_03,1,482,0,4,2,desert_5,2,memory-2step-stake-s,547,1633392,0.0-19.0-0.0-0.42,A2NMLTECRDWFN2,382GHPVPIV7ASJXQ3FB9V025S7G34H,3QILPRALQ9BL17BWN3Q3AAC3TM18N4,2,1
43,1,object_05,object_02,793.0,1,1,565.20000004768,0.3333333333333333,1,object_04,5,497,0,3,1,desert_4,2,memory-2step-stake-s,548,1641474,0.0-19.0-0.0-0.43,A2NMLTECRDWFN2,382GHPVPIV7ASJXQ3FB9V025S7G34H,3QILPRALQ9BL17BWN3Q3AAC3TM18N4,1,2
44,1,object_05,object_02,687.90000003576,1,1,754.89999997616,0.3333333333333333,1,object_04,1,500,0,3,3,desert_8,2,memory-2step-stake-s,549,1649744,0.0-19.0-0.0-0.44,A2NMLTECRDWFN2,382GHPVPIV7ASJXQ3FB9V025S7G34H,3QILPRALQ9BL17BWN3Q3AAC3TM18N4,1,2
45,2,object_08,object_07,496.5,3,2,436.20000004768,0.1111111111111111,1,object_04,1,501,0,1,5,forest_3,2,memory-2step-stake-s,550,1657497,0.0-19.0-0.0-0.45,A2NMLTECRDWFN2,382GHPVPIV7ASJXQ3FB9V025S7G34H,3QILPRALQ9BL17BWN3Q3AAC3TM18N4,4,3
46,4,object_06,object_09,953.19999998808,7,2,715.69999998808,0.0,1,object_04,1,501,0,0,8,restaurant_7,2,memory-2step-stake-s,551,1665425,0.0-19.0-0.0-0.46,A2NMLTECRDWFN2,382GHPVPIV7ASJXQ3FB9V025S7G34H,3QILPRALQ9BL17BWN3Q3AAC3TM18N4,8,7
47,2,object_07,object_08,560.10000002384,3,1,644.19999998808,0.1111111111111111,1,object_04,5,506,0,1,7,forest_7,2,memory-2step-stake-s,552,1673446,0.0-19.0-0.0-0.47,A2NMLTECRDWFN2,382GHPVPIV7ASJXQ3FB9V025S7G34H,3QILPRALQ9BL17BWN3Q3AAC3TM18N4,3,4
48,2,object_07,object_08,765.10000002384,4,2,887.70000004768,0.3333333333333333,2,object_03,5,521,0,2,3,forest_3,2,memory-2step-stake-s,553,1681902,0.0-19.0-0.0-0.48,A2NMLTECRDWFN2,382GHPVPIV7ASJXQ3FB9V025S7G34H,3QILPRALQ9BL17BWN3Q3AAC3TM18N4,3,4
49,4,object_06,object_09,482.30000001192,8,1,549.10000002384,0.2222222222222222,2,object_03,1,523,0,0,2,restaurant_7,2,memory-2step-stake-s,554,1689881,0.0-19.0-0.0-0.49,A2NMLTECRDWFN2,382GHPVPIV7ASJXQ3FB9V025S7G34H,3QILPRALQ9BL17BWN3Q3AAC3TM18N4,8,7
50,3,object_10,object_01,712.0,5,1,251.30000001192,0.1111111111111111,1,object_04,1,524,0,1,2,library_7,2,memory-2step-stake-s,555,1697457,0.0-19.0-0.0-0.50,A2NMLTECRDWFN2,382GHPVPIV7ASJXQ3FB9V025S7G34H,3QILPRALQ9BL17BWN3Q3AAC3TM18N4,5,6
51,1,object_02,object_05,578.09999996424,2,1,620.59999996424,0.1111111111111111,2,object_03,1,525,0,0,1,desert_8,2,memory-2step-stake-s,556,1705391,0.0-19.0-0.0-0.51,A2NMLTECRDWFN2,382GHPVPIV7ASJXQ3FB9V025S7G34H,3QILPRALQ9BL17BWN3Q3AAC3TM18N4,2,1
52,3,object_10,object_01,954.69999998808,6,2,555.5,0.1111111111111111,2,object_03,1,526,0,0,1,library_8,2,memory-2step-stake-s,557,1713262,0.0-19.0-0.0-0.52,A2NMLTECRDWFN2,382GHPVPIV7ASJXQ3FB9V025S7G34H,3QILPRALQ9BL17BWN3Q3AAC3TM18N4,5,6
53,2,object_08,object_07,979.40000003576,4,1,437.79999995232,0.3333333333333333,2,object_03,5,541,0,1,3,forest_7,2,memory-2step-stake-s,558,1721218,0.0-19.0-0.0-0.53,A2NMLTECRDWFN2,382GHPVPIV7ASJXQ3FB9V025S7G34H,3QILPRALQ9BL17BWN3Q3AAC3TM18N4,4,3
54,4,object_06,object_09,542.39999997616,8,1,633.39999997616,0.1111111111111111,2,object_03,1,542,0,0,1,restaurant_7,2,memory-2step-stake-s,559,1729174,0.0-19.0-0.0-0.54,A2NMLTECRDWFN2,382GHPVPIV7ASJXQ3FB9V025S7G34H,3QILPRALQ9BL17BWN3Q3AAC3TM18N4,8,7
55,2,object_08,object_07,444.0,3,2,421.30000001192,0.5555555555555556,1,object_04,5,567,0,5,1,forest_6,2,memory-2step-stake-s,560,1737342,0.0-19.0-0.0-0.55,A2NMLTECRDWFN2,382GHPVPIV7ASJXQ3FB9V025S7G34H,3QILPRALQ9BL17BWN3Q3AAC3TM18N4,4,3
56,1,object_05,object_02,761.29999995232,1,1,427.60000002384,0.7777777777777778,1,object_04,5,602,0,7,1,desert_8,2,memory-2step-stake-s,561,1745753,0.0-19.0-0.0-0.56,A2NMLTECRDWFN2,382GHPVPIV7ASJXQ3FB9V025S7G34H,3QILPRALQ9BL17BWN3Q3AAC3TM18N4,1,2
57,3,object_10,object_01,1080.8000000119,6,2,666.19999998808,0.3333333333333333,2,object_03,1,605,0,8,3,library_7,2,memory-2step-stake-s,562,1753959,0.0-19.0-0.0-0.57,A2NMLTECRDWFN2,382GHPVPIV7ASJXQ3FB9V025S7G34H,3QILPRALQ9BL17BWN3Q3AAC3TM18N4,5,6
58,3,object_01,object_10,546.20000004768,6,1,526.5,0.4444444444444444,2,object_03,1,609,0,5,4,library_5,2,memory-2step-stake-s,563,1762112,0.0-19.0-0.0-0.58,A2NMLTECRDWFN2,382GHPVPIV7ASJXQ3FB9V025S7G34H,3QILPRALQ9BL17BWN3Q3AAC3TM18N4,6,5
59,3,object_01,object_10,699.5,5,2,531.69999998808,0.3333333333333333,1,object_04,1,612,0,3,3,library_2,2,memory-2step-stake-s,564,1770161,0.0-19.0-0.0-0.59,A2NMLTECRDWFN2,382GHPVPIV7ASJXQ3FB9V025S7G34H,3QILPRALQ9BL17BWN3Q3AAC3TM18N4,6,5
60,2,object_07,object_08,879.30000001192,3,1,555.30000001192,0.3333333333333333,1,object_04,5,627,0,3,1,forest_3,2,memory-2step-stake-s,565,1778247,0.0-19.0-0.0-0.60,A2NMLTECRDWFN2,382GHPVPIV7ASJXQ3FB9V025S7G34H,3QILPRALQ9BL17BWN3Q3AAC3TM18N4,3,4
61,1,object_02,object_05,730.60000002384,1,2,165.80000001192,0.4444444444444444,1,object_04,5,647,0,4,0,desert_5,2,memory-2step-stake-s,566,1786030,0.0-19.0-0.0-0.61,A2NMLTECRDWFN2,382GHPVPIV7ASJXQ3FB9V025S7G34H,3QILPRALQ9BL17BWN3Q3AAC3TM18N4,2,1
62,4,object_09,object_06,765.19999998808,8,2,503.10000002384,0.0,2,object_03,5,647,0,5,0,restaurant_6,2,memory-2step-stake-s,567,1793746,0.0-19.0-0.0-0.62,A2NMLTECRDWFN2,382GHPVPIV7ASJXQ3FB9V025S7G34H,3QILPRALQ9BL17BWN3Q3AAC3TM18N4,7,8
63,3,object_01,object_10,903.19999998808,6,1,147.0,0.0,2,object_03,1,647,0,6,0,library_7,2,memory-2step-stake-s,568,1801117,0.0-19.0-0.0-0.63,A2NMLTECRDWFN2,382GHPVPIV7ASJXQ3FB9V025S7G34H,3QILPRALQ9BL17BWN3Q3AAC3TM18N4,6,5
64,1,object_05,object_02,834.19999998808,1,1,190.90000003576,0.7777777777777778,1,object_04,5,682,0,7,3,desert_5,2,memory-2step-stake-s,569,1809239,0.0-19.0-0.0-0.64,A2NMLTECRDWFN2,382GHPVPIV7ASJXQ3FB9V025S7G34H,3QILPRALQ9BL17BWN3Q3AAC3TM18N4,1,2
65,4,object_09,object_06,898.09999996424,8,2,422.19999998808,0.2222222222222222,2,object_03,1,684,0,8,2,restaurant_6,2,memory-2step-stake-s,570,1817101,0.0-19.0-0.0-0.65,A2NMLTECRDWFN2,382GHPVPIV7ASJXQ3FB9V025S7G34H,3QILPRALQ9BL17BWN3Q3AAC3TM18N4,7,8
66,3,object_01,object_10,525.5,5,2,527.90000003576,0.7777777777777778,1,object_04,1,691,0,7,2,library_8,2,memory-2step-stake-s,571,1825556,0.0-19.0-0.0-0.66,A2NMLTECRDWFN2,382GHPVPIV7ASJXQ3FB9V025S7G34H,3QILPRALQ9BL17BWN3Q3AAC3TM18N4,6,5
67,4,object_09,object_06,709.40000003576,8,2,322.5,0.1111111111111111,2,object_03,1,692,0,8,1,restaurant_2,2,memory-2step-stake-s,572,1833196,0.0-19.0-0.0-0.67,A2NMLTECRDWFN2,382GHPVPIV7ASJXQ3FB9V025S7G34H,3QILPRALQ9BL17BWN3Q3AAC3TM18N4,7,8
68,1,object_05,object_02,646.89999997616,1,1,435.30000001192,0.8888888888888888,1,object_04,5,732,0,8,1,desert_8,2,memory-2step-stake-s,573,1841678,0.0-19.0-0.0-0.68,A2NMLTECRDWFN2,382GHPVPIV7ASJXQ3FB9V025S7G34H,3QILPRALQ9BL17BWN3Q3AAC3TM18N4,1,2
69,4,object_06,object_09,835.69999998808,7,2,463.5,0.8888888888888888,1,object_04,1,740,0,8,3,restaurant_6,2,memory-2step-stake-s,574,1850180,0.0-19.0-0.0-0.69,A2NMLTECRDWFN2,382GHPVPIV7ASJXQ3FB9V025S7G34H,3QILPRALQ9BL17BWN3Q3AAC3TM18N4,8,7
70,1,object_02,object_05,933.60000002384,1,2,507.60000002384,0.6666666666666666,1,object_04,5,770,0,6,3,desert_2,2,memory-2step-stake-s,575,1858558,0.0-19.0-0.0-0.70,A2NMLTECRDWFN2,382GHPVPIV7ASJXQ3FB9V025S7G34H,3QILPRALQ9BL17BWN3Q3AAC3TM18N4,2,1
71,3,object_10,object_01,980.19999998808,6,2,672.70000004768,0.4444444444444444,2,object_03,1,774,0,7,4,library_2,2,memory-2step-stake-s,576,1866849,0.0-19.0-0.0-0.71,A2NMLTECRDWFN2,382GHPVPIV7ASJXQ3FB9V025S7G34H,3QILPRALQ9BL17BWN3Q3AAC3TM18N4,5,6
72,3,object_01,object_10,652.59999996424,6,1,951.89999997616,0.3333333333333333,2,object_03,1,777,0,7,3,library_2,2,memory-2step-stake-s,577,1875323,0.0-19.0-0.0-0.72,A2NMLTECRDWFN2,382GHPVPIV7ASJXQ3FB9V025S7G34H,3QILPRALQ9BL17BWN3Q3AAC3TM18N4,6,5
73,4,object_09,object_06,767.19999998808,8,2,58.300000011921,0.4444444444444444,2,object_03,1,781,0,7,4,restaurant_7,2,memory-2step-stake-s,578,1882996,0.0-19.0-0.0-0.73,A2NMLTECRDWFN2,382GHPVPIV7ASJXQ3FB9V025S7G34H,3QILPRALQ9BL17BWN3Q3AAC3TM18N4,7,8
74,2,object_07,object_08,653.39999997616,3,1,447.0,0.7777777777777778,1,object_04,5,816,0,7,2,forest_8,2,memory-2step-stake-s,579,1891371,0.0-19.0-0.0-0.74,A2NMLTECRDWFN2,382GHPVPIV7ASJXQ3FB9V025S7G34H,3QILPRALQ9BL17BWN3Q3AAC3TM18N4,3,4
75,3,object_10,object_01,694.5,6,2,975.80000001192,0.1111111111111111,2,object_03,1,817,0,6,1,library_5,2,memory-2step-stake-s,580,1899664,0.0-19.0-0.0-0.75,A2NMLTECRDWFN2,382GHPVPIV7ASJXQ3FB9V025S7G34H,3QILPRALQ9BL17BWN3Q3AAC3TM18N4,5,6
76,2,object_08,object_07,792.19999998808,3,2,442.69999998808,0.4444444444444444,1,object_04,5,837,0,4,2,forest_3,2,memory-2step-stake-s,581,1907726,0.0-19.0-0.0-0.76,A2NMLTECRDWFN2,382GHPVPIV7ASJXQ3FB9V025S7G34H,3QILPRALQ9BL17BWN3Q3AAC3TM18N4,4,3
77,3,object_10,object_01,996.09999996424,6,2,609.5,0.1111111111111111,2,object_03,1,838,0,2,1,library_2,2,memory-2step-stake-s,582,1915659,0.0-19.0-0.0-0.77,A2NMLTECRDWFN2,382GHPVPIV7ASJXQ3FB9V025S7G34H,3QILPRALQ9BL17BWN3Q3AAC3TM18N4,5,6
78,4,object_09,object_06,807.19999998808,7,1,1091.6999999881,0.3333333333333333,1,object_04,1,841,0,3,4,restaurant_7,2,memory-2step-stake-s,583,1924273,0.0-19.0-0.0-0.78,A2NMLTECRDWFN2,382GHPVPIV7ASJXQ3FB9V025S7G34H,3QILPRALQ9BL17BWN3Q3AAC3TM18N4,7,8
79,3,object_01,object_10,728.59999996424,5,2,892.10000002384,0.3333333333333333,1,object_04,1,844,0,3,0,library_7,2,memory-2step-stake-s,584,1932693,0.0-19.0-0.0-0.79,A2NMLTECRDWFN2,382GHPVPIV7ASJXQ3FB9V025S7G34H,3QILPRALQ9BL17BWN3Q3AAC3TM18N4,6,5
80,2,object_08,object_07,676.80000001192,3,2,608.30000001192,0.2222222222222222,1,object_04,5,854,0,2,2,forest_6,2,memory-2step-stake-s,585,1940729,0.0-19.0-0.0-0.80,A2NMLTECRDWFN2,382GHPVPIV7ASJXQ3FB9V025S7G34H,3QILPRALQ9BL17BWN3Q3AAC3TM18N4,4,3
81,4,object_06,object_09,660.30000001192,8,1,393.0,0.2222222222222222,2,object_03,1,856,0,4,2,restaurant_2,2,memory-2step-stake-s,586,1948566,0.0-19.0-0.0-0.81,A2NMLTECRDWFN2,382GHPVPIV7ASJXQ3FB9V025S7G34H,3QILPRALQ9BL17BWN3Q3AAC3TM18N4,8,7
82,2,object_08,object_07,508.70000004768,3,2,551.70000004768,0.1111111111111111,1,object_04,5,861,0,1,0,forest_3,2,memory-2step-stake-s,587,1956430,0.0-19.0-0.0-0.82,A2NMLTECRDWFN2,382GHPVPIV7ASJXQ3FB9V025S7G34H,3QILPRALQ9BL17BWN3Q3AAC3TM18N4,4,3
83,1,object_05,object_02,986.0,1,1,445.69999998808,0.1111111111111111,1,object_04,5,866,0,1,1,desert_5,2,memory-2step-stake-s,588,1964190,0.0-19.0-0.0-0.83,A2NMLTECRDWFN2,382GHPVPIV7ASJXQ3FB9V025S7G34H,3QILPRALQ9BL17BWN3Q3AAC3TM18N4,1,2
84,2,object_08,object_07,450.29999995232,3,2,405.80000001192,0.5555555555555556,1,object_04,5,891,0,5,2,forest_7,2,memory-2step-stake-s,589,1972313,0.0-19.0-0.0-0.84,A2NMLTECRDWFN2,382GHPVPIV7ASJXQ3FB9V025S7G34H,3QILPRALQ9BL17BWN3Q3AAC3TM18N4,4,3
85,3,object_10,object_01,691.90000003576,5,1,367.40000003576,0.6666666666666666,1,object_04,1,897,0,6,3,library_7,2,memory-2step-stake-s,590,1980514,0.0-19.0-0.0-0.85,A2NMLTECRDWFN2,382GHPVPIV7ASJXQ3FB9V025S7G34H,3QILPRALQ9BL17BWN3Q3AAC3TM18N4,5,6
86,3,object_10,object_01,656.60000002384,6,2,715.5,0.2222222222222222,2,object_03,1,899,0,8,2,library_8,2,memory-2step-stake-s,591,1988671,0.0-19.0-0.0-0.86,A2NMLTECRDWFN2,382GHPVPIV7ASJXQ3FB9V025S7G34H,3QILPRALQ9BL17BWN3Q3AAC3TM18N4,5,6
87,4,object_09,object_06,962.10000002384,7,1,431.39999997616,0.8888888888888888,1,object_04,1,907,0,8,5,restaurant_2,2,memory-2step-stake-s,592,1997140,0.0-19.0-0.0-0.87,A2NMLTECRDWFN2,382GHPVPIV7ASJXQ3FB9V025S7G34H,3QILPRALQ9BL17BWN3Q3AAC3TM18N4,7,8
88,2,object_07,object_08,715.59999996424,4,2,831.69999998808,0.4444444444444444,2,object_03,5,927,0,8,4,forest_6,2,memory-2step-stake-s,593,2005593,0.0-19.0-0.0-0.88,A2NMLTECRDWFN2,382GHPVPIV7ASJXQ3FB9V025S7G34H,3QILPRALQ9BL17BWN3Q3AAC3TM18N4,3,4
89,1,object_02,object_05,578.0,2,1,676.30000001192,0.4444444444444444,2,object_03,5,947,0,9,4,desert_8,2,memory-2step-stake-s,594,2013891,0.0-19.0-0.0-0.89,A2NMLTECRDWFN2,382GHPVPIV7ASJXQ3FB9V025S7G34H,3QILPRALQ9BL17BWN3Q3AAC3TM18N4,2,1
90,3,object_01,object_10,1245.8000000119,5,2,523.5,1.0,1,object_04,1,956,0,9,3,library_7,2,memory-2step-stake-s,595,2022548,0.0-19.0-0.0-0.90,A2NMLTECRDWFN2,382GHPVPIV7ASJXQ3FB9V025S7G34H,3QILPRALQ9BL17BWN3Q3AAC3TM18N4,6,5
91,1,object_02,object_05,735.10000002384,1,2,618.60000002384,1.0,1,object_04,5,1001,0,9,4,desert_4,2,memory-2step-stake-s,596,2031296,0.0-19.0-0.0-0.91,A2NMLTECRDWFN2,382GHPVPIV7ASJXQ3FB9V025S7G34H,3QILPRALQ9BL17BWN3Q3AAC3TM18N4,2,1
92,2,object_07,object_08,585.69999998808,3,1,487.30000001192,1.0,1,object_04,5,1046,0,9,4,forest_7,2,memory-2step-stake-s,597,2039926,0.0-19.0-0.0-0.92,A2NMLTECRDWFN2,382GHPVPIV7ASJXQ3FB9V025S7G34H,3QILPRALQ9BL17BWN3Q3AAC3TM18N4,3,4
93,2,object_07,object_08,612.59999996424,3,1,351.60000002384,0.5555555555555556,1,object_04,5,1071,0,5,5,forest_6,2,memory-2step-stake-s,598,2047995,0.0-19.0-0.0-0.93,A2NMLTECRDWFN2,382GHPVPIV7ASJXQ3FB9V025S7G34H,3QILPRALQ9BL17BWN3Q3AAC3TM18N4,3,4
94,1,object_02,object_05,931.0,2,1,555.30000001192,0.8888888888888888,2,object_03,1,1079,0,3,8,desert_5,2,memory-2step-stake-s,599,2056593,0.0-19.0-0.0-0.94,A2NMLTECRDWFN2,382GHPVPIV7ASJXQ3FB9V025S7G34H,3QILPRALQ9BL17BWN3Q3AAC3TM18N4,2,1
95,2,object_07,object_08,561.0,3,1,844.09999996424,0.4444444444444444,1,object_04,5,1099,0,4,7,forest_8,2,memory-2step-stake-s,600,2065065,0.0-19.0-0.0-0.95,A2NMLTECRDWFN2,382GHPVPIV7ASJXQ3FB9V025S7G34H,3QILPRALQ9BL17BWN3Q3AAC3TM18N4,3,4
96,3,object_10,object_01,1046.0,5,1,449.39999997616,0.5555555555555556,1,object_04,1,1104,0,5,8,library_2,2,memory-2step-stake-s,601,2073240,0.0-19.0-0.0-0.96,A2NMLTECRDWFN2,382GHPVPIV7ASJXQ3FB9V025S7G34H,3QILPRALQ9BL17BWN3Q3AAC3TM18N4,5,6
97,1,object_05,object_02,1016.8999999762,2,2,803.70000004768,0.7777777777777778,2,object_03,5,1139,0,4,7,desert_5,2,memory-2step-stake-s,602,2081987,0.0-19.0-0.0-0.97,A2NMLTECRDWFN2,382GHPVPIV7ASJXQ3FB9V025S7G34H,3QILPRALQ9BL17BWN3Q3AAC3TM18N4,1,2
98,2,object_07,object_08,804.69999998808,3,1,889.5,0.5555555555555556,1,object_04,5,1164,0,5,6,forest_3,2,memory-2step-stake-s,603,2090605,0.0-19.0-0.0-0.98,A2NMLTECRDWFN2,382GHPVPIV7ASJXQ3FB9V025S7G34H,3QILPRALQ9BL17BWN3Q3AAC3TM18N4,3,4
99,4,object_09,object_06,900.90000003576,7,1,814.39999997616,0.2222222222222222,1,object_04,1,1166,0,2,5,restaurant_1,2,memory-2step-stake-s,604,2098843,0.0-19.0-0.0-0.99,A2NMLTECRDWFN2,382GHPVPIV7ASJXQ3FB9V025S7G34H,3QILPRALQ9BL17BWN3Q3AAC3TM18N4,7,8
100,4,object_09,object_06,654.29999995232,7,1,42.099999964237,0.3333333333333333,1,object_04,1,1169,0,3,6,restaurant_2,2,memory-2step-stake-s,605,2106423,0.0-19.0-0.0-0.100,A2NMLTECRDWFN2,382GHPVPIV7ASJXQ3FB9V025S7G34H,3QILPRALQ9BL17BWN3Q3AAC3TM18N4,7,8
101,2,object_07,object_08,642.29999995232,3,1,373.0,0.4444444444444444,1,object_04,5,1189,0,4,5,forest_7,2,memory-2step-stake-s,606,2114467,0.0-19.0-0.0-0.101,A2NMLTECRDWFN2,382GHPVPIV7ASJXQ3FB9V025S7G34H,3QILPRALQ9BL17BWN3Q3AAC3TM18N4,3,4
102,4,object_09,object_06,861.40000003576,7,1,345.40000003576,0.5555555555555556,1,object_04,1,1194,0,5,4,restaurant_1,2,memory-2step-stake-s,607,2122543,0.0-19.0-0.0-0.102,A2NMLTECRDWFN2,382GHPVPIV7ASJXQ3FB9V025S7G34H,3QILPRALQ9BL17BWN3Q3AAC3TM18N4,7,8
103,3,object_01,object_10,938.29999995232,5,2,525.29999995232,0.4444444444444444,1,object_04,1,1198,0,4,2,library_8,2,memory-2step-stake-s,608,2130686,0.0-19.0-0.0-0.103,A2NMLTECRDWFN2,382GHPVPIV7ASJXQ3FB9V025S7G34H,3QILPRALQ9BL17BWN3Q3AAC3TM18N4,6,5
104,1,object_02,object_05,1227.0,1,2,500.30000001192,0.3333333333333333,1,object_04,5,1213,0,3,5,desert_4,2,memory-2step-stake-s,609,2138706,0.0-19.0-0.0-0.104,A2NMLTECRDWFN2,382GHPVPIV7ASJXQ3FB9V025S7G34H,3QILPRALQ9BL17BWN3Q3AAC3TM18N4,2,1
105,2,object_08,object_07,496.5,3,2,843.10000002384,0.3333333333333333,1,object_04,5,1228,0,3,5,forest_8,2,memory-2step-stake-s,610,2147064,0.0-19.0-0.0-0.105,A2NMLTECRDWFN2,382GHPVPIV7ASJXQ3FB9V025S7G34H,3QILPRALQ9BL17BWN3Q3AAC3TM18N4,4,3
106,2,object_07,object_08,297.29999995232,3,1,477.69999998808,0.4444444444444444,1,object_04,5,1248,0,4,2,forest_3,2,memory-2step-stake-s,611,2155165,0.0-19.0-0.0-0.106,A2NMLTECRDWFN2,382GHPVPIV7ASJXQ3FB9V025S7G34H,3QILPRALQ9BL17BWN3Q3AAC3TM18N4,3,4
107,3,object_01,object_10,644.89999997616,5,2,441.59999996424,0.7777777777777778,1,object_04,1,1255,0,7,0,library_5,2,memory-2step-stake-s,612,2163534,0.0-19.0-0.0-0.107,A2NMLTECRDWFN2,382GHPVPIV7ASJXQ3FB9V025S7G34H,3QILPRALQ9BL17BWN3Q3AAC3TM18N4,6,5
108,4,object_09,object_06,1023.3000000119,8,2,771.19999998808,0.0,2,object_03,5,1255,0,7,0,restaurant_1,2,memory-2step-stake-s,613,2171529,0.0-19.0-0.0-0.108,A2NMLTECRDWFN2,382GHPVPIV7ASJXQ3FB9V025S7G34H,3QILPRALQ9BL17BWN3Q3AAC3TM18N4,7,8
109,1,object_05,object_02,469.89999997616,1,1,496.69999998808,0.6666666666666666,1,object_04,1,1261,0,6,4,desert_2,2,memory-2step-stake-s,614,2179911,0.0-19.0-0.0-0.109,A2NMLTECRDWFN2,382GHPVPIV7ASJXQ3FB9V025S7G34H,3QILPRALQ9BL17BWN3Q3AAC3TM18N4,1,2
110,2,object_08,object_07,635.09999996424,4,1,453.30000001192,0.0,2,object_03,5,1261,0,4,0,forest_7,2,memory-2step-stake-s,615,2187576,0.0-19.0-0.0-0.110,A2NMLTECRDWFN2,382GHPVPIV7ASJXQ3FB9V025S7G34H,3QILPRALQ9BL17BWN3Q3AAC3TM18N4,4,3
111,1,object_02,object_05,449.60000002384,2,1,813.39999997616,0.2222222222222222,2,object_03,5,1271,0,7,2,desert_5,2,memory-2step-stake-s,616,2195821,0.0-19.0-0.0-0.111,A2NMLTECRDWFN2,382GHPVPIV7ASJXQ3FB9V025S7G34H,3QILPRALQ9BL17BWN3Q3AAC3TM18N4,2,1
112,1,object_02,object_05,626.90000003576,1,2,335.19999998808,0.8888888888888888,1,object_04,1,1279,0,8,1,desert_4,2,memory-2step-stake-s,617,2204186,0.0-19.0-0.0-0.112,A2NMLTECRDWFN2,382GHPVPIV7ASJXQ3FB9V025S7G34H,3QILPRALQ9BL17BWN3Q3AAC3TM18N4,2,1
113,1,object_02,object_05,819.0,2,1,528.89999997616,0.0,2,object_03,5,1279,0,6,0,desert_5,2,memory-2step-stake-s,618,2211940,0.0-19.0-0.0-0.113,A2NMLTECRDWFN2,382GHPVPIV7ASJXQ3FB9V025S7G34H,3QILPRALQ9BL17BWN3Q3AAC3TM18N4,2,1
114,2,object_07,object_08,677.19999998808,3,1,-1.0,0.0,1,object_04,1,1279,0,6,2,forest_3,2,memory-2step-stake-s,619,2220455,0.0-19.0-0.0-0.114,A2NMLTECRDWFN2,382GHPVPIV7ASJXQ3FB9V025S7G34H,3QILPRALQ9BL17BWN3Q3AAC3TM18N4,3,4
115,2,object_08,object_07,483.70000004768,3,2,413.69999998808,0.5555555555555556,1,object_04,5,1304,0,5,0,forest_7,2,memory-2step-stake-s,620,2228609,0.0-19.0-0.0-0.115,A2NMLTECRDWFN2,382GHPVPIV7ASJXQ3FB9V025S7G34H,3QILPRALQ9BL17BWN3Q3AAC3TM18N4,4,3
116,2,object_07,object_08,568.5,3,1,290.60000002384,0.1111111111111111,1,object_04,5,1309,0,1,3,forest_6,2,memory-2step-stake-s,621,2236214,0.0-19.0-0.0-0.116,A2NMLTECRDWFN2,382GHPVPIV7ASJXQ3FB9V025S7G34H,3QILPRALQ9BL17BWN3Q3AAC3TM18N4,3,4
117,4,object_09,object_06,547.29999995232,7,1,246.90000003576,0.0,1,object_04,1,1309,0,0,1,restaurant_1,2,memory-2step-stake-s,622,2243673,0.0-19.0-0.0-0.117,A2NMLTECRDWFN2,382GHPVPIV7ASJXQ3FB9V025S7G34H,3QILPRALQ9BL17BWN3Q3AAC3TM18N4,7,8
118,3,object_01,object_10,463.39999997616,5,2,202.89999997616,0.3333333333333333,1,object_04,1,1312,0,3,1,library_5,2,memory-2step-stake-s,623,2251390,0.0-19.0-0.0-0.118,A2NMLTECRDWFN2,382GHPVPIV7ASJXQ3FB9V025S7G34H,3QILPRALQ9BL17BWN3Q3AAC3TM18N4,6,5
119,3,object_10,object_01,585.09999996424,5,1,99.399999976158,0.1111111111111111,1,object_04,1,1313,0,1,3,library_5,2,memory-2step-stake-s,624,2258806,0.0-19.0-0.0-0.119,A2NMLTECRDWFN2,382GHPVPIV7ASJXQ3FB9V025S7G34H,3QILPRALQ9BL17BWN3Q3AAC3TM18N4,5,6
120,1,object_05,object_02,642.5,2,2,646.0,0.5555555555555556,2,object_03,5,1338,0,4,5,desert_5,2,memory-2step-stake-s,625,2267184,0.0-19.0-0.0-0.120,A2NMLTECRDWFN2,382GHPVPIV7ASJXQ3FB9V025S7G34H,3QILPRALQ9BL17BWN3Q3AAC3TM18N4,1,2
121,4,object_06,object_09,831.80000001192,8,1,578.30000001192,0.4444444444444444,2,object_03,1,1342,0,6,4,restaurant_7,2,memory-2step-stake-s,626,2275380,0.0-19.0-0.0-0.121,A2NMLTECRDWFN2,382GHPVPIV7ASJXQ3FB9V025S7G34H,3QILPRALQ9BL17BWN3Q3AAC3TM18N4,8,7
122,4,object_06,object_09,779.60000002384,7,2,623.0,0.7777777777777778,1,object_04,1,1349,0,7,0,restaurant_7,2,memory-2step-stake-s,627,2283934,0.0-19.0-0.0-0.122,A2NMLTECRDWFN2,382GHPVPIV7ASJXQ3FB9V025S7G34H,3QILPRALQ9BL17BWN3Q3AAC3TM18N4,8,7
123,4,object_06,object_09,777.69999998808,8,1,300.0,0.2222222222222222,2,object_03,5,1359,0,7,2,restaurant_1,2,memory-2step-stake-s,628,2291680,0.0-19.0-0.0-0.123,A2NMLTECRDWFN2,382GHPVPIV7ASJXQ3FB9V025S7G34H,3QILPRALQ9BL17BWN3Q3AAC3TM18N4,8,7
124,2,object_07,object_08,688.89999997616,3,1,572.69999998808,0.2222222222222222,1,object_04,1,1361,0,2,1,forest_3,2,memory-2step-stake-s,629,2299684,0.0-19.0-0.0-0.124,A2NMLTECRDWFN2,382GHPVPIV7ASJXQ3FB9V025S7G34H,3QILPRALQ9BL17BWN3Q3AAC3TM18N4,3,4
125,1,object_02,object_05,581.29999995232,1,2,467.0,0.5555555555555556,1,object_04,5,1386,0,5,0,desert_2,2,memory-2step-stake-s,630,2307883,0.0-19.0-0.0-0.125,A2NMLTECRDWFN2,382GHPVPIV7ASJXQ3FB9V025S7G34H,3QILPRALQ9BL17BWN3Q3AAC3TM18N4,2,1
126,4,object_06,object_09,1011.5,8,1,47.100000023842,0.0,2,object_03,1,1386,0,6,0,restaurant_6,2,memory-2step-stake-s,631,2315146,0.0-19.0-0.0-0.126,A2NMLTECRDWFN2,382GHPVPIV7ASJXQ3FB9V025S7G34H,3QILPRALQ9BL17BWN3Q3AAC3TM18N4,8,7
127,4,object_09,object_06,671.90000003576,7,1,331.40000003576,0.5555555555555556,1,object_04,1,1391,0,5,3,restaurant_1,2,memory-2step-stake-s,632,2323195,0.0-19.0-0.0-0.127,A2NMLTECRDWFN2,382GHPVPIV7ASJXQ3FB9V025S7G34H,3QILPRALQ9BL17BWN3Q3AAC3TM18N4,7,8
128,1,object_05,object_02,1062.4000000358,2,2,535.5,0.5555555555555556,2,object_03,5,1416,0,4,5,desert_2,2,memory-2step-stake-s,634,2334580,0.0-19.0-0.1-0.128,A2NMLTECRDWFN2,382GHPVPIV7ASJXQ3FB9V025S7G34H,3QILPRALQ9BL17BWN3Q3AAC3TM18N4,1,2
129,3,object_01,object_10,445.5,6,1,113.20000004768,0.6666666666666666,2,object_03,1,1422,0,4,6,library_5,2,memory-2step-stake-s,635,2342531,0.0-19.0-0.1-0.129,A2NMLTECRDWFN2,382GHPVPIV7ASJXQ3FB9V025S7G34H,3QILPRALQ9BL17BWN3Q3AAC3TM18N4,6,5
130,4,object_09,object_06,623.30000001192,7,1,354.69999998808,0.3333333333333333,1,object_04,5,1437,0,3,5,restaurant_2,2,memory-2step-stake-s,636,2350401,0.0-19.0-0.1-0.130,A2NMLTECRDWFN2,382GHPVPIV7ASJXQ3FB9V025S7G34H,3QILPRALQ9BL17BWN3Q3AAC3TM18N4,7,8
131,2,object_08,object_07,575.40000003576,3,2,456.59999996424,0.4444444444444444,1,object_04,5,1457,0,4,1,forest_7,2,memory-2step-stake-s,637,2358475,0.0-19.0-0.1-0.131,A2NMLTECRDWFN2,382GHPVPIV7ASJXQ3FB9V025S7G34H,3QILPRALQ9BL17BWN3Q3AAC3TM18N4,4,3
132,4,object_06,object_09,797.30000001192,7,2,521.80000001192,0.5555555555555556,1,object_04,1,1462,0,5,2,restaurant_6,2,memory-2step-stake-s,638,2366714,0.0-19.0-0.1-0.132,A2NMLTECRDWFN2,382GHPVPIV7ASJXQ3FB9V025S7G34H,3QILPRALQ9BL17BWN3Q3AAC3TM18N4,8,7
133,3,object_01,object_10,805.80000001192,6,1,104.60000002384,0.4444444444444444,2,object_03,5,1482,0,5,4,library_8,2,memory-2step-stake-s,639,2374436,0.0-19.0-0.1-0.133,A2NMLTECRDWFN2,382GHPVPIV7ASJXQ3FB9V025S7G34H,3QILPRALQ9BL17BWN3Q3AAC3TM18N4,6,5
134,1,object_02,object_05,444.69999998808,2,1,471.0,0.4444444444444444,2,object_03,5,1502,0,4,4,desert_8,2,memory-2step-stake-s,640,2382544,0.0-19.0-0.1-0.134,A2NMLTECRDWFN2,382GHPVPIV7ASJXQ3FB9V025S7G34H,3QILPRALQ9BL17BWN3Q3AAC3TM18N4,2,1
135,1,object_02,object_05,537.0,2,1,340.5,0.6666666666666666,2,object_03,5,1532,0,5,6,desert_4,2,memory-2step-stake-s,641,2390704,0.0-19.0-0.1-0.135,A2NMLTECRDWFN2,382GHPVPIV7ASJXQ3FB9V025S7G34H,3QILPRALQ9BL17BWN3Q3AAC3TM18N4,2,1
136,1,object_02,object_05,663.39999997616,2,1,731.19999998808,0.6666666666666666,2,object_03,5,1562,0,4,6,desert_2,2,memory-2step-stake-s,642,2399255,0.0-19.0-0.1-0.136,A2NMLTECRDWFN2,382GHPVPIV7ASJXQ3FB9V025S7G34H,3QILPRALQ9BL17BWN3Q3AAC3TM18N4,2,1
137,1,object_02,object_05,610.40000003576,2,1,454.80000001192,0.3333333333333333,2,object_03,5,1577,0,2,3,desert_8,2,memory-2step-stake-s,643,2407225,0.0-19.0-0.1-0.137,A2NMLTECRDWFN2,382GHPVPIV7ASJXQ3FB9V025S7G34H,3QILPRALQ9BL17BWN3Q3AAC3TM18N4,2,1
138,2,object_07,object_08,518.80000001192,3,1,714.10000002384,0.3333333333333333,1,object_04,5,1592,0,3,2,forest_8,2,memory-2step-stake-s,644,2415466,0.0-19.0-0.1-0.138,A2NMLTECRDWFN2,382GHPVPIV7ASJXQ3FB9V025S7G34H,3QILPRALQ9BL17BWN3Q3AAC3TM18N4,3,4
139,2,object_08,object_07,690.10000002384,3,2,883.80000001192,0.3333333333333333,1,object_04,5,1607,0,3,3,forest_7,2,memory-2step-stake-s,645,2423887,0.0-19.0-0.1-0.139,A2NMLTECRDWFN2,382GHPVPIV7ASJXQ3FB9V025S7G34H,3QILPRALQ9BL17BWN3Q3AAC3TM18N4,4,3
140,4,object_06,object_09,1011.3999999762,7,2,765.0,0.8888888888888888,1,object_04,5,1647,0,8,1,restaurant_7,2,memory-2step-stake-s,646,2432682,0.0-19.0-0.1-0.140,A2NMLTECRDWFN2,382GHPVPIV7ASJXQ3FB9V025S7G34H,3QILPRALQ9BL17BWN3Q3AAC3TM18N4,8,7
141,1,object_02,object_05,412.89999997616,2,1,570.40000003576,0.0,2,object_03,5,1647,0,8,0,desert_4,2,memory-2step-stake-s,647,2440471,0.0-19.0-0.1-0.141,A2NMLTECRDWFN2,382GHPVPIV7ASJXQ3FB9V025S7G34H,3QILPRALQ9BL17BWN3Q3AAC3TM18N4,2,1
142,4,object_09,object_06,649.0,7,1,60.5,0.8888888888888888,1,object_04,1,1655,0,8,2,restaurant_6,2,memory-2step-stake-s,648,2448555,0.0-19.0-0.1-0.142,A2NMLTECRDWFN2,382GHPVPIV7ASJXQ3FB9V025S7G34H,3QILPRALQ9BL17BWN3Q3AAC3TM18N4,7,8
143,2,object_08,object_07,413.60000002384,3,2,772.30000001192,0.8888888888888888,1,object_04,1,1663,0,8,2,forest_7,2,memory-2step-stake-s,649,2457351,0.0-19.0-0.1-0.143,A2NMLTECRDWFN2,382GHPVPIV7ASJXQ3FB9V025S7G34H,3QILPRALQ9BL17BWN3Q3AAC3TM18N4,4,3
144,1,object_02,object_05,543.5,2,1,292.29999995232,0.7777777777777778,2,object_03,5,1698,0,7,7,desert_4,2,memory-2step-stake-s,650,2465599,0.0-19.0-0.1-0.144,A2NMLTECRDWFN2,382GHPVPIV7ASJXQ3FB9V025S7G34H,3QILPRALQ9BL17BWN3Q3AAC3TM18N4,2,1
145,3,object_10,object_01,838.79999995232,6,2,505.80000001192,0.6666666666666666,2,object_03,1,1704,0,7,6,library_2,2,memory-2step-stake-s,651,2473944,0.0-19.0-0.1-0.145,A2NMLTECRDWFN2,382GHPVPIV7ASJXQ3FB9V025S7G34H,3QILPRALQ9BL17BWN3Q3AAC3TM18N4,5,6
146,2,object_08,object_07,473.30000001192,3,2,707.90000003576,0.8888888888888888,1,object_04,5,1744,0,8,7,forest_7,2,memory-2step-stake-s,652,2482674,0.0-19.0-0.1-0.146,A2NMLTECRDWFN2,382GHPVPIV7ASJXQ3FB9V025S7G34H,3QILPRALQ9BL17BWN3Q3AAC3TM18N4,4,3
147,3,object_01,object_10,1133.7999999523,6,1,553.10000002384,1.0,2,object_03,5,1789,0,8,9,library_7,2,memory-2step-stake-s,653,2491355,0.0-19.0-0.1-0.147,A2NMLTECRDWFN2,382GHPVPIV7ASJXQ3FB9V025S7G34H,3QILPRALQ9BL17BWN3Q3AAC3TM18N4,6,5
148,3,object_10,object_01,397.0,6,2,552.09999996424,0.7777777777777778,2,object_03,1,1796,0,9,7,library_8,2,memory-2step-stake-s,654,2499907,0.0-19.0-0.1-0.148,A2NMLTECRDWFN2,382GHPVPIV7ASJXQ3FB9V025S7G34H,3QILPRALQ9BL17BWN3Q3AAC3TM18N4,5,6
149,3,object_01,object_10,405.09999996424,6,1,625.09999996424,0.7777777777777778,2,object_03,1,1803,0,4,7,library_8,2,memory-2step-stake-s,655,2508451,0.0-19.0-0.1-0.149,A2NMLTECRDWFN2,382GHPVPIV7ASJXQ3FB9V025S7G34H,3QILPRALQ9BL17BWN3Q3AAC3TM18N4,6,5
150,1,object_02,object_05,602.5,2,1,269.69999998808,0.8888888888888888,2,object_03,1,1811,0,6,8,desert_4,2,memory-2step-stake-s,656,2516774,0.0-19.0-0.1-0.150,A2NMLTECRDWFN2,382GHPVPIV7ASJXQ3FB9V025S7G34H,3QILPRALQ9BL17BWN3Q3AAC3TM18N4,2,1
151,3,object_10,object_01,504.89999997616,6,2,556.70000004768,0.4444444444444444,2,object_03,1,1815,0,8,4,library_5,2,memory-2step-stake-s,657,2524952,0.0-19.0-0.1-0.151,A2NMLTECRDWFN2,382GHPVPIV7ASJXQ3FB9V025S7G34H,3QILPRALQ9BL17BWN3Q3AAC3TM18N4,5,6
152,4,object_06,object_09,769.59999996424,7,2,700.60000002384,0.8888888888888888,1,object_04,1,1823,0,8,3,restaurant_2,2,memory-2step-stake-s,658,2533696,0.0-19.0-0.1-0.152,A2NMLTECRDWFN2,382GHPVPIV7ASJXQ3FB9V025S7G34H,3QILPRALQ9BL17BWN3Q3AAC3TM18N4,8,7
153,3,object_01,object_10,441.39999997616,6,1,837.30000001192,0.1111111111111111,2,object_03,1,1824,0,5,1,library_7,2,memory-2step-stake-s,659,2541846,0.0-19.0-0.1-0.153,A2NMLTECRDWFN2,382GHPVPIV7ASJXQ3FB9V025S7G34H,3QILPRALQ9BL17BWN3Q3AAC3TM18N4,6,5
154,1,object_05,object_02,483.10000002384,2,2,414.89999997616,0.1111111111111111,2,object_03,5,1829,0,3,1,desert_4,2,memory-2step-stake-s,660,2549579,0.0-19.0-0.1-0.154,A2NMLTECRDWFN2,382GHPVPIV7ASJXQ3FB9V025S7G34H,3QILPRALQ9BL17BWN3Q3AAC3TM18N4,1,2
155,1,object_02,object_05,455.10000002384,2,1,802.79999995232,0.2222222222222222,2,object_03,5,1839,0,4,2,desert_4,2,memory-2step-stake-s,661,2557794,0.0-19.0-0.1-0.155,A2NMLTECRDWFN2,382GHPVPIV7ASJXQ3FB9V025S7G34H,3QILPRALQ9BL17BWN3Q3AAC3TM18N4,2,1
156,1,object_05,object_02,469.5,2,2,727.60000002384,0.2222222222222222,2,object_03,5,1849,0,7,2,desert_2,2,memory-2step-stake-s,662,2565938,0.0-19.0-0.1-0.156,A2NMLTECRDWFN2,382GHPVPIV7ASJXQ3FB9V025S7G34H,3QILPRALQ9BL17BWN3Q3AAC3TM18N4,1,2
157,1,object_02,object_05,645.59999996424,2,1,757.69999998808,0.2222222222222222,2,object_03,5,1859,0,9,2,desert_5,2,memory-2step-stake-s,663,2574125,0.0-19.0-0.1-0.157,A2NMLTECRDWFN2,382GHPVPIV7ASJXQ3FB9V025S7G34H,3QILPRALQ9BL17BWN3Q3AAC3TM18N4,2,1
158,4,object_06,object_09,547.5,7,2,270.30000001192,0.8888888888888888,1,object_04,5,1899,0,8,1,restaurant_1,2,memory-2step-stake-s,664,2582439,0.0-19.0-0.1-0.158,A2NMLTECRDWFN2,382GHPVPIV7ASJXQ3FB9V025S7G34H,3QILPRALQ9BL17BWN3Q3AAC3TM18N4,8,7
159,1,object_05,object_02,449.69999998808,2,2,341.89999997616,0.1111111111111111,2,object_03,5,1904,0,6,1,desert_4,2,memory-2step-stake-s,665,2590093,0.0-19.0-0.1-0.159,A2NMLTECRDWFN2,382GHPVPIV7ASJXQ3FB9V025S7G34H,3QILPRALQ9BL17BWN3Q3AAC3TM18N4,1,2
160,4,object_09,object_06,515.09999996424,7,1,349.80000001192,0.7777777777777778,1,object_04,1,1911,0,7,2,restaurant_2,2,memory-2step-stake-s,666,2598369,0.0-19.0-0.1-0.160,A2NMLTECRDWFN2,382GHPVPIV7ASJXQ3FB9V025S7G34H,3QILPRALQ9BL17BWN3Q3AAC3TM18N4,7,8
161,2,object_08,object_07,423.19999998808,3,2,776.70000004768,0.7777777777777778,1,object_04,5,1946,0,7,2,forest_6,2,memory-2step-stake-s,667,2607068,0.0-19.0-0.1-0.161,A2NMLTECRDWFN2,382GHPVPIV7ASJXQ3FB9V025S7G34H,3QILPRALQ9BL17BWN3Q3AAC3TM18N4,4,3
162,4,object_09,object_06,443.59999996424,7,1,471.59999996424,0.6666666666666666,1,object_04,1,1952,0,6,3,restaurant_6,2,memory-2step-stake-s,668,2615361,0.0-19.0-0.1-0.162,A2NMLTECRDWFN2,382GHPVPIV7ASJXQ3FB9V025S7G34H,3QILPRALQ9BL17BWN3Q3AAC3TM18N4,7,8
163,1,object_05,object_02,423.59999996424,2,2,202.30000001192,0.4444444444444444,2,object_03,5,1972,0,8,4,desert_5,2,memory-2step-stake-s,669,2623183,0.0-19.0-0.1-0.163,A2NMLTECRDWFN2,382GHPVPIV7ASJXQ3FB9V025S7G34H,3QILPRALQ9BL17BWN3Q3AAC3TM18N4,1,2
164,1,object_02,object_05,546.29999995232,2,1,462.89999997616,0.2222222222222222,2,object_03,5,1982,0,8,2,desert_5,2,memory-2step-stake-s,670,2631072,0.0-19.0-0.1-0.164,A2NMLTECRDWFN2,382GHPVPIV7ASJXQ3FB9V025S7G34H,3QILPRALQ9BL17BWN3Q3AAC3TM18N4,2,1
165,4,object_09,object_06,630.30000001192,7,1,760.5,0.8888888888888888,1,object_04,1,1990,0,8,5,restaurant_2,2,memory-2step-stake-s,671,2639873,0.0-19.0-0.1-0.165,A2NMLTECRDWFN2,382GHPVPIV7ASJXQ3FB9V025S7G34H,3QILPRALQ9BL17BWN3Q3AAC3TM18N4,7,8
166,2,object_08,object_07,584.39999997616,3,2,685.39999997616,0.8888888888888888,1,object_04,5,2030,0,8,4,forest_3,2,memory-2step-stake-s,672,2648577,0.0-19.0-0.1-0.166,A2NMLTECRDWFN2,382GHPVPIV7ASJXQ3FB9V025S7G34H,3QILPRALQ9BL17BWN3Q3AAC3TM18N4,4,3
167,3,object_01,object_10,1259.3000000119,6,1,394.69999998808,0.4444444444444444,2,object_03,1,2034,0,9,4,library_8,2,memory-2step-stake-s,673,2656586,0.0-19.0-0.1-0.167,A2NMLTECRDWFN2,382GHPVPIV7ASJXQ3FB9V025S7G34H,3QILPRALQ9BL17BWN3Q3AAC3TM18N4,6,5
168,3,object_10,object_01,794.60000002384,6,2,566.19999998808,0.4444444444444444,2,object_03,1,2038,0,8,4,library_8,2,memory-2step-stake-s,674,2664784,0.0-19.0-0.1-0.168,A2NMLTECRDWFN2,382GHPVPIV7ASJXQ3FB9V025S7G34H,3QILPRALQ9BL17BWN3Q3AAC3TM18N4,5,6
169,2,object_08,object_07,697.19999998808,3,2,1030.3000000119,0.8888888888888888,1,object_04,5,2078,0,8,6,forest_3,2,memory-2step-stake-s,675,2673881,0.0-19.0-0.1-0.169,A2NMLTECRDWFN2,382GHPVPIV7ASJXQ3FB9V025S7G34H,3QILPRALQ9BL17BWN3Q3AAC3TM18N4,4,3
170,3,object_10,object_01,879.30000001192,6,2,691.59999996424,0.7777777777777778,2,object_03,1,2085,0,8,7,library_2,2,memory-2step-stake-s,676,2682511,0.0-19.0-0.1-0.170,A2NMLTECRDWFN2,382GHPVPIV7ASJXQ3FB9V025S7G34H,3QILPRALQ9BL17BWN3Q3AAC3TM18N4,5,6
171,2,object_07,object_08,745.29999995232,3,1,549.59999996424,1.0,1,object_04,5,2130,0,9,4,forest_8,2,memory-2step-stake-s,677,2691186,0.0-19.0-0.1-0.171,A2NMLTECRDWFN2,382GHPVPIV7ASJXQ3FB9V025S7G34H,3QILPRALQ9BL17BWN3Q3AAC3TM18N4,3,4
172,3,object_01,object_10,743.5,6,1,691.0,0.3333333333333333,2,object_03,1,2133,0,6,3,library_7,2,memory-2step-stake-s,678,2699395,0.0-19.0-0.1-0.172,A2NMLTECRDWFN2,382GHPVPIV7ASJXQ3FB9V025S7G34H,3QILPRALQ9BL17BWN3Q3AAC3TM18N4,6,5
173,1,object_05,object_02,1036.3000000119,2,2,423.89999997616,0.0,2,object_03,1,2133,0,8,0,desert_5,2,memory-2step-stake-s,679,2707032,0.0-19.0-0.1-0.173,A2NMLTECRDWFN2,382GHPVPIV7ASJXQ3FB9V025S7G34H,3QILPRALQ9BL17BWN3Q3AAC3TM18N4,1,2
174,3,object_10,object_01,760.5,5,1,155.90000003576,1.0,1,object_04,1,2142,0,9,2,library_7,2,memory-2step-stake-s,680,2715314,0.0-19.0-0.1-0.174,A2NMLTECRDWFN2,382GHPVPIV7ASJXQ3FB9V025S7G34H,3QILPRALQ9BL17BWN3Q3AAC3TM18N4,5,6
175,3,object_01,object_10,766.69999998808,5,2,376.5,0.8888888888888888,1,object_04,1,2150,0,8,5,library_2,2,memory-2step-stake-s,681,2723714,0.0-19.0-0.1-0.175,A2NMLTECRDWFN2,382GHPVPIV7ASJXQ3FB9V025S7G34H,3QILPRALQ9BL17BWN3Q3AAC3TM18N4,6,5
176,1,object_02,object_05,582.5,1,2,264.89999997616,1.0,1,object_04,5,2195,0,9,6,desert_2,2,memory-2step-stake-s,682,2732116,0.0-19.0-0.1-0.176,A2NMLTECRDWFN2,382GHPVPIV7ASJXQ3FB9V025S7G34H,3QILPRALQ9BL17BWN3Q3AAC3TM18N4,2,1
177,4,object_09,object_06,835.30000001192,8,2,342.29999995232,0.6666666666666666,2,object_03,1,2201,0,8,6,restaurant_2,2,memory-2step-stake-s,683,2740280,0.0-19.0-0.1-0.177,A2NMLTECRDWFN2,382GHPVPIV7ASJXQ3FB9V025S7G34H,3QILPRALQ9BL17BWN3Q3AAC3TM18N4,7,8
178,4,object_09,object_06,1109.5999999642,8,2,507.09999996424,0.6666666666666666,2,object_03,1,2207,0,2,6,restaurant_1,2,memory-2step-stake-s,684,2748631,0.0-19.0-0.1-0.178,A2NMLTECRDWFN2,382GHPVPIV7ASJXQ3FB9V025S7G34H,3QILPRALQ9BL17BWN3Q3AAC3TM18N4,7,8
179,1,object_02,object_05,833.09999996424,1,2,173.80000001192,0.0,1,object_04,5,2207,0,0,6,desert_2,2,memory-2step-stake-s,685,2756015,0.0-19.0-0.1-0.179,A2NMLTECRDWFN2,382GHPVPIV7ASJXQ3FB9V025S7G34H,3QILPRALQ9BL17BWN3Q3AAC3TM18N4,2,1
180,3,object_10,object_01,744.39999997616,6,2,508.60000002384,0.4444444444444444,2,object_03,1,2211,0,1,4,library_5,2,memory-2step-stake-s,686,2764144,0.0-19.0-0.1-0.180,A2NMLTECRDWFN2,382GHPVPIV7ASJXQ3FB9V025S7G34H,3QILPRALQ9BL17BWN3Q3AAC3TM18N4,5,6
181,3,object_01,object_10,680.5,6,1,535.20000004768,0.2222222222222222,2,object_03,1,2213,0,2,2,library_2,2,memory-2step-stake-s,687,2772148,0.0-19.0-0.1-0.181,A2NMLTECRDWFN2,382GHPVPIV7ASJXQ3FB9V025S7G34H,3QILPRALQ9BL17BWN3Q3AAC3TM18N4,6,5
182,1,object_05,object_02,604.30000001192,2,2,433.39999997616,0.4444444444444444,2,object_03,5,2233,0,0,4,desert_4,2,memory-2step-stake-s,688,2780199,0.0-19.0-0.1-0.182,A2NMLTECRDWFN2,382GHPVPIV7ASJXQ3FB9V025S7G34H,3QILPRALQ9BL17BWN3Q3AAC3TM18N4,1,2
183,4,object_09,object_06,528.69999998808,8,2,363.29999995232,0.1111111111111111,2,object_03,5,2238,0,1,1,restaurant_6,2,memory-2step-stake-s,689,2787876,0.0-19.0-0.1-0.183,A2NMLTECRDWFN2,382GHPVPIV7ASJXQ3FB9V025S7G34H,3QILPRALQ9BL17BWN3Q3AAC3TM18N4,7,8
184,4,object_06,object_09,500.39999997616,8,1,285.30000001192,0.2222222222222222,2,object_03,1,2240,0,3,2,restaurant_1,2,memory-2step-stake-s,690,2795578,0.0-19.0-0.1-0.184,A2NMLTECRDWFN2,382GHPVPIV7ASJXQ3FB9V025S7G34H,3QILPRALQ9BL17BWN3Q3AAC3TM18N4,8,7
185,4,object_09,object_06,518.80000001192,7,1,360.20000004768,0.1111111111111111,1,object_04,5,2245,0,1,3,restaurant_6,2,memory-2step-stake-s,691,2803257,0.0-19.0-0.1-0.185,A2NMLTECRDWFN2,382GHPVPIV7ASJXQ3FB9V025S7G34H,3QILPRALQ9BL17BWN3Q3AAC3TM18N4,7,8
186,4,object_09,object_06,895.20000004768,7,1,636.10000002384,0.1111111111111111,1,object_04,1,2246,0,1,3,restaurant_2,2,memory-2step-stake-s,692,2811205,0.0-19.0-0.1-0.186,A2NMLTECRDWFN2,382GHPVPIV7ASJXQ3FB9V025S7G34H,3QILPRALQ9BL17BWN3Q3AAC3TM18N4,7,8
187,2,object_07,object_08,763.30000001192,3,1,703.19999998808,0.2222222222222222,1,object_04,1,2248,0,2,4,forest_8,2,memory-2step-stake-s,693,2819323,0.0-19.0-0.1-0.187,A2NMLTECRDWFN2,382GHPVPIV7ASJXQ3FB9V025S7G34H,3QILPRALQ9BL17BWN3Q3AAC3TM18N4,3,4
188,4,object_06,object_09,926.39999997616,7,2,690.0,0.2222222222222222,1,object_04,1,2250,0,2,2,restaurant_7,2,memory-2step-stake-s,694,2827431,0.0-19.0-0.1-0.188,A2NMLTECRDWFN2,382GHPVPIV7ASJXQ3FB9V025S7G34H,3QILPRALQ9BL17BWN3Q3AAC3TM18N4,8,7
189,2,object_07,object_08,595.69999998808,3,1,663.0,0.1111111111111111,1,object_04,5,2255,0,1,4,forest_3,2,memory-2step-stake-s,695,2835422,0.0-19.0-0.1-0.189,A2NMLTECRDWFN2,382GHPVPIV7ASJXQ3FB9V025S7G34H,3QILPRALQ9BL17BWN3Q3AAC3TM18N4,3,4
190,3,object_10,object_01,874.0,6,2,707.10000002384,0.7777777777777778,2,object_03,1,2262,0,0,7,library_5,2,memory-2step-stake-s,696,2844054,0.0-19.0-0.1-0.190,A2NMLTECRDWFN2,382GHPVPIV7ASJXQ3FB9V025S7G34H,3QILPRALQ9BL17BWN3Q3AAC3TM18N4,5,6
191,1,object_02,object_05,682.30000001192,2,1,470.09999996424,0.5555555555555556,2,object_03,5,2287,0,2,5,desert_8,2,memory-2step-stake-s,697,2852247,0.0-19.0-0.1-0.191,A2NMLTECRDWFN2,382GHPVPIV7ASJXQ3FB9V025S7G34H,3QILPRALQ9BL17BWN3Q3AAC3TM18N4,2,1
192,1,object_02,object_05,744.39999997616,2,1,1339.1000000238,0.3333333333333333,2,object_03,5,2302,0,2,3,desert_8,2,memory-2step-stake-s,698,2861104,0.0-19.0-0.1-0.192,A2NMLTECRDWFN2,382GHPVPIV7ASJXQ3FB9V025S7G34H,3QILPRALQ9BL17BWN3Q3AAC3TM18N4,2,1
193,4,object_06,object_09,448.19999998808,7,2,490.09999996424,0.0,1,object_04,1,2302,0,0,0,restaurant_1,2,memory-2step-stake-s,699,2868854,0.0-19.0-0.1-0.193,A2NMLTECRDWFN2,382GHPVPIV7ASJXQ3FB9V025S7G34H,3QILPRALQ9BL17BWN3Q3AAC3TM18N4,8,7
194,1,object_05,object_02,1015.1000000238,1,1,300.70000004768,0.1111111111111111,1,object_04,5,2307,0,1,3,desert_5,2,memory-2step-stake-s,700,2876495,0.0-19.0-0.1-0.194,A2NMLTECRDWFN2,382GHPVPIV7ASJXQ3FB9V025S7G34H,3QILPRALQ9BL17BWN3Q3AAC3TM18N4,1,2
195,2,object_07,object_08,577.29999995232,3,1,1045.9000000358,0.2222222222222222,1,object_04,5,2317,0,2,5,forest_8,2,memory-2step-stake-s,701,2884960,0.0-19.0-0.1-0.195,A2NMLTECRDWFN2,382GHPVPIV7ASJXQ3FB9V025S7G34H,3QILPRALQ9BL17BWN3Q3AAC3TM18N4,3,4
196,2,object_08,object_07,591.69999998808,3,2,313.89999997616,0.5555555555555556,1,object_04,5,2342,0,5,1,forest_8,2,memory-2step-stake-s,702,2893012,0.0-19.0-0.1-0.196,A2NMLTECRDWFN2,382GHPVPIV7ASJXQ3FB9V025S7G34H,3QILPRALQ9BL17BWN3Q3AAC3TM18N4,4,3
197,3,object_01,object_10,691.10000002384,6,1,326.90000003576,0.0,2,object_03,1,2342,0,2,0,library_5,2,memory-2step-stake-s,703,2900554,0.0-19.0-0.1-0.197,A2NMLTECRDWFN2,382GHPVPIV7ASJXQ3FB9V025S7G34H,3QILPRALQ9BL17BWN3Q3AAC3TM18N4,6,5
198,3,object_01,object_10,564.60000002384,5,2,95.200000047684,0.4444444444444444,1,object_04,5,2362,0,4,1,library_2,2,memory-2step-stake-s,704,2908291,0.0-19.0-0.1-0.198,A2NMLTECRDWFN2,382GHPVPIV7ASJXQ3FB9V025S7G34H,3QILPRALQ9BL17BWN3Q3AAC3TM18N4,6,5
199,2,object_07,object_08,788.30000001192,4,2,484.89999997616,0.0,2,object_03,5,2362,0,2,0,forest_8,2,memory-2step-stake-s,705,2915992,0.0-19.0-0.1-0.199,A2NMLTECRDWFN2,382GHPVPIV7ASJXQ3FB9V025S7G34H,3QILPRALQ9BL17BWN3Q3AAC3TM18N4,3,4
200,4,object_09,object_06,681.10000002384,7,1,523.79999995232,0.0,1,object_04,5,2362,0,0,2,restaurant_2,2,memory-2step-stake-s,706,2923728,0.0-19.0-0.1-0.200,A2NMLTECRDWFN2,382GHPVPIV7ASJXQ3FB9V025S7G34H,3QILPRALQ9BL17BWN3Q3AAC3TM18N4,7,8
201,4,object_09,object_06,640.60000002384,8,2,355.20000004768,0.2222222222222222,2,object_03,5,2372,0,1,2,restaurant_7,2,memory-2step-stake-s,707,2931555,0.0-19.0-0.1-0.201,A2NMLTECRDWFN2,382GHPVPIV7ASJXQ3FB9V025S7G34H,3QILPRALQ9BL17BWN3Q3AAC3TM18N4,7,8
202,4,object_09,object_06,834.40000003576,7,1,373.69999998808,0.2222222222222222,1,object_04,1,2374,0,2,3,restaurant_7,2,memory-2step-stake-s,708,2939377,0.0-19.0-0.1-0.202,A2NMLTECRDWFN2,382GHPVPIV7ASJXQ3FB9V025S7G34H,3QILPRALQ9BL17BWN3Q3AAC3TM18N4,7,8
203,3,object_01,object_10,919.5,6,1,529.5,0.4444444444444444,2,object_03,1,2378,0,0,4,library_2,2,memory-2step-stake-s,709,2947532,0.0-19.0-0.1-0.203,A2NMLTECRDWFN2,382GHPVPIV7ASJXQ3FB9V025S7G34H,3QILPRALQ9BL17BWN3Q3AAC3TM18N4,6,5
204,4,object_06,object_09,1362.1000000238,8,1,232.69999998808,0.2222222222222222,2,object_03,1,2380,0,2,2,restaurant_7,2,memory-2step-stake-s,710,2955194,0.0-19.0-0.1-0.204,A2NMLTECRDWFN2,382GHPVPIV7ASJXQ3FB9V025S7G34H,3QILPRALQ9BL17BWN3Q3AAC3TM18N4,8,7
205,4,object_09,object_06,870.29999995232,7,1,434.70000004768,0.1111111111111111,1,object_04,1,2381,0,1,2,restaurant_6,2,memory-2step-stake-s,711,2962943,0.0-19.0-0.1-0.205,A2NMLTECRDWFN2,382GHPVPIV7ASJXQ3FB9V025S7G34H,3QILPRALQ9BL17BWN3Q3AAC3TM18N4,7,8
206,2,object_07,object_08,721.30000001192,3,1,437.0,0.1111111111111111,1,object_04,5,2386,0,1,4,forest_8,2,memory-2step-stake-s,712,2970694,0.0-19.0-0.1-0.206,A2NMLTECRDWFN2,382GHPVPIV7ASJXQ3FB9V025S7G34H,3QILPRALQ9BL17BWN3Q3AAC3TM18N4,3,4
207,3,object_10,object_01,785.20000004768,6,2,780.69999998808,0.3333333333333333,2,object_03,1,2389,0,0,3,library_7,2,memory-2step-stake-s,713,2978993,0.0-19.0-0.1-0.207,A2NMLTECRDWFN2,382GHPVPIV7ASJXQ3FB9V025S7G34H,3QILPRALQ9BL17BWN3Q3AAC3TM18N4,5,6
208,1,object_05,object_02,820.60000002384,2,2,606.29999995232,0.2222222222222222,2,object_03,5,2399,0,0,2,desert_2,2,memory-2step-stake-s,714,2987060,0.0-19.0-0.1-0.208,A2NMLTECRDWFN2,382GHPVPIV7ASJXQ3FB9V025S7G34H,3QILPRALQ9BL17BWN3Q3AAC3TM18N4,1,2
209,3,object_10,object_01,699.09999996424,6,2,573.5,0.2222222222222222,2,object_03,1,2401,0,2,2,library_5,2,memory-2step-stake-s,715,2995071,0.0-19.0-0.1-0.209,A2NMLTECRDWFN2,382GHPVPIV7ASJXQ3FB9V025S7G34H,3QILPRALQ9BL17BWN3Q3AAC3TM18N4,5,6
210,2,object_08,object_07,626.70000004768,3,2,701.89999997616,0.1111111111111111,1,object_04,1,2402,0,1,7,forest_6,2,memory-2step-stake-s,716,3003086,0.0-19.0-0.1-0.210,A2NMLTECRDWFN2,382GHPVPIV7ASJXQ3FB9V025S7G34H,3QILPRALQ9BL17BWN3Q3AAC3TM18N4,4,3
211,3,object_01,object_10,779.69999998808,6,1,964.09999996424,1.0,2,object_03,1,2411,0,2,9,library_8,2,memory-2step-stake-s,717,3012219,0.0-19.0-0.1-0.211,A2NMLTECRDWFN2,382GHPVPIV7ASJXQ3FB9V025S7G34H,3QILPRALQ9BL17BWN3Q3AAC3TM18N4,6,5
212,4,object_06,object_09,773.40000003576,7,2,753.60000002384,0.3333333333333333,1,object_04,1,2414,0,3,8,restaurant_2,2,memory-2step-stake-s,718,3020490,0.0-19.0-0.1-0.212,A2NMLTECRDWFN2,382GHPVPIV7ASJXQ3FB9V025S7G34H,3QILPRALQ9BL17BWN3Q3AAC3TM18N4,8,7
213,1,object_05,object_02,446.80000001192,1,1,194.39999997616,0.3333333333333333,1,object_04,5,2429,0,3,8,desert_2,2,memory-2step-stake-s,719,3028205,0.0-19.0-0.1-0.213,A2NMLTECRDWFN2,382GHPVPIV7ASJXQ3FB9V025S7G34H,3QILPRALQ9BL17BWN3Q3AAC3TM18N4,1,2
214,3,object_10,object_01,527.19999998808,6,2,680.59999996424,0.7777777777777778,2,object_03,1,2436,0,5,7,library_8,2,memory-2step-stake-s,720,3036823,0.0-19.0-0.1-0.214,A2NMLTECRDWFN2,382GHPVPIV7ASJXQ3FB9V025S7G34H,3QILPRALQ9BL17BWN3Q3AAC3TM18N4,5,6
215,2,object_08,object_07,481.89999997616,3,2,-1.0,0.0,1,object_04,5,2436,0,5,6,forest_8,2,memory-2step-stake-s,721,3045342,0.0-19.0-0.1-0.215,A2NMLTECRDWFN2,382GHPVPIV7ASJXQ3FB9V025S7G34H,3QILPRALQ9BL17BWN3Q3AAC3TM18N4,4,3
216,2,object_08,object_07,786.09999996424,4,1,438.19999998808,0.6666666666666666,2,object_03,5,2466,0,8,6,forest_3,2,memory-2step-stake-s,722,3053606,0.0-19.0-0.1-0.216,A2NMLTECRDWFN2,382GHPVPIV7ASJXQ3FB9V025S7G34H,3QILPRALQ9BL17BWN3Q3AAC3TM18N4,4,3
217,3,object_01,object_10,569.0,5,2,12.699999988079,0.8888888888888888,1,object_04,1,2474,0,8,5,library_8,2,memory-2step-stake-s,723,3061646,0.0-19.0-0.1-0.217,A2NMLTECRDWFN2,382GHPVPIV7ASJXQ3FB9V025S7G34H,3QILPRALQ9BL17BWN3Q3AAC3TM18N4,6,5
218,2,object_07,object_08,514.19999998808,4,2,381.30000001192,0.7777777777777778,2,object_03,5,2509,0,8,7,forest_6,2,memory-2step-stake-s,724,3069988,0.0-19.0-0.1-0.218,A2NMLTECRDWFN2,382GHPVPIV7ASJXQ3FB9V025S7G34H,3QILPRALQ9BL17BWN3Q3AAC3TM18N4,3,4
219,3,object_01,object_10,508.80000001192,6,1,230.09999996424,0.7777777777777778,2,object_03,1,2516,0,8,7,library_7,2,memory-2step-stake-s,725,3078140,0.0-19.0-0.1-0.219,A2NMLTECRDWFN2,382GHPVPIV7ASJXQ3FB9V025S7G34H,3QILPRALQ9BL17BWN3Q3AAC3TM18N4,6,5
220,4,object_06,object_09,564.5,7,2,542.19999998808,1.0,1,object_04,5,2561,0,9,8,restaurant_2,2,memory-2step-stake-s,726,3086815,0.0-19.0-0.1-0.220,A2NMLTECRDWFN2,382GHPVPIV7ASJXQ3FB9V025S7G34H,3QILPRALQ9BL17BWN3Q3AAC3TM18N4,8,7
221,2,object_08,object_07,421.80000001192,4,1,169.5,0.6666666666666666,2,object_03,5,2591,0,8,6,forest_7,2,memory-2step-stake-s,727,3094829,0.0-19.0-0.1-0.221,A2NMLTECRDWFN2,382GHPVPIV7ASJXQ3FB9V025S7G34H,3QILPRALQ9BL17BWN3Q3AAC3TM18N4,4,3
222,2,object_07,object_08,715.30000001192,4,2,406.19999998808,0.7777777777777778,2,object_03,1,2598,0,5,7,forest_6,2,memory-2step-stake-s,728,3103156,0.0-19.0-0.1-0.222,A2NMLTECRDWFN2,382GHPVPIV7ASJXQ3FB9V025S7G34H,3QILPRALQ9BL17BWN3Q3AAC3TM18N4,3,4
223,2,object_08,object_07,372.5,4,1,351.60000002384,0.8888888888888888,2,object_03,5,2638,0,5,8,forest_8,2,memory-2step-stake-s,729,3111534,0.0-19.0-0.1-0.223,A2NMLTECRDWFN2,382GHPVPIV7ASJXQ3FB9V025S7G34H,3QILPRALQ9BL17BWN3Q3AAC3TM18N4,4,3
224,1,object_05,object_02,643.30000001192,2,2,103.10000002384,1.0,2,object_03,1,2647,0,4,9,desert_2,2,memory-2step-stake-s,730,3119846,0.0-19.0-0.1-0.224,A2NMLTECRDWFN2,382GHPVPIV7ASJXQ3FB9V025S7G34H,3QILPRALQ9BL17BWN3Q3AAC3TM18N4,1,2
225,2,object_07,object_08,459.30000001192,4,2,698.69999998808,0.6666666666666666,2,object_03,5,2677,0,6,6,forest_8,2,memory-2step-stake-s,731,3128398,0.0-19.0-0.1-0.225,A2NMLTECRDWFN2,382GHPVPIV7ASJXQ3FB9V025S7G34H,3QILPRALQ9BL17BWN3Q3AAC3TM18N4,3,4
226,2,object_07,object_08,492.29999995232,4,2,485.5,0.7777777777777778,2,object_03,5,2712,0,9,7,forest_3,2,memory-2step-stake-s,732,3136848,0.0-19.0-0.1-0.226,A2NMLTECRDWFN2,382GHPVPIV7ASJXQ3FB9V025S7G34H,3QILPRALQ9BL17BWN3Q3AAC3TM18N4,3,4
227,2,object_08,object_07,614.5,4,1,423.90000003576,0.6666666666666666,2,object_03,5,2742,0,8,6,forest_6,2,memory-2step-stake-s,733,3145104,0.0-19.0-0.1-0.227,A2NMLTECRDWFN2,382GHPVPIV7ASJXQ3FB9V025S7G34H,3QILPRALQ9BL17BWN3Q3AAC3TM18N4,4,3
228,4,object_09,object_06,719.30000001192,7,1,58.600000023842,0.6666666666666666,1,object_04,5,2772,0,6,9,restaurant_6,2,memory-2step-stake-s,734,3152983,0.0-19.0-0.1-0.228,A2NMLTECRDWFN2,382GHPVPIV7ASJXQ3FB9V025S7G34H,3QILPRALQ9BL17BWN3Q3AAC3TM18N4,7,8
229,1,object_05,object_02,640.5,2,2,203.60000002384,0.8888888888888888,2,object_03,5,2812,0,7,8,desert_5,2,memory-2step-stake-s,735,3161225,0.0-19.0-0.1-0.229,A2NMLTECRDWFN2,382GHPVPIV7ASJXQ3FB9V025S7G34H,3QILPRALQ9BL17BWN3Q3AAC3TM18N4,1,2
230,2,object_08,object_07,558.30000001192,4,1,330.30000001192,0.4444444444444444,2,object_03,5,2832,0,5,4,forest_6,2,memory-2step-stake-s,736,3169184,0.0-19.0-0.1-0.230,A2NMLTECRDWFN2,382GHPVPIV7ASJXQ3FB9V025S7G34H,3QILPRALQ9BL17BWN3Q3AAC3TM18N4,4,3
231,2,object_07,object_08,655.40000003576,4,2,378.60000002384,0.3333333333333333,2,object_03,5,2847,0,5,3,forest_6,2,memory-2step-stake-s,737,3177085,0.0-19.0-0.1-0.231,A2NMLTECRDWFN2,382GHPVPIV7ASJXQ3FB9V025S7G34H,3QILPRALQ9BL17BWN3Q3AAC3TM18N4,3,4
232,2,object_07,object_08,748.5,4,2,629.59999996424,0.5555555555555556,2,object_03,5,2872,0,4,5,forest_6,2,memory-2step-stake-s,738,3185440,0.0-19.0-0.1-0.232,A2NMLTECRDWFN2,382GHPVPIV7ASJXQ3FB9V025S7G34H,3QILPRALQ9BL17BWN3Q3AAC3TM18N4,3,4
233,1,object_02,object_05,551.5,2,1,364.30000001192,0.4444444444444444,2,object_03,1,2876,0,1,4,desert_8,2,memory-2step-stake-s,739,3193428,0.0-19.0-0.1-0.233,A2NMLTECRDWFN2,382GHPVPIV7ASJXQ3FB9V025S7G34H,3QILPRALQ9BL17BWN3Q3AAC3TM18N4,2,1
234,3,object_10,object_01,812.19999998808,6,2,431.0,0.4444444444444444,2,object_03,1,2880,0,1,4,library_8,2,memory-2step-stake-s,740,3201483,0.0-19.0-0.1-0.234,A2NMLTECRDWFN2,382GHPVPIV7ASJXQ3FB9V025S7G34H,3QILPRALQ9BL17BWN3Q3AAC3TM18N4,5,6
235,1,object_02,object_05,591.5,2,1,241.30000001192,0.4444444444444444,2,object_03,5,2900,0,2,4,desert_4,2,memory-2step-stake-s,741,3209400,0.0-19.0-0.1-0.235,A2NMLTECRDWFN2,382GHPVPIV7ASJXQ3FB9V025S7G34H,3QILPRALQ9BL17BWN3Q3AAC3TM18N4,2,1
236,1,object_02,object_05,792.30000001192,2,1,404.09999996424,0.4444444444444444,2,object_03,5,2920,0,4,4,desert_8,2,memory-2step-stake-s,742,3217422,0.0-19.0-0.1-0.236,A2NMLTECRDWFN2,382GHPVPIV7ASJXQ3FB9V025S7G34H,3QILPRALQ9BL17BWN3Q3AAC3TM18N4,2,1
237,4,object_06,object_09,673.60000002384,7,2,19.699999988079,0.6666666666666666,1,object_04,5,2950,0,6,5,restaurant_1,2,memory-2step-stake-s,743,3225262,0.0-19.0-0.1-0.237,A2NMLTECRDWFN2,382GHPVPIV7ASJXQ3FB9V025S7G34H,3QILPRALQ9BL17BWN3Q3AAC3TM18N4,8,7
238,1,object_05,object_02,609.19999998808,2,2,301.5,0.5555555555555556,2,object_03,5,2975,0,3,5,desert_2,2,memory-2step-stake-s,744,3233304,0.0-19.0-0.1-0.238,A2NMLTECRDWFN2,382GHPVPIV7ASJXQ3FB9V025S7G34H,3QILPRALQ9BL17BWN3Q3AAC3TM18N4,1,2
239,4,object_09,object_06,759.40000003576,7,1,353.20000004768,0.5555555555555556,1,object_04,1,2980,0,5,4,restaurant_2,2,memory-2step-stake-s,745,3241375,0.0-19.0-0.1-0.239,A2NMLTECRDWFN2,382GHPVPIV7ASJXQ3FB9V025S7G34H,3QILPRALQ9BL17BWN3Q3AAC3TM18N4,7,8
240,4,object_09,object_06,518.69999998808,7,1,386.89999997616,0.6666666666666666,1,object_04,1,2986,0,6,6,restaurant_7,2,memory-2step-stake-s,746,3249607,0.0-19.0-0.1-0.240,A2NMLTECRDWFN2,382GHPVPIV7ASJXQ3FB9V025S7G34H,3QILPRALQ9BL17BWN3Q3AAC3TM18N4,7,8
241,4,object_06,object_09,559.0,7,2,491.19999998808,0.6666666666666666,1,object_04,5,3016,0,6,9,restaurant_7,2,memory-2step-stake-s,747,3257918,0.0-19.0-0.1-0.241,A2NMLTECRDWFN2,382GHPVPIV7ASJXQ3FB9V025S7G34H,3QILPRALQ9BL17BWN3Q3AAC3TM18N4,8,7
242,1,object_05,object_02,759.69999998808,2,2,811.5,0.8888888888888888,2,object_03,5,3056,0,5,8,desert_2,2,memory-2step-stake-s,748,3266752,0.0-19.0-0.1-0.242,A2NMLTECRDWFN2,382GHPVPIV7ASJXQ3FB9V025S7G34H,3QILPRALQ9BL17BWN3Q3AAC3TM18N4,1,2
243,3,object_01,object_10,608.39999997616,6,1,274.29999995232,0.7777777777777778,2,object_03,1,3063,0,6,7,library_5,2,memory-2step-stake-s,749,3274949,0.0-19.0-0.1-0.243,A2NMLTECRDWFN2,382GHPVPIV7ASJXQ3FB9V025S7G34H,3QILPRALQ9BL17BWN3Q3AAC3TM18N4,6,5
244,4,object_09,object_06,723.0,7,1,455.19999998808,0.3333333333333333,1,object_04,1,3066,0,3,7,restaurant_6,2,memory-2step-stake-s,750,3282932,0.0-19.0-0.1-0.244,A2NMLTECRDWFN2,382GHPVPIV7ASJXQ3FB9V025S7G34H,3QILPRALQ9BL17BWN3Q3AAC3TM18N4,7,8
245,1,object_02,object_05,597.39999997616,2,1,704.69999998808,1.0,2,object_03,5,3111,0,2,9,desert_2,2,memory-2step-stake-s,751,3291810,0.0-19.0-0.1-0.245,A2NMLTECRDWFN2,382GHPVPIV7ASJXQ3FB9V025S7G34H,3QILPRALQ9BL17BWN3Q3AAC3TM18N4,2,1
246,1,object_02,object_05,509.80000001192,2,1,543.89999997616,0.8888888888888888,2,object_03,5,3151,0,1,8,desert_4,2,memory-2step-stake-s,752,3300375,0.0-19.0-0.1-0.246,A2NMLTECRDWFN2,382GHPVPIV7ASJXQ3FB9V025S7G34H,3QILPRALQ9BL17BWN3Q3AAC3TM18N4,2,1
247,3,object_01,object_10,504.0,5,2,451.60000002384,0.2222222222222222,1,object_04,1,3153,0,2,5,library_8,2,memory-2step-stake-s,753,3308257,0.0-19.0-0.1-0.247,A2NMLTECRDWFN2,382GHPVPIV7ASJXQ3FB9V025S7G34H,3QILPRALQ9BL17BWN3Q3AAC3TM18N4,6,5
248,3,object_01,object_10,591.80000001192,6,1,441.30000001192,0.3333333333333333,2,object_03,1,3156,0,3,3,library_7,2,memory-2step-stake-s,754,3316243,0.0-19.0-0.1-0.248,A2NMLTECRDWFN2,382GHPVPIV7ASJXQ3FB9V025S7G34H,3QILPRALQ9BL17BWN3Q3AAC3TM18N4,6,5
249,3,object_10,object_01,683.30000001192,6,2,814.90000003576,0.3333333333333333,2,object_03,1,3159,0,3,3,library_5,2,memory-2step-stake-s,755,3324588,0.0-19.0-0.1-0.249,A2NMLTECRDWFN2,382GHPVPIV7ASJXQ3FB9V025S7G34H,3QILPRALQ9BL17BWN3Q3AAC3TM18N4,5,6
250,1,object_05,object_02,860.5,2,2,559.69999998808,0.2222222222222222,2,object_03,5,3169,0,3,2,desert_8,2,memory-2step-stake-s,756,3332561,0.0-19.0-0.1-0.250,A2NMLTECRDWFN2,382GHPVPIV7ASJXQ3FB9V025S7G34H,3QILPRALQ9BL17BWN3Q3AAC3TM18N4,1,2
251,2,object_08,object_07,413.30000001192,4,1,409.10000002384,0.3333333333333333,2,object_03,5,3184,0,2,3,forest_8,2,memory-2step-stake-s,757,3340536,0.0-19.0-0.1-0.251,A2NMLTECRDWFN2,382GHPVPIV7ASJXQ3FB9V025S7G34H,3QILPRALQ9BL17BWN3Q3AAC3TM18N4,4,3
252,1,object_05,object_02,582.80000001192,2,2,462.09999996424,0.1111111111111111,2,object_03,5,3189,0,6,1,desert_2,2,memory-2step-stake-s,758,3348335,0.0-19.0-0.1-0.252,A2NMLTECRDWFN2,382GHPVPIV7ASJXQ3FB9V025S7G34H,3QILPRALQ9BL17BWN3Q3AAC3TM18N4,1,2
253,4,object_06,object_09,593.39999997616,7,2,438.09999996424,0.4444444444444444,1,object_04,1,3193,0,4,2,restaurant_1,2,memory-2step-stake-s,759,3356405,0.0-19.0-0.1-0.253,A2NMLTECRDWFN2,382GHPVPIV7ASJXQ3FB9V025S7G34H,3QILPRALQ9BL17BWN3Q3AAC3TM18N4,8,7
254,3,object_10,object_01,650.79999995232,5,1,325.0,0.2222222222222222,1,object_04,1,3195,0,2,0,library_2,2,memory-2step-stake-s,760,3364145,0.0-19.0-0.1-0.254,A2NMLTECRDWFN2,382GHPVPIV7ASJXQ3FB9V025S7G34H,3QILPRALQ9BL17BWN3Q3AAC3TM18N4,5,6
255,2,object_07,object_08,606.59999996424,4,2,369.79999995232,0.0,2,object_03,5,3195,0,1,0,forest_8,2,memory-2step-stake-s,761,3371730,0.0-19.0-0.1-0.255,A2NMLTECRDWFN2,382GHPVPIV7ASJXQ3FB9V025S7G34H,3QILPRALQ9BL17BWN3Q3AAC3TM18N4,3,4
