,state1,stim_left,stim_right,rt_1,choice1,response1,rt_2,points,state2,stim_state2,stake,score,practice,rews1,rews2,background,high_arm,trial_type,trial_index,time_elapsed,internal_node_id,subid,hitid,assignmentid,stim_left_num,stim_right_num
0,1,object_07,object_05,-1.0,-1,-1,-1.0,0.0,-,0,5,0,0,4,5,desert_3,2,memory-2step-stake-s,499,1109812,0.0-19.0-0.0-0.0,A3BU69EKYL6SH3,30UZJB2PPKSSO21QHKUJ0S8JS3B35M,3L0KT67Y8IWXWQUJ835J8HAB90CSYE,2,1
1,3,object_01,object_04,841.75000002142,6,2,-1.0,0.0,2,object_09,1,0,0,7,6,library_2,2,memory-2step-stake-s,500,1118356,0.0-19.0-0.0-0.1,A3BU69EKYL6SH3,30UZJB2PPKSSO21QHKUJ0S8JS3B35M,3L0KT67Y8IWXWQUJ835J8HAB90CSYE,5,6
2,1,object_07,object_05,686.78500002716,1,2,-1.0,0.0,1,object_06,5,0,0,3,5,desert_6,2,memory-2step-stake-s,501,1126885,0.0-19.0-0.0-0.2,A3BU69EKYL6SH3,30UZJB2PPKSSO21QHKUJ0S8JS3B35M,3L0KT67Y8IWXWQUJ835J8HAB90CSYE,2,1
3,2,object_10,object_08,779.14000005694,3,2,-1.0,0.0,1,object_06,5,0,0,2,4,forest_5,2,memory-2step-stake-s,502,1135406,0.0-19.0-0.0-0.3,A3BU69EKYL6SH3,30UZJB2PPKSSO21QHKUJ0S8JS3B35M,3L0KT67Y8IWXWQUJ835J8HAB90CSYE,4,3
4,4,object_03,object_02,577.6949999854,8,1,764.06499999575,0.4444444444444444,2,object_09,5,20,0,5,4,restaurant_4,2,memory-2step-stake-s,503,1143823,0.0-19.0-0.0-0.4,A3BU69EKYL6SH3,30UZJB2PPKSSO21QHKUJ0S8JS3B35M,3L0KT67Y8IWXWQUJ835J8HAB90CSYE,8,7
5,3,object_04,object_01,596.98500001105,5,2,675.0250000041,0.4444444444444444,1,object_06,5,40,0,4,2,library_4,2,memory-2step-stake-s,504,1152144,0.0-19.0-0.0-0.5,A3BU69EKYL6SH3,30UZJB2PPKSSO21QHKUJ0S8JS3B35M,3L0KT67Y8IWXWQUJ835J8HAB90CSYE,6,5
6,2,object_10,object_08,399.15499999188,4,1,582.48500002082,0.6666666666666666,2,object_09,5,70,0,8,6,forest_5,2,memory-2step-stake-s,505,1160603,0.0-19.0-0.0-0.6,A3BU69EKYL6SH3,30UZJB2PPKSSO21QHKUJ0S8JS3B35M,3L0KT67Y8IWXWQUJ835J8HAB90CSYE,4,3
7,3,object_04,object_01,613.8299999875,5,2,485.8200000017,0.5555555555555556,1,object_06,5,95,0,5,4,library_1,2,memory-2step-stake-s,506,1168853,0.0-19.0-0.0-0.7,A3BU69EKYL6SH3,30UZJB2PPKSSO21QHKUJ0S8JS3B35M,3L0KT67Y8IWXWQUJ835J8HAB90CSYE,6,5
8,4,object_02,object_03,537.14499995112,8,2,695.07999997586,0.6666666666666666,2,object_09,1,101,0,4,6,restaurant_5,2,memory-2step-stake-s,507,1177398,0.0-19.0-0.0-0.8,A3BU69EKYL6SH3,30UZJB2PPKSSO21QHKUJ0S8JS3B35M,3L0KT67Y8IWXWQUJ835J8HAB90CSYE,7,8
9,2,object_08,object_10,512.17000000179,3,1,768.3599999873,0.5555555555555556,1,object_06,5,126,0,5,4,forest_8,2,memory-2step-stake-s,508,1185922,0.0-19.0-0.0-0.9,A3BU69EKYL6SH3,30UZJB2PPKSSO21QHKUJ0S8JS3B35M,3L0KT67Y8IWXWQUJ835J8HAB90CSYE,3,4
10,3,object_04,object_01,572.91499996791,5,2,763.54000001447,0.8888888888888888,1,object_06,1,134,0,8,5,library_1,2,memory-2step-stake-s,509,1194756,0.0-19.0-0.0-0.10,A3BU69EKYL6SH3,30UZJB2PPKSSO21QHKUJ0S8JS3B35M,3L0KT67Y8IWXWQUJ835J8HAB90CSYE,6,5
11,3,object_04,object_01,724.24000001047,5,2,1382.1199999657,1.0,1,object_06,1,143,0,9,5,library_2,2,memory-2step-stake-s,510,1204298,0.0-19.0-0.0-0.11,A3BU69EKYL6SH3,30UZJB2PPKSSO21QHKUJ0S8JS3B35M,3L0KT67Y8IWXWQUJ835J8HAB90CSYE,6,5
12,4,object_03,object_02,479.21000001952,8,1,917.79500001576,0.1111111111111111,2,object_09,1,144,0,8,1,restaurant_7,2,memory-2step-stake-s,511,1212551,0.0-19.0-0.0-0.12,A3BU69EKYL6SH3,30UZJB2PPKSSO21QHKUJ0S8JS3B35M,3L0KT67Y8IWXWQUJ835J8HAB90CSYE,8,7
13,1,object_07,object_05,1187.0000000345,2,1,1024.4800000219,0.0,2,object_09,5,144,0,8,0,desert_6,2,memory-2step-stake-s,512,1220816,0.0-19.0-0.0-0.13,A3BU69EKYL6SH3,30UZJB2PPKSSO21QHKUJ0S8JS3B35M,3L0KT67Y8IWXWQUJ835J8HAB90CSYE,2,1
14,4,object_03,object_02,874.98999998206,8,1,516.87500003027,0.2222222222222222,2,object_09,1,146,0,8,2,restaurant_5,2,memory-2step-stake-s,513,1228788,0.0-19.0-0.0-0.14,A3BU69EKYL6SH3,30UZJB2PPKSSO21QHKUJ0S8JS3B35M,3L0KT67Y8IWXWQUJ835J8HAB90CSYE,8,7
15,4,object_02,object_03,1334.7649999778,8,2,599.71500001848,0.2222222222222222,2,object_09,1,148,0,8,2,restaurant_8,2,memory-2step-stake-s,514,1236829,0.0-19.0-0.0-0.15,A3BU69EKYL6SH3,30UZJB2PPKSSO21QHKUJ0S8JS3B35M,3L0KT67Y8IWXWQUJ835J8HAB90CSYE,7,8
16,1,object_05,object_07,1140.8149999916,1,1,818.99500003783,0.6666666666666666,1,object_06,5,178,0,6,2,desert_6,2,memory-2step-stake-s,515,1245512,0.0-19.0-0.0-0.16,A3BU69EKYL6SH3,30UZJB2PPKSSO21QHKUJ0S8JS3B35M,3L0KT67Y8IWXWQUJ835J8HAB90CSYE,1,2
17,3,object_04,object_01,964.67499999562,6,1,822.71499995841,0.5555555555555556,2,object_09,1,183,0,1,5,library_1,2,memory-2step-stake-s,516,1254087,0.0-19.0-0.0-0.17,A3BU69EKYL6SH3,30UZJB2PPKSSO21QHKUJ0S8JS3B35M,3L0KT67Y8IWXWQUJ835J8HAB90CSYE,6,5
18,3,object_01,object_04,1056.6150000086,5,1,887.42500002263,0.1111111111111111,1,object_06,1,184,0,1,4,library_8,2,memory-2step-stake-s,517,1262314,0.0-19.0-0.0-0.18,A3BU69EKYL6SH3,30UZJB2PPKSSO21QHKUJ0S8JS3B35M,3L0KT67Y8IWXWQUJ835J8HAB90CSYE,5,6
19,2,object_08,object_10,665.84999999031,3,1,747.47000000207,0.3333333333333333,1,object_06,1,187,0,3,5,forest_5,2,memory-2step-stake-s,518,1270590,0.0-19.0-0.0-0.19,A3BU69EKYL6SH3,30UZJB2PPKSSO21QHKUJ0S8JS3B35M,3L0KT67Y8IWXWQUJ835J8HAB90CSYE,3,4
20,1,object_05,object_07,736.81500001112,1,1,634.05500003137,0.4444444444444444,1,object_06,5,207,0,4,5,desert_1,2,memory-2step-stake-s,519,1278876,0.0-19.0-0.0-0.20,A3BU69EKYL6SH3,30UZJB2PPKSSO21QHKUJ0S8JS3B35M,3L0KT67Y8IWXWQUJ835J8HAB90CSYE,1,2
21,1,object_05,object_07,634.09999996657,2,2,527.26000000257,0.2222222222222222,2,object_09,5,217,0,5,2,desert_4,2,memory-2step-stake-s,520,1286844,0.0-19.0-0.0-0.21,A3BU69EKYL6SH3,30UZJB2PPKSSO21QHKUJ0S8JS3B35M,3L0KT67Y8IWXWQUJ835J8HAB90CSYE,1,2
22,3,object_04,object_01,1140.8400000073,5,2,706.2600000063,0.5555555555555556,1,object_06,5,242,0,5,2,library_4,2,memory-2step-stake-s,521,1295298,0.0-19.0-0.0-0.22,A3BU69EKYL6SH3,30UZJB2PPKSSO21QHKUJ0S8JS3B35M,3L0KT67Y8IWXWQUJ835J8HAB90CSYE,6,5
23,3,object_04,object_01,982.44499997236,5,2,447.11499998812,0.8888888888888888,1,object_06,1,250,0,8,2,library_4,2,memory-2step-stake-s,522,1303805,0.0-19.0-0.0-0.23,A3BU69EKYL6SH3,30UZJB2PPKSSO21QHKUJ0S8JS3B35M,3L0KT67Y8IWXWQUJ835J8HAB90CSYE,6,5
24,2,object_08,object_10,1260.0550000207,3,1,626.0300000431,0.4444444444444444,1,object_06,5,270,0,4,4,forest_8,2,memory-2step-stake-s,523,1312085,0.0-19.0-0.0-0.24,A3BU69EKYL6SH3,30UZJB2PPKSSO21QHKUJ0S8JS3B35M,3L0KT67Y8IWXWQUJ835J8HAB90CSYE,3,4
25,4,object_03,object_02,850.83999997005,7,2,979.04999996535,0.2222222222222222,1,object_06,1,272,0,2,7,restaurant_8,2,memory-2step-stake-s,524,1320505,0.0-19.0-0.0-0.25,A3BU69EKYL6SH3,30UZJB2PPKSSO21QHKUJ0S8JS3B35M,3L0KT67Y8IWXWQUJ835J8HAB90CSYE,8,7
26,1,object_05,object_07,1340.7200000365,1,1,778.69499998633,0.1111111111111111,1,object_06,5,277,0,1,3,desert_3,2,memory-2step-stake-s,525,1328627,0.0-19.0-0.0-0.26,A3BU69EKYL6SH3,30UZJB2PPKSSO21QHKUJ0S8JS3B35M,3L0KT67Y8IWXWQUJ835J8HAB90CSYE,1,2
27,2,object_10,object_08,975.01499997452,3,2,524.92499997607,0.2222222222222222,1,object_06,5,287,0,2,5,forest_3,2,memory-2step-stake-s,526,1336581,0.0-19.0-0.0-0.27,A3BU69EKYL6SH3,30UZJB2PPKSSO21QHKUJ0S8JS3B35M,3L0KT67Y8IWXWQUJ835J8HAB90CSYE,4,3
28,3,object_01,object_04,1157.9350000247,5,1,604.44499994628,0.5555555555555556,1,object_06,1,292,0,5,6,library_8,2,memory-2step-stake-s,527,1344951,0.0-19.0-0.0-0.28,A3BU69EKYL6SH3,30UZJB2PPKSSO21QHKUJ0S8JS3B35M,3L0KT67Y8IWXWQUJ835J8HAB90CSYE,5,6
29,1,object_07,object_05,814.37999999616,1,2,435.78999995952,0.4444444444444444,1,object_06,5,312,0,4,7,desert_1,2,memory-2step-stake-s,528,1353042,0.0-19.0-0.0-0.29,A3BU69EKYL6SH3,30UZJB2PPKSSO21QHKUJ0S8JS3B35M,3L0KT67Y8IWXWQUJ835J8HAB90CSYE,2,1
30,1,object_07,object_05,1170.8549999748,2,1,713.19999999832,0.8888888888888888,2,object_09,1,320,0,4,8,desert_3,2,memory-2step-stake-s,529,1361831,0.0-19.0-0.0-0.30,A3BU69EKYL6SH3,30UZJB2PPKSSO21QHKUJ0S8JS3B35M,3L0KT67Y8IWXWQUJ835J8HAB90CSYE,2,1
31,2,object_08,object_10,1251.8300000229,4,2,770.30999999261,0.7777777777777778,2,object_09,5,355,0,8,7,forest_2,2,memory-2step-stake-s,530,1370569,0.0-19.0-0.0-0.31,A3BU69EKYL6SH3,30UZJB2PPKSSO21QHKUJ0S8JS3B35M,3L0KT67Y8IWXWQUJ835J8HAB90CSYE,3,4
32,1,object_05,object_07,992.44000000181,2,2,539.79499998968,0.7777777777777778,2,object_09,5,390,0,8,7,desert_4,2,memory-2step-stake-s,531,1379067,0.0-19.0-0.0-0.32,A3BU69EKYL6SH3,30UZJB2PPKSSO21QHKUJ0S8JS3B35M,3L0KT67Y8IWXWQUJ835J8HAB90CSYE,1,2
33,1,object_05,object_07,892.25500001339,2,2,-1.0,0.0,2,object_09,5,390,0,7,9,desert_6,2,memory-2step-stake-s,532,1387594,0.0-19.0-0.0-0.33,A3BU69EKYL6SH3,30UZJB2PPKSSO21QHKUJ0S8JS3B35M,3L0KT67Y8IWXWQUJ835J8HAB90CSYE,1,2
34,3,object_01,object_04,755.33000001451,5,1,1156.1399999773,0.6666666666666666,1,object_06,1,396,0,6,9,library_1,2,memory-2step-stake-s,533,1396597,0.0-19.0-0.0-0.34,A3BU69EKYL6SH3,30UZJB2PPKSSO21QHKUJ0S8JS3B35M,3L0KT67Y8IWXWQUJ835J8HAB90CSYE,5,6
35,4,object_02,object_03,875.46499999007,8,2,853.82499999832,0.7777777777777778,2,object_09,1,403,0,5,7,restaurant_7,2,memory-2step-stake-s,534,1405404,0.0-19.0-0.0-0.35,A3BU69EKYL6SH3,30UZJB2PPKSSO21QHKUJ0S8JS3B35M,3L0KT67Y8IWXWQUJ835J8HAB90CSYE,7,8
36,4,object_02,object_03,1048.9999999991,8,2,455.6599999778,0.7777777777777778,2,object_09,1,410,0,9,7,restaurant_7,2,memory-2step-stake-s,535,1413816,0.0-19.0-0.0-0.36,A3BU69EKYL6SH3,30UZJB2PPKSSO21QHKUJ0S8JS3B35M,3L0KT67Y8IWXWQUJ835J8HAB90CSYE,7,8
37,2,object_10,object_08,1000.1749999938,3,2,574.00000002235,0.8888888888888888,1,object_06,5,450,0,8,8,forest_2,2,memory-2step-stake-s,536,1422454,0.0-19.0-0.0-0.37,A3BU69EKYL6SH3,30UZJB2PPKSSO21QHKUJ0S8JS3B35M,3L0KT67Y8IWXWQUJ835J8HAB90CSYE,4,3
38,4,object_03,object_02,1038.0649999715,7,2,596.14999999758,0.8888888888888888,1,object_06,1,458,0,8,5,restaurant_4,2,memory-2step-stake-s,537,1431111,0.0-19.0-0.0-0.38,A3BU69EKYL6SH3,30UZJB2PPKSSO21QHKUJ0S8JS3B35M,3L0KT67Y8IWXWQUJ835J8HAB90CSYE,8,7
39,3,object_04,object_01,626.32999999914,6,1,492.75999999372,0.4444444444444444,2,object_09,1,462,0,8,4,library_2,2,memory-2step-stake-s,538,1439251,0.0-19.0-0.0-0.39,A3BU69EKYL6SH3,30UZJB2PPKSSO21QHKUJ0S8JS3B35M,3L0KT67Y8IWXWQUJ835J8HAB90CSYE,6,5
40,3,object_04,object_01,635.1250000298,6,1,447.12999998592,0.7777777777777778,2,object_09,1,469,0,9,7,library_2,2,memory-2step-stake-s,539,1447655,0.0-19.0-0.0-0.40,A3BU69EKYL6SH3,30UZJB2PPKSSO21QHKUJ0S8JS3B35M,3L0KT67Y8IWXWQUJ835J8HAB90CSYE,6,5
41,4,object_03,object_02,860.59500003466,7,2,576.56000001589,1.0,1,object_06,1,478,0,9,5,restaurant_4,2,memory-2step-stake-s,540,1456404,0.0-19.0-0.0-0.41,A3BU69EKYL6SH3,30UZJB2PPKSSO21QHKUJ0S8JS3B35M,3L0KT67Y8IWXWQUJ835J8HAB90CSYE,8,7
42,3,object_01,object_04,865.79999997048,6,2,503.5949999583,0.6666666666666666,2,object_09,1,484,0,8,6,library_4,2,memory-2step-stake-s,541,1464772,0.0-19.0-0.0-0.42,A3BU69EKYL6SH3,30UZJB2PPKSSO21QHKUJ0S8JS3B35M,3L0KT67Y8IWXWQUJ835J8HAB90CSYE,5,6
43,2,object_10,object_08,963.63000001293,3,2,692.02000001678,0.5555555555555556,1,object_06,1,489,0,5,7,forest_2,2,memory-2step-stake-s,542,1473234,0.0-19.0-0.0-0.43,A3BU69EKYL6SH3,30UZJB2PPKSSO21QHKUJ0S8JS3B35M,3L0KT67Y8IWXWQUJ835J8HAB90CSYE,4,3
44,2,object_08,object_10,879.24500001827,3,1,509.36499994714,0.4444444444444444,1,object_06,5,509,0,4,8,forest_2,2,memory-2step-stake-s,543,1481400,0.0-19.0-0.0-0.44,A3BU69EKYL6SH3,30UZJB2PPKSSO21QHKUJ0S8JS3B35M,3L0KT67Y8IWXWQUJ835J8HAB90CSYE,3,4
45,4,object_02,object_03,1008.8499999838,8,2,472.80500002671,0.6666666666666666,2,object_09,1,515,0,8,6,restaurant_8,2,memory-2step-stake-s,544,1489731,0.0-19.0-0.0-0.45,A3BU69EKYL6SH3,30UZJB2PPKSSO21QHKUJ0S8JS3B35M,3L0KT67Y8IWXWQUJ835J8HAB90CSYE,7,8
46,1,object_07,object_05,1115.1499999687,1,2,723.09499996481,0.7777777777777778,1,object_06,5,550,0,7,8,desert_1,2,memory-2step-stake-s,545,1498418,0.0-19.0-0.0-0.46,A3BU69EKYL6SH3,30UZJB2PPKSSO21QHKUJ0S8JS3B35M,3L0KT67Y8IWXWQUJ835J8HAB90CSYE,2,1
47,3,object_04,object_01,1197.2649999661,6,1,548.5500000068,0.7777777777777778,2,object_09,1,557,0,6,7,library_1,2,memory-2step-stake-s,546,1506921,0.0-19.0-0.0-0.47,A3BU69EKYL6SH3,30UZJB2PPKSSO21QHKUJ0S8JS3B35M,3L0KT67Y8IWXWQUJ835J8HAB90CSYE,6,5
48,3,object_04,object_01,739.91499998374,6,1,624.16000000667,0.8888888888888888,2,object_09,1,565,0,6,8,library_2,2,memory-2step-stake-s,547,1515603,0.0-19.0-0.0-0.48,A3BU69EKYL6SH3,30UZJB2PPKSSO21QHKUJ0S8JS3B35M,3L0KT67Y8IWXWQUJ835J8HAB90CSYE,6,5
49,3,object_01,object_04,1171.0449999664,5,1,596.71999997227,0.5555555555555556,1,object_06,1,570,0,5,7,library_2,2,memory-2step-stake-s,548,1523947,0.0-19.0-0.0-0.49,A3BU69EKYL6SH3,30UZJB2PPKSSO21QHKUJ0S8JS3B35M,3L0KT67Y8IWXWQUJ835J8HAB90CSYE,5,6
50,4,object_02,object_03,1066.9500000076,7,1,746.75499997102,0.6666666666666666,1,object_06,1,576,0,6,9,restaurant_7,2,memory-2step-stake-s,549,1532547,0.0-19.0-0.0-0.50,A3BU69EKYL6SH3,30UZJB2PPKSSO21QHKUJ0S8JS3B35M,3L0KT67Y8IWXWQUJ835J8HAB90CSYE,7,8
51,3,object_01,object_04,1206.8599999766,5,1,773.14499998465,0.6666666666666666,1,object_06,1,582,0,6,8,library_1,2,memory-2step-stake-s,550,1541186,0.0-19.0-0.0-0.51,A3BU69EKYL6SH3,30UZJB2PPKSSO21QHKUJ0S8JS3B35M,3L0KT67Y8IWXWQUJ835J8HAB90CSYE,5,6
52,4,object_03,object_02,-1.0,-1,-1,-1.0,0.0,-,0,5,582,0,5,5,restaurant_4,2,memory-2step-stake-s,551,1547713,0.0-19.0-0.0-0.52,A3BU69EKYL6SH3,30UZJB2PPKSSO21QHKUJ0S8JS3B35M,3L0KT67Y8IWXWQUJ835J8HAB90CSYE,8,7
53,1,object_05,object_07,912.23999997601,2,2,524.47999996366,0.6666666666666666,2,object_09,5,612,0,6,6,desert_4,2,memory-2step-stake-s,552,1556097,0.0-19.0-0.0-0.53,A3BU69EKYL6SH3,30UZJB2PPKSSO21QHKUJ0S8JS3B35M,3L0KT67Y8IWXWQUJ835J8HAB90CSYE,1,2
54,3,object_01,object_04,1000.1449999982,6,2,499.43999998504,0.5555555555555556,2,object_09,1,617,0,9,5,library_2,2,memory-2step-stake-s,553,1564344,0.0-19.0-0.0-0.54,A3BU69EKYL6SH3,30UZJB2PPKSSO21QHKUJ0S8JS3B35M,3L0KT67Y8IWXWQUJ835J8HAB90CSYE,5,6
55,4,object_02,object_03,977.72000002442,7,1,507.18000001507,0.8888888888888888,1,object_06,1,625,0,8,7,restaurant_5,2,memory-2step-stake-s,554,1572924,0.0-19.0-0.0-0.55,A3BU69EKYL6SH3,30UZJB2PPKSSO21QHKUJ0S8JS3B35M,3L0KT67Y8IWXWQUJ835J8HAB90CSYE,7,8
56,2,object_10,object_08,1097.5800000015,4,1,424.92000001948,0.8888888888888888,2,object_09,5,665,0,8,8,forest_3,2,memory-2step-stake-s,555,1581419,0.0-19.0-0.0-0.56,A3BU69EKYL6SH3,30UZJB2PPKSSO21QHKUJ0S8JS3B35M,3L0KT67Y8IWXWQUJ835J8HAB90CSYE,4,3
57,1,object_07,object_05,1420.7900000038,2,1,418.56499999994,1.0,2,object_09,5,710,0,7,9,desert_1,2,memory-2step-stake-s,556,1590013,0.0-19.0-0.0-0.57,A3BU69EKYL6SH3,30UZJB2PPKSSO21QHKUJ0S8JS3B35M,3L0KT67Y8IWXWQUJ835J8HAB90CSYE,2,1
58,3,object_04,object_01,1345.2849999885,5,2,481.73000005772,0.6666666666666666,1,object_06,1,716,0,6,7,library_4,2,memory-2step-stake-s,557,1598339,0.0-19.0-0.0-0.58,A3BU69EKYL6SH3,30UZJB2PPKSSO21QHKUJ0S8JS3B35M,3L0KT67Y8IWXWQUJ835J8HAB90CSYE,6,5
59,2,object_10,object_08,1374.3200000026,3,2,524.45999998599,0.5555555555555556,1,object_06,5,741,0,5,5,forest_8,2,memory-2step-stake-s,558,1606615,0.0-19.0-0.0-0.59,A3BU69EKYL6SH3,30UZJB2PPKSSO21QHKUJ0S8JS3B35M,3L0KT67Y8IWXWQUJ835J8HAB90CSYE,4,3
60,2,object_10,object_08,1233.0450000009,3,2,576.91499998327,0.3333333333333333,1,object_06,1,744,0,3,4,forest_8,2,memory-2step-stake-s,559,1614737,0.0-19.0-0.0-0.60,A3BU69EKYL6SH3,30UZJB2PPKSSO21QHKUJ0S8JS3B35M,3L0KT67Y8IWXWQUJ835J8HAB90CSYE,4,3
61,4,object_03,object_02,954.33500001673,7,2,668.00000000512,0.4444444444444444,1,object_06,1,748,0,4,6,restaurant_8,2,memory-2step-stake-s,560,1623057,0.0-19.0-0.0-0.61,A3BU69EKYL6SH3,30UZJB2PPKSSO21QHKUJ0S8JS3B35M,3L0KT67Y8IWXWQUJ835J8HAB90CSYE,8,7
62,1,object_07,object_05,921.89499997767,1,2,759.28499997826,0.1111111111111111,1,object_06,5,753,0,1,5,desert_1,2,memory-2step-stake-s,561,1631156,0.0-19.0-0.0-0.62,A3BU69EKYL6SH3,30UZJB2PPKSSO21QHKUJ0S8JS3B35M,3L0KT67Y8IWXWQUJ835J8HAB90CSYE,2,1
63,1,object_05,object_07,1158.6500000558,1,1,1053.7199999671,0.3333333333333333,1,object_06,5,768,0,3,5,desert_4,2,memory-2step-stake-s,562,1639765,0.0-19.0-0.0-0.63,A3BU69EKYL6SH3,30UZJB2PPKSSO21QHKUJ0S8JS3B35M,3L0KT67Y8IWXWQUJ835J8HAB90CSYE,1,2
64,1,object_07,object_05,594.88499996951,2,1,595.29500000644,0.6666666666666666,2,object_09,5,798,0,1,6,desert_6,2,memory-2step-stake-s,563,1648217,0.0-19.0-0.0-0.64,A3BU69EKYL6SH3,30UZJB2PPKSSO21QHKUJ0S8JS3B35M,3L0KT67Y8IWXWQUJ835J8HAB90CSYE,2,1
65,2,object_08,object_10,-1.0,-1,-1,-1.0,0.0,-,0,5,798,0,2,5,forest_8,2,memory-2step-stake-s,564,1654745,0.0-19.0-0.0-0.65,A3BU69EKYL6SH3,30UZJB2PPKSSO21QHKUJ0S8JS3B35M,3L0KT67Y8IWXWQUJ835J8HAB90CSYE,3,4
66,4,object_02,object_03,710.73499997146,8,2,495.29499997152,0.6666666666666666,2,object_09,1,804,0,0,6,restaurant_7,2,memory-2step-stake-s,565,1663088,0.0-19.0-0.0-0.66,A3BU69EKYL6SH3,30UZJB2PPKSSO21QHKUJ0S8JS3B35M,3L0KT67Y8IWXWQUJ835J8HAB90CSYE,7,8
67,3,object_01,object_04,928.71499998728,6,2,953.89999996405,0.5555555555555556,2,object_09,5,829,0,0,5,library_8,2,memory-2step-stake-s,566,1671786,0.0-19.0-0.0-0.67,A3BU69EKYL6SH3,30UZJB2PPKSSO21QHKUJ0S8JS3B35M,3L0KT67Y8IWXWQUJ835J8HAB90CSYE,5,6
68,3,object_04,object_01,890.30500000808,6,1,712.84499997273,0.3333333333333333,2,object_09,5,844,0,1,3,library_4,2,memory-2step-stake-s,567,1680044,0.0-19.0-0.0-0.68,A3BU69EKYL6SH3,30UZJB2PPKSSO21QHKUJ0S8JS3B35M,3L0KT67Y8IWXWQUJ835J8HAB90CSYE,6,5
69,1,object_07,object_05,1182.0350000053,1,2,640.69999998901,0.2222222222222222,1,object_06,5,854,0,2,2,desert_4,2,memory-2step-stake-s,568,1688125,0.0-19.0-0.0-0.69,A3BU69EKYL6SH3,30UZJB2PPKSSO21QHKUJ0S8JS3B35M,3L0KT67Y8IWXWQUJ835J8HAB90CSYE,2,1
70,4,object_02,object_03,895.63500002259,7,1,839.62499996414,0.4444444444444444,1,object_06,1,858,0,4,2,restaurant_4,2,memory-2step-stake-s,569,1696622,0.0-19.0-0.0-0.70,A3BU69EKYL6SH3,30UZJB2PPKSSO21QHKUJ0S8JS3B35M,3L0KT67Y8IWXWQUJ835J8HAB90CSYE,7,8
71,3,object_04,object_01,731.4100000076,5,2,739.54500001855,0.6666666666666666,1,object_06,1,864,0,6,3,library_8,2,memory-2step-stake-s,570,1705232,0.0-19.0-0.0-0.71,A3BU69EKYL6SH3,30UZJB2PPKSSO21QHKUJ0S8JS3B35M,3L0KT67Y8IWXWQUJ835J8HAB90CSYE,6,5
72,4,object_03,object_02,874.05499996385,8,1,500.93500001822,0.7777777777777778,2,object_09,1,871,0,7,7,restaurant_8,2,memory-2step-stake-s,571,1713699,0.0-19.0-0.0-0.72,A3BU69EKYL6SH3,30UZJB2PPKSSO21QHKUJ0S8JS3B35M,3L0KT67Y8IWXWQUJ835J8HAB90CSYE,8,7
73,2,object_10,object_08,942.61999998707,4,1,611.15999997128,0.5555555555555556,2,object_09,5,896,0,7,5,forest_3,2,memory-2step-stake-s,572,1722061,0.0-19.0-0.0-0.73,A3BU69EKYL6SH3,30UZJB2PPKSSO21QHKUJ0S8JS3B35M,3L0KT67Y8IWXWQUJ835J8HAB90CSYE,4,3
74,1,object_05,object_07,1113.9749999857,1,1,951.13000000129,0.6666666666666666,1,object_06,5,926,0,6,5,desert_3,2,memory-2step-stake-s,573,1730867,0.0-19.0-0.0-0.74,A3BU69EKYL6SH3,30UZJB2PPKSSO21QHKUJ0S8JS3B35M,3L0KT67Y8IWXWQUJ835J8HAB90CSYE,1,2
75,3,object_01,object_04,948.45999998506,5,1,643.47000000998,0.7777777777777778,1,object_06,1,933,0,7,5,library_4,2,memory-2step-stake-s,574,1739470,0.0-19.0-0.0-0.75,A3BU69EKYL6SH3,30UZJB2PPKSSO21QHKUJ0S8JS3B35M,3L0KT67Y8IWXWQUJ835J8HAB90CSYE,5,6
76,4,object_02,object_03,665.17500003101,8,2,472.60999999708,0.8888888888888888,2,object_09,1,941,0,9,8,restaurant_7,2,memory-2step-stake-s,575,1747996,0.0-19.0-0.0-0.76,A3BU69EKYL6SH3,30UZJB2PPKSSO21QHKUJ0S8JS3B35M,3L0KT67Y8IWXWQUJ835J8HAB90CSYE,7,8
77,4,object_02,object_03,1157.1899999981,7,1,561.56500003999,0.7777777777777778,1,object_06,1,948,0,7,9,restaurant_7,2,memory-2step-stake-s,576,1756514,0.0-19.0-0.0-0.77,A3BU69EKYL6SH3,30UZJB2PPKSSO21QHKUJ0S8JS3B35M,3L0KT67Y8IWXWQUJ835J8HAB90CSYE,7,8
78,3,object_04,object_01,1180.22499996,6,1,518.06000003126,0.8888888888888888,2,object_09,1,956,0,8,8,library_1,2,memory-2step-stake-s,577,1765093,0.0-19.0-0.0-0.78,A3BU69EKYL6SH3,30UZJB2PPKSSO21QHKUJ0S8JS3B35M,3L0KT67Y8IWXWQUJ835J8HAB90CSYE,6,5
79,1,object_07,object_05,1117.5799999619,1,2,-1.0,0.0,1,object_06,1,956,0,9,6,desert_4,2,memory-2step-stake-s,578,1773625,0.0-19.0-0.0-0.79,A3BU69EKYL6SH3,30UZJB2PPKSSO21QHKUJ0S8JS3B35M,3L0KT67Y8IWXWQUJ835J8HAB90CSYE,2,1
80,2,object_10,object_08,937.06500000553,4,1,493.93999995664,0.5555555555555556,2,object_09,5,981,0,6,5,forest_5,2,memory-2step-stake-s,579,1781865,0.0-19.0-0.0-0.80,A3BU69EKYL6SH3,30UZJB2PPKSSO21QHKUJ0S8JS3B35M,3L0KT67Y8IWXWQUJ835J8HAB90CSYE,4,3
81,3,object_01,object_04,849.57500000019,6,2,584.65000003343,0.4444444444444444,2,object_09,1,985,0,9,4,library_8,2,memory-2step-stake-s,580,1790107,0.0-19.0-0.0-0.81,A3BU69EKYL6SH3,30UZJB2PPKSSO21QHKUJ0S8JS3B35M,3L0KT67Y8IWXWQUJ835J8HAB90CSYE,5,6
82,3,object_01,object_04,766.8699999922,6,2,683.92500001937,0.3333333333333333,2,object_09,1,988,0,9,3,library_4,2,memory-2step-stake-s,581,1798341,0.0-19.0-0.0-0.82,A3BU69EKYL6SH3,30UZJB2PPKSSO21QHKUJ0S8JS3B35M,3L0KT67Y8IWXWQUJ835J8HAB90CSYE,5,6
83,4,object_03,object_02,976.73500003293,8,1,621.51500000618,0.4444444444444444,2,object_09,1,992,0,7,4,restaurant_4,2,memory-2step-stake-s,582,1806609,0.0-19.0-0.0-0.83,A3BU69EKYL6SH3,30UZJB2PPKSSO21QHKUJ0S8JS3B35M,3L0KT67Y8IWXWQUJ835J8HAB90CSYE,8,7
84,1,object_07,object_05,916.58499999903,2,1,778.57999998378,0.2222222222222222,2,object_09,5,1002,0,7,2,desert_6,2,memory-2step-stake-s,583,1814831,0.0-19.0-0.0-0.84,A3BU69EKYL6SH3,30UZJB2PPKSSO21QHKUJ0S8JS3B35M,3L0KT67Y8IWXWQUJ835J8HAB90CSYE,2,1
85,2,object_10,object_08,1356.4549999428,4,1,682.67000000924,0.1111111111111111,2,object_09,1,1003,0,7,1,forest_8,2,memory-2step-stake-s,584,1822855,0.0-19.0-0.0-0.85,A3BU69EKYL6SH3,30UZJB2PPKSSO21QHKUJ0S8JS3B35M,3L0KT67Y8IWXWQUJ835J8HAB90CSYE,4,3
86,1,object_07,object_05,1074.185000034,1,2,540.36499996437,1.0,1,object_06,5,1048,0,9,6,desert_1,2,memory-2step-stake-s,585,1831558,0.0-19.0-0.0-0.86,A3BU69EKYL6SH3,30UZJB2PPKSSO21QHKUJ0S8JS3B35M,3L0KT67Y8IWXWQUJ835J8HAB90CSYE,2,1
87,3,object_01,object_04,1004.6450000373,5,1,736.90000001807,0.7777777777777778,1,object_06,1,1055,0,7,4,library_4,2,memory-2step-stake-s,586,1840259,0.0-19.0-0.0-0.87,A3BU69EKYL6SH3,30UZJB2PPKSSO21QHKUJ0S8JS3B35M,3L0KT67Y8IWXWQUJ835J8HAB90CSYE,5,6
88,4,object_02,object_03,1048.935000028,7,1,551.01500003366,0.8888888888888888,1,object_06,5,1095,0,8,4,restaurant_7,2,memory-2step-stake-s,587,1848874,0.0-19.0-0.0-0.88,A3BU69EKYL6SH3,30UZJB2PPKSSO21QHKUJ0S8JS3B35M,3L0KT67Y8IWXWQUJ835J8HAB90CSYE,7,8
89,1,object_07,object_05,955.15499997418,2,1,947.8100000415,0.5555555555555556,2,object_09,5,1120,0,8,5,desert_3,2,memory-2step-stake-s,588,1857574,0.0-19.0-0.0-0.89,A3BU69EKYL6SH3,30UZJB2PPKSSO21QHKUJ0S8JS3B35M,3L0KT67Y8IWXWQUJ835J8HAB90CSYE,2,1
90,3,object_04,object_01,944.68499999493,5,2,546.23999999603,0.7777777777777778,1,object_06,1,1127,0,7,7,library_2,2,memory-2step-stake-s,589,1866090,0.0-19.0-0.0-0.90,A3BU69EKYL6SH3,30UZJB2PPKSSO21QHKUJ0S8JS3B35M,3L0KT67Y8IWXWQUJ835J8HAB90CSYE,6,5
91,2,object_10,object_08,1041.3999999873,4,1,594.74500000942,0.8888888888888888,2,object_09,5,1167,0,2,8,forest_8,2,memory-2step-stake-s,590,1874752,0.0-19.0-0.0-0.91,A3BU69EKYL6SH3,30UZJB2PPKSSO21QHKUJ0S8JS3B35M,3L0KT67Y8IWXWQUJ835J8HAB90CSYE,4,3
92,4,object_02,object_03,941.38499995461,8,2,548.62999997567,0.5555555555555556,2,object_09,5,1192,0,6,5,restaurant_8,2,memory-2step-stake-s,591,1883058,0.0-19.0-0.0-0.92,A3BU69EKYL6SH3,30UZJB2PPKSSO21QHKUJ0S8JS3B35M,3L0KT67Y8IWXWQUJ835J8HAB90CSYE,7,8
93,1,object_07,object_05,1272.2250000224,1,2,581.84499997878,0.7777777777777778,1,object_06,5,1227,0,7,4,desert_3,2,memory-2step-stake-s,592,1891590,0.0-19.0-0.0-0.93,A3BU69EKYL6SH3,30UZJB2PPKSSO21QHKUJ0S8JS3B35M,3L0KT67Y8IWXWQUJ835J8HAB90CSYE,2,1
94,3,object_04,object_01,1109.6649999963,5,2,504.29999997141,0.8888888888888888,1,object_06,5,1267,0,8,3,library_8,2,memory-2step-stake-s,593,1900163,0.0-19.0-0.0-0.94,A3BU69EKYL6SH3,30UZJB2PPKSSO21QHKUJ0S8JS3B35M,3L0KT67Y8IWXWQUJ835J8HAB90CSYE,6,5
95,2,object_08,object_10,1117.5599999842,4,2,556.27000000095,0.3333333333333333,2,object_09,5,1282,0,9,3,forest_5,2,memory-2step-stake-s,594,1908263,0.0-19.0-0.0-0.95,A3BU69EKYL6SH3,30UZJB2PPKSSO21QHKUJ0S8JS3B35M,3L0KT67Y8IWXWQUJ835J8HAB90CSYE,3,4
96,3,object_01,object_04,898.37500004796,6,2,1000.3700000234,0.8888888888888888,2,object_09,1,1290,0,8,8,library_8,2,memory-2step-stake-s,595,1917343,0.0-19.0-0.0-0.96,A3BU69EKYL6SH3,30UZJB2PPKSSO21QHKUJ0S8JS3B35M,3L0KT67Y8IWXWQUJ835J8HAB90CSYE,5,6
97,1,object_07,object_05,920.4150000005,1,2,691.20499998098,0.7777777777777778,1,object_06,5,1325,0,7,8,desert_3,2,memory-2step-stake-s,596,1925992,0.0-19.0-0.0-0.97,A3BU69EKYL6SH3,30UZJB2PPKSSO21QHKUJ0S8JS3B35M,3L0KT67Y8IWXWQUJ835J8HAB90CSYE,2,1
98,1,object_05,object_07,1126.425000024,2,2,588.57500000158,1.0,2,object_09,5,1370,0,2,9,desert_6,2,memory-2step-stake-s,597,1934759,0.0-19.0-0.0-0.98,A3BU69EKYL6SH3,30UZJB2PPKSSO21QHKUJ0S8JS3B35M,3L0KT67Y8IWXWQUJ835J8HAB90CSYE,1,2
99,2,object_08,object_10,961.30000002449,3,1,562.18499998795,0.1111111111111111,1,object_06,5,1375,0,1,8,forest_3,2,memory-2step-stake-s,598,1942652,0.0-19.0-0.0-0.99,A3BU69EKYL6SH3,30UZJB2PPKSSO21QHKUJ0S8JS3B35M,3L0KT67Y8IWXWQUJ835J8HAB90CSYE,3,4
100,2,object_10,object_08,927.75000003166,4,1,889.63499997044,0.8888888888888888,2,object_09,5,1415,0,1,8,forest_3,2,memory-2step-stake-s,599,1951604,0.0-19.0-0.0-0.100,A3BU69EKYL6SH3,30UZJB2PPKSSO21QHKUJ0S8JS3B35M,3L0KT67Y8IWXWQUJ835J8HAB90CSYE,4,3
101,4,object_02,object_03,909.90500000771,7,1,526.56000002753,0.1111111111111111,1,object_06,1,1416,0,1,5,restaurant_8,2,memory-2step-stake-s,600,1959470,0.0-19.0-0.0-0.101,A3BU69EKYL6SH3,30UZJB2PPKSSO21QHKUJ0S8JS3B35M,3L0KT67Y8IWXWQUJ835J8HAB90CSYE,7,8
102,2,object_08,object_10,1165.4700000072,4,2,429.26000000443,0.4444444444444444,2,object_09,5,1436,0,2,4,forest_2,2,memory-2step-stake-s,601,1967552,0.0-19.0-0.0-0.102,A3BU69EKYL6SH3,30UZJB2PPKSSO21QHKUJ0S8JS3B35M,3L0KT67Y8IWXWQUJ835J8HAB90CSYE,3,4
103,4,object_02,object_03,913.07000000961,7,1,382.55500001833,0.4444444444444444,1,object_06,1,1440,0,4,2,restaurant_5,2,memory-2step-stake-s,602,1975563,0.0-19.0-0.0-0.103,A3BU69EKYL6SH3,30UZJB2PPKSSO21QHKUJ0S8JS3B35M,3L0KT67Y8IWXWQUJ835J8HAB90CSYE,7,8
104,2,object_10,object_08,1253.3249999979,4,1,586.19000000181,0.2222222222222222,2,object_09,5,1450,0,6,2,forest_8,2,memory-2step-stake-s,603,1983593,0.0-19.0-0.0-0.104,A3BU69EKYL6SH3,30UZJB2PPKSSO21QHKUJ0S8JS3B35M,3L0KT67Y8IWXWQUJ835J8HAB90CSYE,4,3
105,1,object_05,object_07,949.729999993,1,1,393.28000001842,0.7777777777777778,1,object_06,5,1485,0,7,3,desert_3,2,memory-2step-stake-s,604,1991949,0.0-19.0-0.0-0.105,A3BU69EKYL6SH3,30UZJB2PPKSSO21QHKUJ0S8JS3B35M,3L0KT67Y8IWXWQUJ835J8HAB90CSYE,1,2
106,4,object_03,object_02,842.99999999348,8,1,512.36000005156,0.4444444444444444,2,object_09,1,1489,0,9,4,restaurant_8,2,memory-2step-stake-s,605,2000115,0.0-19.0-0.0-0.106,A3BU69EKYL6SH3,30UZJB2PPKSSO21QHKUJ0S8JS3B35M,3L0KT67Y8IWXWQUJ835J8HAB90CSYE,8,7
107,1,object_05,object_07,1139.6599999862,2,2,785.77499999665,0.3333333333333333,2,object_09,1,1492,0,8,3,desert_6,2,memory-2step-stake-s,606,2008444,0.0-19.0-0.0-0.107,A3BU69EKYL6SH3,30UZJB2PPKSSO21QHKUJ0S8JS3B35M,3L0KT67Y8IWXWQUJ835J8HAB90CSYE,1,2
108,4,object_03,object_02,803.82999998983,8,1,563.90000000829,0.5555555555555556,2,object_09,1,1497,0,5,5,restaurant_5,2,memory-2step-stake-s,607,2016764,0.0-19.0-0.0-0.108,A3BU69EKYL6SH3,30UZJB2PPKSSO21QHKUJ0S8JS3B35M,3L0KT67Y8IWXWQUJ835J8HAB90CSYE,8,7
109,1,object_07,object_05,1099.3400000152,2,1,687.9300000146,0.3333333333333333,2,object_09,5,1512,0,4,3,desert_3,2,memory-2step-stake-s,608,2025002,0.0-19.0-0.0-0.109,A3BU69EKYL6SH3,30UZJB2PPKSSO21QHKUJ0S8JS3B35M,3L0KT67Y8IWXWQUJ835J8HAB90CSYE,2,1
110,3,object_04,object_01,1203.7750000018,5,2,481.94499994861,0.5555555555555556,1,object_06,1,1517,0,5,7,library_1,2,memory-2step-stake-s,609,2033232,0.0-19.0-0.0-0.110,A3BU69EKYL6SH3,30UZJB2PPKSSO21QHKUJ0S8JS3B35M,3L0KT67Y8IWXWQUJ835J8HAB90CSYE,6,5
111,1,object_07,object_05,765.05499996711,2,1,374.94000000879,0.8888888888888888,2,object_09,5,1557,0,4,8,desert_6,2,memory-2step-stake-s,610,2041679,0.0-19.0-0.0-0.111,A3BU69EKYL6SH3,30UZJB2PPKSSO21QHKUJ0S8JS3B35M,3L0KT67Y8IWXWQUJ835J8HAB90CSYE,2,1
112,1,object_05,object_07,731.49499995634,2,2,417.85499994876,0.8888888888888888,2,object_09,5,1597,0,7,8,desert_4,2,memory-2step-stake-s,611,2050171,0.0-19.0-0.0-0.112,A3BU69EKYL6SH3,30UZJB2PPKSSO21QHKUJ0S8JS3B35M,3L0KT67Y8IWXWQUJ835J8HAB90CSYE,1,2
113,4,object_03,object_02,802.94500000309,7,2,453.36500002304,0.7777777777777778,1,object_06,5,1632,0,7,8,restaurant_7,2,memory-2step-stake-s,612,2058587,0.0-19.0-0.0-0.113,A3BU69EKYL6SH3,30UZJB2PPKSSO21QHKUJ0S8JS3B35M,3L0KT67Y8IWXWQUJ835J8HAB90CSYE,8,7
114,4,object_02,object_03,668.40999998385,8,2,475.54499999387,0.8888888888888888,2,object_09,1,1640,0,6,8,restaurant_5,2,memory-2step-stake-s,613,2067122,0.0-19.0-0.0-0.114,A3BU69EKYL6SH3,30UZJB2PPKSSO21QHKUJ0S8JS3B35M,3L0KT67Y8IWXWQUJ835J8HAB90CSYE,7,8
115,2,object_08,object_10,1188.1099999882,4,2,754.82000003103,1.0,2,object_09,5,1685,0,7,9,forest_2,2,memory-2step-stake-s,614,2076054,0.0-19.0-0.0-0.115,A3BU69EKYL6SH3,30UZJB2PPKSSO21QHKUJ0S8JS3B35M,3L0KT67Y8IWXWQUJ835J8HAB90CSYE,3,4
116,1,object_05,object_07,1221.9800000312,2,2,443.25499999104,0.8888888888888888,2,object_09,1,1693,0,6,8,desert_1,2,memory-2step-stake-s,615,2084572,0.0-19.0-0.0-0.116,A3BU69EKYL6SH3,30UZJB2PPKSSO21QHKUJ0S8JS3B35M,3L0KT67Y8IWXWQUJ835J8HAB90CSYE,1,2
117,3,object_04,object_01,915.24000000209,5,2,737.07500001183,1.0,1,object_06,1,1702,0,9,8,library_8,2,memory-2step-stake-s,616,2093470,0.0-19.0-0.0-0.117,A3BU69EKYL6SH3,30UZJB2PPKSSO21QHKUJ0S8JS3B35M,3L0KT67Y8IWXWQUJ835J8HAB90CSYE,6,5
118,1,object_05,object_07,687.44499998866,1,1,429.63500000769,0.6666666666666666,1,object_06,5,1732,0,6,9,desert_4,2,memory-2step-stake-s,617,2101762,0.0-19.0-0.0-0.118,A3BU69EKYL6SH3,30UZJB2PPKSSO21QHKUJ0S8JS3B35M,3L0KT67Y8IWXWQUJ835J8HAB90CSYE,1,2
119,3,object_04,object_01,920.56500003673,5,2,518.69499997701,0.5555555555555556,1,object_06,1,1737,0,5,6,library_2,2,memory-2step-stake-s,618,2110033,0.0-19.0-0.0-0.119,A3BU69EKYL6SH3,30UZJB2PPKSSO21QHKUJ0S8JS3B35M,3L0KT67Y8IWXWQUJ835J8HAB90CSYE,6,5
120,4,object_03,object_02,805.18000002485,7,2,537.81499998877,0.5555555555555556,1,object_06,1,1742,0,5,7,restaurant_5,2,memory-2step-stake-s,619,2118324,0.0-19.0-0.0-0.120,A3BU69EKYL6SH3,30UZJB2PPKSSO21QHKUJ0S8JS3B35M,3L0KT67Y8IWXWQUJ835J8HAB90CSYE,8,7
121,4,object_03,object_02,768.79499998176,7,2,782.56999998121,0.5555555555555556,1,object_06,1,1747,0,5,7,restaurant_8,2,memory-2step-stake-s,620,2126873,0.0-19.0-0.0-0.121,A3BU69EKYL6SH3,30UZJB2PPKSSO21QHKUJ0S8JS3B35M,3L0KT67Y8IWXWQUJ835J8HAB90CSYE,8,7
122,3,object_04,object_01,790.57999997167,5,2,687.63000000035,0.7777777777777778,1,object_06,1,1754,0,7,7,library_4,2,memory-2step-stake-s,621,2135515,0.0-19.0-0.0-0.122,A3BU69EKYL6SH3,30UZJB2PPKSSO21QHKUJ0S8JS3B35M,3L0KT67Y8IWXWQUJ835J8HAB90CSYE,6,5
123,2,object_10,object_08,984.88000000361,3,2,584.03500000713,0.7777777777777778,1,object_06,1,1761,0,7,5,forest_3,2,memory-2step-stake-s,622,2144061,0.0-19.0-0.0-0.123,A3BU69EKYL6SH3,30UZJB2PPKSSO21QHKUJ0S8JS3B35M,3L0KT67Y8IWXWQUJ835J8HAB90CSYE,4,3
124,4,object_02,object_03,759.45000001229,8,2,496.22000003001,0.5555555555555556,2,object_09,5,1786,0,6,5,restaurant_5,2,memory-2step-stake-s,623,2152311,0.0-19.0-0.0-0.124,A3BU69EKYL6SH3,30UZJB2PPKSSO21QHKUJ0S8JS3B35M,3L0KT67Y8IWXWQUJ835J8HAB90CSYE,7,8
125,1,object_05,object_07,797.51500004204,1,1,677.98500001663,0.6666666666666666,1,object_06,5,1816,0,6,4,desert_4,2,memory-2step-stake-s,624,2160848,0.0-19.0-0.0-0.125,A3BU69EKYL6SH3,30UZJB2PPKSSO21QHKUJ0S8JS3B35M,3L0KT67Y8IWXWQUJ835J8HAB90CSYE,1,2
126,3,object_01,object_04,1067.1599999769,6,2,823.19500000449,0.3333333333333333,2,object_09,1,1819,0,7,3,library_8,2,memory-2step-stake-s,625,2169217,0.0-19.0-0.0-0.126,A3BU69EKYL6SH3,30UZJB2PPKSSO21QHKUJ0S8JS3B35M,3L0KT67Y8IWXWQUJ835J8HAB90CSYE,5,6
127,1,object_05,object_07,983.61499997554,1,1,607.01499995776,0.5555555555555556,1,object_06,5,1844,0,5,4,desert_4,2,memory-2step-stake-s,626,2177577,0.0-19.0-0.0-0.127,A3BU69EKYL6SH3,30UZJB2PPKSSO21QHKUJ0S8JS3B35M,3L0KT67Y8IWXWQUJ835J8HAB90CSYE,1,2
128,1,object_07,object_05,822.55500002066,1,2,540.19500000868,0.3333333333333333,1,object_06,5,1859,0,3,5,desert_1,2,memory-2step-stake-s,628,2189696,0.0-19.0-0.1-0.128,A3BU69EKYL6SH3,30UZJB2PPKSSO21QHKUJ0S8JS3B35M,3L0KT67Y8IWXWQUJ835J8HAB90CSYE,2,1
129,2,object_08,object_10,1088.2250000141,4,2,1107.0850000251,0.5555555555555556,2,object_09,1,1864,0,2,5,forest_5,2,memory-2step-stake-s,629,2198539,0.0-19.0-0.1-0.129,A3BU69EKYL6SH3,30UZJB2PPKSSO21QHKUJ0S8JS3B35M,3L0KT67Y8IWXWQUJ835J8HAB90CSYE,3,4
130,2,object_10,object_08,900.8099999628,4,1,668.13499998534,0.1111111111111111,2,object_09,5,1869,0,0,1,forest_5,2,memory-2step-stake-s,630,2206549,0.0-19.0-0.1-0.130,A3BU69EKYL6SH3,30UZJB2PPKSSO21QHKUJ0S8JS3B35M,3L0KT67Y8IWXWQUJ835J8HAB90CSYE,4,3
131,4,object_03,object_02,963.88499997556,7,2,562.55000003148,0.0,1,object_06,5,1869,0,0,1,restaurant_5,2,memory-2step-stake-s,631,2214339,0.0-19.0-0.1-0.131,A3BU69EKYL6SH3,30UZJB2PPKSSO21QHKUJ0S8JS3B35M,3L0KT67Y8IWXWQUJ835J8HAB90CSYE,8,7
132,1,object_05,object_07,957.81000005081,2,2,696.02999999188,0.3333333333333333,2,object_09,1,1872,0,2,3,desert_1,2,memory-2step-stake-s,632,2222571,0.0-19.0-0.1-0.132,A3BU69EKYL6SH3,30UZJB2PPKSSO21QHKUJ0S8JS3B35M,3L0KT67Y8IWXWQUJ835J8HAB90CSYE,1,2
133,2,object_10,object_08,869.82000002172,3,2,483.12000004807,0.1111111111111111,1,object_06,5,1877,0,1,2,forest_5,2,memory-2step-stake-s,633,2230401,0.0-19.0-0.1-0.133,A3BU69EKYL6SH3,30UZJB2PPKSSO21QHKUJ0S8JS3B35M,3L0KT67Y8IWXWQUJ835J8HAB90CSYE,4,3
134,2,object_08,object_10,851.31499997806,4,2,624.94000000879,0.2222222222222222,2,object_09,5,1887,0,2,2,forest_8,2,memory-2step-stake-s,634,2238472,0.0-19.0-0.1-0.134,A3BU69EKYL6SH3,30UZJB2PPKSSO21QHKUJ0S8JS3B35M,3L0KT67Y8IWXWQUJ835J8HAB90CSYE,3,4
135,2,object_08,object_10,736.89000000013,4,2,767.15999998851,0.1111111111111111,2,object_09,5,1892,0,3,1,forest_2,2,memory-2step-stake-s,635,2246586,0.0-19.0-0.1-0.135,A3BU69EKYL6SH3,30UZJB2PPKSSO21QHKUJ0S8JS3B35M,3L0KT67Y8IWXWQUJ835J8HAB90CSYE,3,4
136,3,object_01,object_04,796.19999998249,6,2,563.88499995228,0.0,2,object_09,1,1892,0,3,0,library_8,2,memory-2step-stake-s,636,2254379,0.0-19.0-0.1-0.136,A3BU69EKYL6SH3,30UZJB2PPKSSO21QHKUJ0S8JS3B35M,3L0KT67Y8IWXWQUJ835J8HAB90CSYE,5,6
137,3,object_04,object_01,871.81499996223,5,2,429.65000000549,0.5555555555555556,1,object_06,1,1897,0,5,0,library_1,2,memory-2step-stake-s,637,2262555,0.0-19.0-0.1-0.137,A3BU69EKYL6SH3,30UZJB2PPKSSO21QHKUJ0S8JS3B35M,3L0KT67Y8IWXWQUJ835J8HAB90CSYE,6,5
138,3,object_04,object_01,972.7000000421,5,2,809.41500002518,0.4444444444444444,1,object_06,5,1917,0,4,1,library_8,2,memory-2step-stake-s,638,2271006,0.0-19.0-0.1-0.138,A3BU69EKYL6SH3,30UZJB2PPKSSO21QHKUJ0S8JS3B35M,3L0KT67Y8IWXWQUJ835J8HAB90CSYE,6,5
139,2,object_08,object_10,963.89000001363,4,2,729.69999996712,0.2222222222222222,2,object_09,5,1927,0,7,2,forest_8,2,memory-2step-stake-s,639,2279181,0.0-19.0-0.1-0.139,A3BU69EKYL6SH3,30UZJB2PPKSSO21QHKUJ0S8JS3B35M,3L0KT67Y8IWXWQUJ835J8HAB90CSYE,3,4
140,4,object_02,object_03,956.2750000041,8,2,634.75999998627,0.1111111111111111,2,object_09,5,1932,0,8,1,restaurant_8,2,memory-2step-stake-s,640,2287154,0.0-19.0-0.1-0.140,A3BU69EKYL6SH3,30UZJB2PPKSSO21QHKUJ0S8JS3B35M,3L0KT67Y8IWXWQUJ835J8HAB90CSYE,7,8
141,2,object_08,object_10,977.8299999889,3,1,1140.1850000257,1.0,1,object_06,5,1977,0,9,3,forest_8,2,memory-2step-stake-s,641,2296469,0.0-19.0-0.1-0.141,A3BU69EKYL6SH3,30UZJB2PPKSSO21QHKUJ0S8JS3B35M,3L0KT67Y8IWXWQUJ835J8HAB90CSYE,3,4
142,3,object_01,object_04,764.22000001185,5,1,833.41500000097,0.7777777777777778,1,object_06,5,2012,0,7,6,library_4,2,memory-2step-stake-s,642,2305267,0.0-19.0-0.1-0.142,A3BU69EKYL6SH3,30UZJB2PPKSSO21QHKUJ0S8JS3B35M,3L0KT67Y8IWXWQUJ835J8HAB90CSYE,5,6
143,4,object_03,object_02,928.33999998402,7,2,798.41500002658,0.5555555555555556,1,object_06,5,2037,0,5,7,restaurant_4,2,memory-2step-stake-s,643,2313819,0.0-19.0-0.1-0.143,A3BU69EKYL6SH3,30UZJB2PPKSSO21QHKUJ0S8JS3B35M,3L0KT67Y8IWXWQUJ835J8HAB90CSYE,8,7
144,3,object_04,object_01,858.32499997923,6,1,533.57999998843,0.6666666666666666,2,object_09,1,2043,0,3,6,library_1,2,memory-2step-stake-s,644,2322200,0.0-19.0-0.1-0.144,A3BU69EKYL6SH3,30UZJB2PPKSSO21QHKUJ0S8JS3B35M,3L0KT67Y8IWXWQUJ835J8HAB90CSYE,6,5
145,4,object_02,object_03,883.0050000106,8,2,1281.4549999894,0.6666666666666666,2,object_09,1,2049,0,3,6,restaurant_7,2,memory-2step-stake-s,645,2331346,0.0-19.0-0.1-0.145,A3BU69EKYL6SH3,30UZJB2PPKSSO21QHKUJ0S8JS3B35M,3L0KT67Y8IWXWQUJ835J8HAB90CSYE,7,8
146,2,object_10,object_08,1439.7350000218,4,1,862.84499999601,0.6666666666666666,2,object_09,5,2079,0,4,6,forest_5,2,memory-2step-stake-s,646,2340073,0.0-19.0-0.1-0.146,A3BU69EKYL6SH3,30UZJB2PPKSSO21QHKUJ0S8JS3B35M,3L0KT67Y8IWXWQUJ835J8HAB90CSYE,4,3
147,2,object_08,object_10,938.56999999844,4,2,688.28499998199,0.4444444444444444,2,object_09,1,2083,0,5,4,forest_5,2,memory-2step-stake-s,647,2348397,0.0-19.0-0.1-0.147,A3BU69EKYL6SH3,30UZJB2PPKSSO21QHKUJ0S8JS3B35M,3L0KT67Y8IWXWQUJ835J8HAB90CSYE,3,4
148,1,object_05,object_07,1145.6400000025,1,1,819.01999999536,0.7777777777777778,1,object_06,5,2118,0,7,3,desert_1,2,memory-2step-stake-s,648,2357175,0.0-19.0-0.1-0.148,A3BU69EKYL6SH3,30UZJB2PPKSSO21QHKUJ0S8JS3B35M,3L0KT67Y8IWXWQUJ835J8HAB90CSYE,1,2
149,1,object_05,object_07,899.32999998564,1,1,671.61999997916,0.8888888888888888,1,object_06,5,2158,0,8,4,desert_3,2,memory-2step-stake-s,649,2365915,0.0-19.0-0.1-0.149,A3BU69EKYL6SH3,30UZJB2PPKSSO21QHKUJ0S8JS3B35M,3L0KT67Y8IWXWQUJ835J8HAB90CSYE,1,2
150,4,object_03,object_02,928.18000004627,7,2,544.7549999808,0.5555555555555556,1,object_06,1,2163,0,5,2,restaurant_8,2,memory-2step-stake-s,650,2374205,0.0-19.0-0.1-0.150,A3BU69EKYL6SH3,30UZJB2PPKSSO21QHKUJ0S8JS3B35M,3L0KT67Y8IWXWQUJ835J8HAB90CSYE,8,7
151,2,object_08,object_10,769.86999996006,3,1,843.87500002049,0.1111111111111111,1,object_06,5,2168,0,1,1,forest_2,2,memory-2step-stake-s,651,2382386,0.0-19.0-0.1-0.151,A3BU69EKYL6SH3,30UZJB2PPKSSO21QHKUJ0S8JS3B35M,3L0KT67Y8IWXWQUJ835J8HAB90CSYE,3,4
152,3,object_01,object_04,1033.3600000013,6,2,548.34499995923,0.2222222222222222,2,object_09,1,2170,0,0,2,library_4,2,memory-2step-stake-s,652,2390377,0.0-19.0-0.1-0.152,A3BU69EKYL6SH3,30UZJB2PPKSSO21QHKUJ0S8JS3B35M,3L0KT67Y8IWXWQUJ835J8HAB90CSYE,5,6
153,4,object_02,object_03,762.68500002334,8,2,755.59499999508,0.6666666666666666,2,object_09,1,2176,0,3,6,restaurant_4,2,memory-2step-stake-s,653,2398996,0.0-19.0-0.1-0.153,A3BU69EKYL6SH3,30UZJB2PPKSSO21QHKUJ0S8JS3B35M,3L0KT67Y8IWXWQUJ835J8HAB90CSYE,7,8
154,2,object_08,object_10,744.9299999862,4,2,631.46500004223,0.4444444444444444,2,object_09,5,2196,0,0,4,forest_2,2,memory-2step-stake-s,654,2407278,0.0-19.0-0.1-0.154,A3BU69EKYL6SH3,30UZJB2PPKSSO21QHKUJ0S8JS3B35M,3L0KT67Y8IWXWQUJ835J8HAB90CSYE,3,4
155,1,object_05,object_07,877.37000000197,1,1,643.68499995908,0.1111111111111111,1,object_06,5,2201,0,1,7,desert_1,2,memory-2step-stake-s,655,2415259,0.0-19.0-0.1-0.155,A3BU69EKYL6SH3,30UZJB2PPKSSO21QHKUJ0S8JS3B35M,3L0KT67Y8IWXWQUJ835J8HAB90CSYE,1,2
156,4,object_03,object_02,1240.5850000214,8,1,550.9299999685,0.7777777777777778,2,object_09,1,2208,0,0,7,restaurant_7,2,memory-2step-stake-s,656,2423777,0.0-19.0-0.1-0.156,A3BU69EKYL6SH3,30UZJB2PPKSSO21QHKUJ0S8JS3B35M,3L0KT67Y8IWXWQUJ835J8HAB90CSYE,8,7
157,4,object_03,object_02,869.7299999767,7,2,524.13000003435,0.2222222222222222,1,object_06,1,2210,0,2,6,restaurant_4,2,memory-2step-stake-s,657,2431735,0.0-19.0-0.1-0.157,A3BU69EKYL6SH3,30UZJB2PPKSSO21QHKUJ0S8JS3B35M,3L0KT67Y8IWXWQUJ835J8HAB90CSYE,8,7
158,2,object_10,object_08,759.61499998812,4,1,646.06499997899,0.5555555555555556,2,object_09,5,2235,0,4,5,forest_3,2,memory-2step-stake-s,658,2440130,0.0-19.0-0.1-0.158,A3BU69EKYL6SH3,30UZJB2PPKSSO21QHKUJ0S8JS3B35M,3L0KT67Y8IWXWQUJ835J8HAB90CSYE,4,3
159,2,object_08,object_10,862.97999997623,4,2,525.08500003023,0.3333333333333333,2,object_09,5,2250,0,0,3,forest_5,2,memory-2step-stake-s,659,2448199,0.0-19.0-0.1-0.159,A3BU69EKYL6SH3,30UZJB2PPKSSO21QHKUJ0S8JS3B35M,3L0KT67Y8IWXWQUJ835J8HAB90CSYE,3,4
160,1,object_07,object_05,1098.2899999944,1,2,590.9850000171,0.2222222222222222,1,object_06,1,2252,0,2,6,desert_1,2,memory-2step-stake-s,660,2456228,0.0-19.0-0.1-0.160,A3BU69EKYL6SH3,30UZJB2PPKSSO21QHKUJ0S8JS3B35M,3L0KT67Y8IWXWQUJ835J8HAB90CSYE,2,1
161,2,object_08,object_10,873.72999999207,4,2,663.33000001032,0.4444444444444444,2,object_09,5,2272,0,2,4,forest_8,2,memory-2step-stake-s,661,2464545,0.0-19.0-0.1-0.161,A3BU69EKYL6SH3,30UZJB2PPKSSO21QHKUJ0S8JS3B35M,3L0KT67Y8IWXWQUJ835J8HAB90CSYE,3,4
162,2,object_08,object_10,659.03000003891,4,2,505.47500001267,0.2222222222222222,2,object_09,5,2282,0,3,2,forest_2,2,memory-2step-stake-s,662,2472505,0.0-19.0-0.1-0.162,A3BU69EKYL6SH3,30UZJB2PPKSSO21QHKUJ0S8JS3B35M,3L0KT67Y8IWXWQUJ835J8HAB90CSYE,3,4
163,3,object_04,object_01,845.97999998368,5,2,622.04499996733,0.5555555555555556,1,object_06,1,2287,0,5,2,library_4,2,memory-2step-stake-s,663,2480886,0.0-19.0-0.1-0.163,A3BU69EKYL6SH3,30UZJB2PPKSSO21QHKUJ0S8JS3B35M,3L0KT67Y8IWXWQUJ835J8HAB90CSYE,6,5
164,4,object_03,object_02,1053.115000017,7,2,909.62000004947,0.3333333333333333,1,object_06,1,2290,0,3,2,restaurant_4,2,memory-2step-stake-s,664,2489341,0.0-19.0-0.1-0.164,A3BU69EKYL6SH3,30UZJB2PPKSSO21QHKUJ0S8JS3B35M,3L0KT67Y8IWXWQUJ835J8HAB90CSYE,8,7
165,4,object_03,object_02,662.29000000749,7,2,690.75000000885,0.5555555555555556,1,object_06,1,2295,0,5,3,restaurant_4,2,memory-2step-stake-s,665,2497795,0.0-19.0-0.1-0.165,A3BU69EKYL6SH3,30UZJB2PPKSSO21QHKUJ0S8JS3B35M,3L0KT67Y8IWXWQUJ835J8HAB90CSYE,8,7
166,4,object_02,object_03,832.47000002302,8,2,605.27999995975,0.3333333333333333,2,object_09,1,2298,0,5,3,restaurant_4,2,memory-2step-stake-s,666,2505953,0.0-19.0-0.1-0.166,A3BU69EKYL6SH3,30UZJB2PPKSSO21QHKUJ0S8JS3B35M,3L0KT67Y8IWXWQUJ835J8HAB90CSYE,7,8
167,4,object_03,object_02,777.15500001796,7,2,607.33999998774,0.6666666666666666,1,object_06,1,2304,0,6,8,restaurant_5,2,memory-2step-stake-s,667,2514424,0.0-19.0-0.1-0.167,A3BU69EKYL6SH3,30UZJB2PPKSSO21QHKUJ0S8JS3B35M,3L0KT67Y8IWXWQUJ835J8HAB90CSYE,8,7
168,2,object_08,object_10,738.95999998786,4,2,424.50999998255,0.7777777777777778,2,object_09,5,2339,0,6,7,forest_2,2,memory-2step-stake-s,668,2522812,0.0-19.0-0.1-0.168,A3BU69EKYL6SH3,30UZJB2PPKSSO21QHKUJ0S8JS3B35M,3L0KT67Y8IWXWQUJ835J8HAB90CSYE,3,4
169,1,object_07,object_05,772.97500002896,1,2,499.42999996711,0.5555555555555556,1,object_06,1,2344,0,5,9,desert_1,2,memory-2step-stake-s,669,2531057,0.0-19.0-0.1-0.169,A3BU69EKYL6SH3,30UZJB2PPKSSO21QHKUJ0S8JS3B35M,3L0KT67Y8IWXWQUJ835J8HAB90CSYE,2,1
170,4,object_02,object_03,796.74499999965,8,2,464.57000001101,0.8888888888888888,2,object_09,1,2352,0,5,8,restaurant_4,2,memory-2step-stake-s,670,2539583,0.0-19.0-0.1-0.170,A3BU69EKYL6SH3,30UZJB2PPKSSO21QHKUJ0S8JS3B35M,3L0KT67Y8IWXWQUJ835J8HAB90CSYE,7,8
171,2,object_10,object_08,939.49000001885,4,1,739.78000000352,0.8888888888888888,2,object_09,5,2392,0,6,8,forest_3,2,memory-2step-stake-s,671,2548376,0.0-19.0-0.1-0.171,A3BU69EKYL6SH3,30UZJB2PPKSSO21QHKUJ0S8JS3B35M,3L0KT67Y8IWXWQUJ835J8HAB90CSYE,4,3
172,3,object_04,object_01,850.04499997012,5,2,619.81500004185,0.4444444444444444,1,object_06,1,2396,0,4,6,library_1,2,memory-2step-stake-s,672,2556651,0.0-19.0-0.1-0.172,A3BU69EKYL6SH3,30UZJB2PPKSSO21QHKUJ0S8JS3B35M,3L0KT67Y8IWXWQUJ835J8HAB90CSYE,6,5
173,4,object_02,object_03,838.15500000492,7,1,878.59999999637,0.3333333333333333,1,object_06,1,2399,0,3,2,restaurant_5,2,memory-2step-stake-s,673,2565082,0.0-19.0-0.1-0.173,A3BU69EKYL6SH3,30UZJB2PPKSSO21QHKUJ0S8JS3B35M,3L0KT67Y8IWXWQUJ835J8HAB90CSYE,7,8
174,1,object_07,object_05,1034.88500003,2,1,611.03999998886,0.5555555555555556,2,object_09,1,2404,0,6,5,desert_1,2,memory-2step-stake-s,674,2573444,0.0-19.0-0.1-0.174,A3BU69EKYL6SH3,30UZJB2PPKSSO21QHKUJ0S8JS3B35M,3L0KT67Y8IWXWQUJ835J8HAB90CSYE,2,1
175,2,object_08,object_10,877.44500004919,4,2,604.12500001257,0.4444444444444444,2,object_09,5,2424,0,6,4,forest_3,2,memory-2step-stake-s,675,2581710,0.0-19.0-0.1-0.175,A3BU69EKYL6SH3,30UZJB2PPKSSO21QHKUJ0S8JS3B35M,3L0KT67Y8IWXWQUJ835J8HAB90CSYE,3,4
176,4,object_02,object_03,778.75499997754,7,1,720.75999999652,0.6666666666666666,1,object_06,5,2454,0,6,1,restaurant_8,2,memory-2step-stake-s,676,2590285,0.0-19.0-0.1-0.176,A3BU69EKYL6SH3,30UZJB2PPKSSO21QHKUJ0S8JS3B35M,3L0KT67Y8IWXWQUJ835J8HAB90CSYE,7,8
177,2,object_08,object_10,940.895000007,3,1,979.40000001108,0.5555555555555556,1,object_06,5,2479,0,5,1,forest_8,2,memory-2step-stake-s,677,2599014,0.0-19.0-0.1-0.177,A3BU69EKYL6SH3,30UZJB2PPKSSO21QHKUJ0S8JS3B35M,3L0KT67Y8IWXWQUJ835J8HAB90CSYE,3,4
178,1,object_07,object_05,1122.3199999658,2,1,600.56000004988,0.5555555555555556,2,object_09,5,2504,0,2,5,desert_6,2,memory-2step-stake-s,678,2607357,0.0-19.0-0.1-0.178,A3BU69EKYL6SH3,30UZJB2PPKSSO21QHKUJ0S8JS3B35M,3L0KT67Y8IWXWQUJ835J8HAB90CSYE,2,1
179,4,object_02,object_03,755.59500005329,8,2,858.50999999093,0.4444444444444444,2,object_09,1,2508,0,3,4,restaurant_8,2,memory-2step-stake-s,679,2615849,0.0-19.0-0.1-0.179,A3BU69EKYL6SH3,30UZJB2PPKSSO21QHKUJ0S8JS3B35M,3L0KT67Y8IWXWQUJ835J8HAB90CSYE,7,8
180,2,object_10,object_08,943.42000002507,3,2,821.51499995962,0.2222222222222222,1,object_06,5,2518,0,2,3,forest_3,2,memory-2step-stake-s,680,2624118,0.0-19.0-0.1-0.180,A3BU69EKYL6SH3,30UZJB2PPKSSO21QHKUJ0S8JS3B35M,3L0KT67Y8IWXWQUJ835J8HAB90CSYE,4,3
181,3,object_04,object_01,756.31999998586,6,1,602.92999999365,0.1111111111111111,2,object_09,5,2523,0,1,1,library_2,2,memory-2step-stake-s,681,2632063,0.0-19.0-0.1-0.181,A3BU69EKYL6SH3,30UZJB2PPKSSO21QHKUJ0S8JS3B35M,3L0KT67Y8IWXWQUJ835J8HAB90CSYE,6,5
182,3,object_04,object_01,984.40000001574,5,2,562.89499998093,0.1111111111111111,1,object_06,1,2524,0,1,2,library_8,2,memory-2step-stake-s,682,2639966,0.0-19.0-0.1-0.182,A3BU69EKYL6SH3,30UZJB2PPKSSO21QHKUJ0S8JS3B35M,3L0KT67Y8IWXWQUJ835J8HAB90CSYE,6,5
183,1,object_05,object_07,884.43500001449,2,2,704.19000001857,0.2222222222222222,2,object_09,5,2534,0,1,2,desert_1,2,memory-2step-stake-s,683,2648111,0.0-19.0-0.1-0.183,A3BU69EKYL6SH3,30UZJB2PPKSSO21QHKUJ0S8JS3B35M,3L0KT67Y8IWXWQUJ835J8HAB90CSYE,1,2
184,3,object_01,object_04,894.05999996234,6,2,901.41499997117,0.5555555555555556,2,object_09,1,2539,0,3,5,library_1,2,memory-2step-stake-s,684,2656771,0.0-19.0-0.1-0.184,A3BU69EKYL6SH3,30UZJB2PPKSSO21QHKUJ0S8JS3B35M,3L0KT67Y8IWXWQUJ835J8HAB90CSYE,5,6
185,1,object_07,object_05,1297.7700000047,2,1,550.14999996638,0.8888888888888888,2,object_09,5,2579,0,4,8,desert_4,2,memory-2step-stake-s,685,2665377,0.0-19.0-0.1-0.185,A3BU69EKYL6SH3,30UZJB2PPKSSO21QHKUJ0S8JS3B35M,3L0KT67Y8IWXWQUJ835J8HAB90CSYE,2,1
186,2,object_08,object_10,1139.6199999726,4,2,602.27499995381,0.7777777777777778,2,object_09,5,2614,0,3,7,forest_3,2,memory-2step-stake-s,686,2673943,0.0-19.0-0.1-0.186,A3BU69EKYL6SH3,30UZJB2PPKSSO21QHKUJ0S8JS3B35M,3L0KT67Y8IWXWQUJ835J8HAB90CSYE,3,4
187,3,object_01,object_04,905.67999996711,5,1,735.72499997681,0.2222222222222222,1,object_06,1,2616,0,2,6,library_2,2,memory-2step-stake-s,687,2682114,0.0-19.0-0.1-0.187,A3BU69EKYL6SH3,30UZJB2PPKSSO21QHKUJ0S8JS3B35M,3L0KT67Y8IWXWQUJ835J8HAB90CSYE,5,6
188,1,object_05,object_07,866.90500000259,1,1,549.41500001587,0.1111111111111111,1,object_06,5,2621,0,1,7,desert_3,2,memory-2step-stake-s,688,2690002,0.0-19.0-0.1-0.188,A3BU69EKYL6SH3,30UZJB2PPKSSO21QHKUJ0S8JS3B35M,3L0KT67Y8IWXWQUJ835J8HAB90CSYE,1,2
189,2,object_10,object_08,1117.6600000472,3,2,867.93000000762,0.2222222222222222,1,object_06,5,2631,0,2,7,forest_2,2,memory-2step-stake-s,689,2698317,0.0-19.0-0.1-0.189,A3BU69EKYL6SH3,30UZJB2PPKSSO21QHKUJ0S8JS3B35M,3L0KT67Y8IWXWQUJ835J8HAB90CSYE,4,3
190,4,object_03,object_02,1083.4000000032,8,1,724.91000004811,0.4444444444444444,2,object_09,1,2635,0,1,4,restaurant_7,2,memory-2step-stake-s,690,2706692,0.0-19.0-0.1-0.190,A3BU69EKYL6SH3,30UZJB2PPKSSO21QHKUJ0S8JS3B35M,3L0KT67Y8IWXWQUJ835J8HAB90CSYE,8,7
191,3,object_01,object_04,1282.7849999885,6,2,488.20500000147,0.3333333333333333,2,object_09,5,2650,0,2,3,library_1,2,memory-2step-stake-s,691,2714734,0.0-19.0-0.1-0.191,A3BU69EKYL6SH3,30UZJB2PPKSSO21QHKUJ0S8JS3B35M,3L0KT67Y8IWXWQUJ835J8HAB90CSYE,5,6
192,1,object_05,object_07,928.3750000177,2,2,718.7200000044,0.3333333333333333,2,object_09,1,2653,0,2,3,desert_3,2,memory-2step-stake-s,692,2723001,0.0-19.0-0.1-0.192,A3BU69EKYL6SH3,30UZJB2PPKSSO21QHKUJ0S8JS3B35M,3L0KT67Y8IWXWQUJ835J8HAB90CSYE,1,2
193,3,object_04,object_01,920.05499999505,6,1,914.31000002194,0.4444444444444444,2,object_09,1,2657,0,2,4,library_8,2,memory-2step-stake-s,693,2731569,0.0-19.0-0.1-0.193,A3BU69EKYL6SH3,30UZJB2PPKSSO21QHKUJ0S8JS3B35M,3L0KT67Y8IWXWQUJ835J8HAB90CSYE,6,5
194,1,object_07,object_05,1071.6350000002,2,1,590.92500002589,0.2222222222222222,2,object_09,5,2667,0,6,2,desert_4,2,memory-2step-stake-s,694,2739606,0.0-19.0-0.1-0.194,A3BU69EKYL6SH3,30UZJB2PPKSSO21QHKUJ0S8JS3B35M,3L0KT67Y8IWXWQUJ835J8HAB90CSYE,2,1
195,3,object_01,object_04,885.2800000459,6,2,614.67500001891,0.3333333333333333,2,object_09,1,2670,0,6,3,library_1,2,memory-2step-stake-s,695,2747765,0.0-19.0-0.1-0.195,A3BU69EKYL6SH3,30UZJB2PPKSSO21QHKUJ0S8JS3B35M,3L0KT67Y8IWXWQUJ835J8HAB90CSYE,5,6
196,1,object_05,object_07,848.07000000728,2,2,670.71999999462,0.1111111111111111,2,object_09,5,2675,0,5,1,desert_6,2,memory-2step-stake-s,696,2755774,0.0-19.0-0.1-0.196,A3BU69EKYL6SH3,30UZJB2PPKSSO21QHKUJ0S8JS3B35M,3L0KT67Y8IWXWQUJ835J8HAB90CSYE,1,2
197,2,object_08,object_10,765.89999999851,3,1,807.39499995252,0.5555555555555556,1,object_06,5,2700,0,5,4,forest_8,2,memory-2step-stake-s,697,2764330,0.0-19.0-0.1-0.197,A3BU69EKYL6SH3,30UZJB2PPKSSO21QHKUJ0S8JS3B35M,3L0KT67Y8IWXWQUJ835J8HAB90CSYE,3,4
198,4,object_02,object_03,766.85999997426,8,2,736.66499997489,0.1111111111111111,2,object_09,1,2701,0,6,1,restaurant_7,2,memory-2step-stake-s,698,2772390,0.0-19.0-0.1-0.198,A3BU69EKYL6SH3,30UZJB2PPKSSO21QHKUJ0S8JS3B35M,3L0KT67Y8IWXWQUJ835J8HAB90CSYE,7,8
199,1,object_07,object_05,790.3299999889,1,2,837.1750000515,1.0,1,object_06,5,2746,0,9,1,desert_6,2,memory-2step-stake-s,699,2781406,0.0-19.0-0.1-0.199,A3BU69EKYL6SH3,30UZJB2PPKSSO21QHKUJ0S8JS3B35M,3L0KT67Y8IWXWQUJ835J8HAB90CSYE,2,1
200,4,object_03,object_02,1208.4449999966,8,1,624.50999999419,0.3333333333333333,2,object_09,1,2749,0,6,3,restaurant_5,2,memory-2step-stake-s,700,2789579,0.0-19.0-0.1-0.200,A3BU69EKYL6SH3,30UZJB2PPKSSO21QHKUJ0S8JS3B35M,3L0KT67Y8IWXWQUJ835J8HAB90CSYE,8,7
201,1,object_05,object_07,804.46999997366,1,1,510.5999999796,0.3333333333333333,1,object_06,5,2764,0,3,6,desert_1,2,memory-2step-stake-s,701,2797633,0.0-19.0-0.1-0.201,A3BU69EKYL6SH3,30UZJB2PPKSSO21QHKUJ0S8JS3B35M,3L0KT67Y8IWXWQUJ835J8HAB90CSYE,1,2
202,2,object_10,object_08,1065.5849999748,4,1,585.01999999862,0.7777777777777778,2,object_09,1,2771,0,7,7,forest_8,2,memory-2step-stake-s,702,2806169,0.0-19.0-0.1-0.202,A3BU69EKYL6SH3,30UZJB2PPKSSO21QHKUJ0S8JS3B35M,3L0KT67Y8IWXWQUJ835J8HAB90CSYE,4,3
203,1,object_05,object_07,959.2249999987,2,2,653.55499996804,0.6666666666666666,2,object_09,1,2777,0,8,6,desert_4,2,memory-2step-stake-s,703,2814689,0.0-19.0-0.1-0.203,A3BU69EKYL6SH3,30UZJB2PPKSSO21QHKUJ0S8JS3B35M,3L0KT67Y8IWXWQUJ835J8HAB90CSYE,1,2
204,4,object_02,object_03,839.89000000292,7,1,502.97500001034,0.7777777777777778,1,object_06,1,2784,0,7,5,restaurant_7,2,memory-2step-stake-s,704,2823148,0.0-19.0-0.1-0.204,A3BU69EKYL6SH3,30UZJB2PPKSSO21QHKUJ0S8JS3B35M,3L0KT67Y8IWXWQUJ835J8HAB90CSYE,7,8
205,3,object_04,object_01,1324.4649999542,6,1,642.69999996759,1.0,2,object_09,1,2793,0,5,9,library_2,2,memory-2step-stake-s,705,2831959,0.0-19.0-0.1-0.205,A3BU69EKYL6SH3,30UZJB2PPKSSO21QHKUJ0S8JS3B35M,3L0KT67Y8IWXWQUJ835J8HAB90CSYE,6,5
206,4,object_03,object_02,802.38500004634,7,2,488.60500002047,0.5555555555555556,1,object_06,1,2798,0,5,8,restaurant_4,2,memory-2step-stake-s,706,2840199,0.0-19.0-0.1-0.206,A3BU69EKYL6SH3,30UZJB2PPKSSO21QHKUJ0S8JS3B35M,3L0KT67Y8IWXWQUJ835J8HAB90CSYE,8,7
207,4,object_02,object_03,888.21000000462,8,2,510.50500001293,0.7777777777777778,2,object_09,1,2805,0,7,7,restaurant_5,2,memory-2step-stake-s,707,2848669,0.0-19.0-0.1-0.207,A3BU69EKYL6SH3,30UZJB2PPKSSO21QHKUJ0S8JS3B35M,3L0KT67Y8IWXWQUJ835J8HAB90CSYE,7,8
208,4,object_02,object_03,1015.1000000187,8,2,682.1700000437,0.6666666666666666,2,object_09,1,2811,0,3,6,restaurant_7,2,memory-2step-stake-s,708,2857202,0.0-19.0-0.1-0.208,A3BU69EKYL6SH3,30UZJB2PPKSSO21QHKUJ0S8JS3B35M,3L0KT67Y8IWXWQUJ835J8HAB90CSYE,7,8
209,2,object_10,object_08,957.72000000579,4,1,560.08999998448,0.1111111111111111,2,object_09,5,2816,0,5,1,forest_8,2,memory-2step-stake-s,709,2865090,0.0-19.0-0.1-0.209,A3BU69EKYL6SH3,30UZJB2PPKSSO21QHKUJ0S8JS3B35M,3L0KT67Y8IWXWQUJ835J8HAB90CSYE,4,3
210,1,object_07,object_05,909.51500000665,1,2,-1.0,0.0,1,object_06,5,2816,0,4,1,desert_4,2,memory-2step-stake-s,710,2873620,0.0-19.0-0.1-0.210,A3BU69EKYL6SH3,30UZJB2PPKSSO21QHKUJ0S8JS3B35M,3L0KT67Y8IWXWQUJ835J8HAB90CSYE,2,1
211,2,object_08,object_10,889.44999995874,3,1,385.9550000052,0.8888888888888888,1,object_06,5,2856,0,8,1,forest_5,2,memory-2step-stake-s,711,2882102,0.0-19.0-0.1-0.211,A3BU69EKYL6SH3,30UZJB2PPKSSO21QHKUJ0S8JS3B35M,3L0KT67Y8IWXWQUJ835J8HAB90CSYE,3,4
212,4,object_02,object_03,805.50500005484,8,2,595.4400000046,0.4444444444444444,2,object_09,1,2860,0,5,4,restaurant_8,2,memory-2step-stake-s,712,2890337,0.0-19.0-0.1-0.212,A3BU69EKYL6SH3,30UZJB2PPKSSO21QHKUJ0S8JS3B35M,3L0KT67Y8IWXWQUJ835J8HAB90CSYE,7,8
213,1,object_07,object_05,1013.2699999958,2,1,492.3950000084,0.5555555555555556,2,object_09,5,2885,0,9,5,desert_6,2,memory-2step-stake-s,713,2898579,0.0-19.0-0.1-0.213,A3BU69EKYL6SH3,30UZJB2PPKSSO21QHKUJ0S8JS3B35M,3L0KT67Y8IWXWQUJ835J8HAB90CSYE,2,1
214,3,object_01,object_04,1100.774999999,5,1,995.64499995904,1.0,1,object_06,1,2894,0,9,4,library_1,2,memory-2step-stake-s,714,2907735,0.0-19.0-0.1-0.214,A3BU69EKYL6SH3,30UZJB2PPKSSO21QHKUJ0S8JS3B35M,3L0KT67Y8IWXWQUJ835J8HAB90CSYE,5,6
215,2,object_10,object_08,1214.3400000059,3,2,914.03000004357,0.8888888888888888,1,object_06,1,2902,0,8,5,forest_5,2,memory-2step-stake-s,715,2916717,0.0-19.0-0.1-0.215,A3BU69EKYL6SH3,30UZJB2PPKSSO21QHKUJ0S8JS3B35M,3L0KT67Y8IWXWQUJ835J8HAB90CSYE,4,3
216,3,object_01,object_04,1072.1250000061,5,1,871.05999997584,0.7777777777777778,1,object_06,1,2909,0,7,8,library_4,2,memory-2step-stake-s,716,2925539,0.0-19.0-0.1-0.216,A3BU69EKYL6SH3,30UZJB2PPKSSO21QHKUJ0S8JS3B35M,3L0KT67Y8IWXWQUJ835J8HAB90CSYE,5,6
217,3,object_01,object_04,884.79999999981,6,2,755.52000000607,0.7777777777777778,2,object_09,1,2916,0,7,7,library_8,2,memory-2step-stake-s,717,2934251,0.0-19.0-0.1-0.217,A3BU69EKYL6SH3,30UZJB2PPKSSO21QHKUJ0S8JS3B35M,3L0KT67Y8IWXWQUJ835J8HAB90CSYE,5,6
218,3,object_01,object_04,711.86999999918,6,2,526.48500003852,0.8888888888888888,2,object_09,5,2956,0,7,8,library_8,2,memory-2step-stake-s,718,2942822,0.0-19.0-0.1-0.218,A3BU69EKYL6SH3,30UZJB2PPKSSO21QHKUJ0S8JS3B35M,3L0KT67Y8IWXWQUJ835J8HAB90CSYE,5,6
219,1,object_05,object_07,1030.5149999913,2,2,554.05500001507,0.7777777777777778,2,object_09,5,2991,0,8,7,desert_3,2,memory-2step-stake-s,719,2951323,0.0-19.0-0.1-0.219,A3BU69EKYL6SH3,30UZJB2PPKSSO21QHKUJ0S8JS3B35M,3L0KT67Y8IWXWQUJ835J8HAB90CSYE,1,2
220,4,object_03,object_02,911.30999999586,7,2,864.15999999736,0.8888888888888888,1,object_06,1,2999,0,8,8,restaurant_4,2,memory-2step-stake-s,720,2960250,0.0-19.0-0.1-0.220,A3BU69EKYL6SH3,30UZJB2PPKSSO21QHKUJ0S8JS3B35M,3L0KT67Y8IWXWQUJ835J8HAB90CSYE,8,7
221,2,object_08,object_10,867.83499998273,3,1,545.51999998512,0.6666666666666666,1,object_06,5,3029,0,6,6,forest_3,2,memory-2step-stake-s,721,2968660,0.0-19.0-0.1-0.221,A3BU69EKYL6SH3,30UZJB2PPKSSO21QHKUJ0S8JS3B35M,3L0KT67Y8IWXWQUJ835J8HAB90CSYE,3,4
222,4,object_02,object_03,591.32000000682,8,2,503.91999998828,0.4444444444444444,2,object_09,1,3033,0,6,4,restaurant_8,2,memory-2step-stake-s,722,2976815,0.0-19.0-0.1-0.222,A3BU69EKYL6SH3,30UZJB2PPKSSO21QHKUJ0S8JS3B35M,3L0KT67Y8IWXWQUJ835J8HAB90CSYE,7,8
223,3,object_04,object_01,1011.1950000282,5,2,458.52499996545,0.5555555555555556,1,object_06,1,3038,0,5,4,library_2,2,memory-2step-stake-s,723,2985026,0.0-19.0-0.1-0.223,A3BU69EKYL6SH3,30UZJB2PPKSSO21QHKUJ0S8JS3B35M,3L0KT67Y8IWXWQUJ835J8HAB90CSYE,6,5
224,4,object_03,object_02,1010.6650000089,8,1,584.97500000522,0.5555555555555556,2,object_09,1,3043,0,5,5,restaurant_5,2,memory-2step-stake-s,724,2993355,0.0-19.0-0.1-0.224,A3BU69EKYL6SH3,30UZJB2PPKSSO21QHKUJ0S8JS3B35M,3L0KT67Y8IWXWQUJ835J8HAB90CSYE,8,7
225,1,object_05,object_07,908.3250000258,2,2,705.46000002651,0.6666666666666666,2,object_09,5,3073,0,5,6,desert_6,2,memory-2step-stake-s,725,3001927,0.0-19.0-0.1-0.225,A3BU69EKYL6SH3,30UZJB2PPKSSO21QHKUJ0S8JS3B35M,3L0KT67Y8IWXWQUJ835J8HAB90CSYE,1,2
226,1,object_05,object_07,943.07999999728,2,2,501.69999996433,0.7777777777777778,2,object_09,1,3080,0,5,7,desert_6,2,memory-2step-stake-s,726,3010394,0.0-19.0-0.1-0.226,A3BU69EKYL6SH3,30UZJB2PPKSSO21QHKUJ0S8JS3B35M,3L0KT67Y8IWXWQUJ835J8HAB90CSYE,1,2
227,2,object_08,object_10,1124.364999996,4,2,529.25999998115,0.7777777777777778,2,object_09,5,3115,0,5,7,forest_2,2,memory-2step-stake-s,727,3018893,0.0-19.0-0.1-0.227,A3BU69EKYL6SH3,30UZJB2PPKSSO21QHKUJ0S8JS3B35M,3L0KT67Y8IWXWQUJ835J8HAB90CSYE,3,4
228,3,object_01,object_04,762.70500000101,6,2,544.00499997428,0.6666666666666666,2,object_09,1,3121,0,2,6,library_4,2,memory-2step-stake-s,728,3027304,0.0-19.0-0.1-0.228,A3BU69EKYL6SH3,30UZJB2PPKSSO21QHKUJ0S8JS3B35M,3L0KT67Y8IWXWQUJ835J8HAB90CSYE,5,6
229,1,object_05,object_07,737.92000004323,1,1,573.49499996053,0.3333333333333333,1,object_06,5,3136,0,3,8,desert_3,2,memory-2step-stake-s,729,3035425,0.0-19.0-0.1-0.229,A3BU69EKYL6SH3,30UZJB2PPKSSO21QHKUJ0S8JS3B35M,3L0KT67Y8IWXWQUJ835J8HAB90CSYE,1,2
230,1,object_07,object_05,1318.6850000056,2,1,562.49500002014,0.8888888888888888,2,object_09,5,3176,0,4,8,desert_6,2,memory-2step-stake-s,730,3044029,0.0-19.0-0.1-0.230,A3BU69EKYL6SH3,30UZJB2PPKSSO21QHKUJ0S8JS3B35M,3L0KT67Y8IWXWQUJ835J8HAB90CSYE,2,1
231,3,object_01,object_04,750.27499999851,6,2,508.95500002662,0.7777777777777778,2,object_09,1,3183,0,2,7,library_2,2,memory-2step-stake-s,731,3052499,0.0-19.0-0.1-0.231,A3BU69EKYL6SH3,30UZJB2PPKSSO21QHKUJ0S8JS3B35M,3L0KT67Y8IWXWQUJ835J8HAB90CSYE,5,6
232,2,object_10,object_08,1006.4499999862,4,1,723.65999995964,0.5555555555555556,2,object_09,1,3188,0,1,5,forest_2,2,memory-2step-stake-s,732,3060983,0.0-19.0-0.1-0.232,A3BU69EKYL6SH3,30UZJB2PPKSSO21QHKUJ0S8JS3B35M,3L0KT67Y8IWXWQUJ835J8HAB90CSYE,4,3
233,4,object_03,object_02,547.84000001382,7,2,617.22000001464,0.1111111111111111,1,object_06,1,3189,0,1,3,restaurant_8,2,memory-2step-stake-s,733,3068932,0.0-19.0-0.1-0.233,A3BU69EKYL6SH3,30UZJB2PPKSSO21QHKUJ0S8JS3B35M,3L0KT67Y8IWXWQUJ835J8HAB90CSYE,8,7
234,2,object_10,object_08,1436.9849999784,4,1,556.76000000676,0.2222222222222222,2,object_09,5,3199,0,2,2,forest_5,2,memory-2step-stake-s,734,3076922,0.0-19.0-0.1-0.234,A3BU69EKYL6SH3,30UZJB2PPKSSO21QHKUJ0S8JS3B35M,3L0KT67Y8IWXWQUJ835J8HAB90CSYE,4,3
235,4,object_03,object_02,881.16500002798,8,1,606.79000004893,0.4444444444444444,2,object_09,1,3203,0,2,4,restaurant_5,2,memory-2step-stake-s,735,3085176,0.0-19.0-0.1-0.235,A3BU69EKYL6SH3,30UZJB2PPKSSO21QHKUJ0S8JS3B35M,3L0KT67Y8IWXWQUJ835J8HAB90CSYE,8,7
236,3,object_01,object_04,901.46500000264,6,2,820.7200000179,0.6666666666666666,2,object_09,1,3209,0,3,6,library_1,2,memory-2step-stake-s,736,3093842,0.0-19.0-0.1-0.236,A3BU69EKYL6SH3,30UZJB2PPKSSO21QHKUJ0S8JS3B35M,3L0KT67Y8IWXWQUJ835J8HAB90CSYE,5,6
237,1,object_07,object_05,908.5849999683,2,1,676.15999997361,0.4444444444444444,2,object_09,5,3229,0,4,4,desert_4,2,memory-2step-stake-s,737,3102161,0.0-19.0-0.1-0.237,A3BU69EKYL6SH3,30UZJB2PPKSSO21QHKUJ0S8JS3B35M,3L0KT67Y8IWXWQUJ835J8HAB90CSYE,2,1
238,4,object_02,object_03,637.14499998605,8,2,896.36499999324,0.2222222222222222,2,object_09,1,3231,0,7,2,restaurant_4,2,memory-2step-stake-s,738,3110492,0.0-19.0-0.1-0.238,A3BU69EKYL6SH3,30UZJB2PPKSSO21QHKUJ0S8JS3B35M,3L0KT67Y8IWXWQUJ835J8HAB90CSYE,7,8
239,4,object_02,object_03,927.01500002295,8,2,522.43499999167,0.1111111111111111,2,object_09,1,3232,0,6,1,restaurant_7,2,memory-2step-stake-s,739,3118354,0.0-19.0-0.1-0.239,A3BU69EKYL6SH3,30UZJB2PPKSSO21QHKUJ0S8JS3B35M,3L0KT67Y8IWXWQUJ835J8HAB90CSYE,7,8
240,3,object_04,object_01,1002.1200000192,5,2,504.654999997,0.3333333333333333,1,object_06,1,3235,0,3,0,library_2,2,memory-2step-stake-s,740,3126408,0.0-19.0-0.1-0.240,A3BU69EKYL6SH3,30UZJB2PPKSSO21QHKUJ0S8JS3B35M,3L0KT67Y8IWXWQUJ835J8HAB90CSYE,6,5
241,2,object_10,object_08,696.75000000279,3,2,710.92499996303,0.5555555555555556,1,object_06,5,3260,0,5,1,forest_5,2,memory-2step-stake-s,741,3134875,0.0-19.0-0.1-0.241,A3BU69EKYL6SH3,30UZJB2PPKSSO21QHKUJ0S8JS3B35M,3L0KT67Y8IWXWQUJ835J8HAB90CSYE,4,3
242,1,object_07,object_05,791.35499999393,1,2,729.13500003051,0.2222222222222222,1,object_06,5,3270,0,2,1,desert_3,2,memory-2step-stake-s,742,3143042,0.0-19.0-0.1-0.242,A3BU69EKYL6SH3,30UZJB2PPKSSO21QHKUJ0S8JS3B35M,3L0KT67Y8IWXWQUJ835J8HAB90CSYE,2,1
243,2,object_08,object_10,967.27000002284,3,1,764.96999996016,0.2222222222222222,1,object_06,5,3280,0,2,1,forest_3,2,memory-2step-stake-s,743,3151250,0.0-19.0-0.1-0.243,A3BU69EKYL6SH3,30UZJB2PPKSSO21QHKUJ0S8JS3B35M,3L0KT67Y8IWXWQUJ835J8HAB90CSYE,3,4
244,2,object_08,object_10,901.49499999825,4,2,595.44499998447,0.0,2,object_09,5,3280,0,4,0,forest_3,2,memory-2step-stake-s,744,3159073,0.0-19.0-0.1-0.244,A3BU69EKYL6SH3,30UZJB2PPKSSO21QHKUJ0S8JS3B35M,3L0KT67Y8IWXWQUJ835J8HAB90CSYE,3,4
245,3,object_01,object_04,1012.6999999629,6,2,643.70499999495,0.2222222222222222,2,object_09,1,3282,0,4,2,library_2,2,memory-2step-stake-s,745,3167157,0.0-19.0-0.1-0.245,A3BU69EKYL6SH3,30UZJB2PPKSSO21QHKUJ0S8JS3B35M,3L0KT67Y8IWXWQUJ835J8HAB90CSYE,5,6
246,2,object_08,object_10,884.16499999585,4,2,617.12500004796,0.3333333333333333,2,object_09,5,3297,0,1,3,forest_2,2,memory-2step-stake-s,746,3175321,0.0-19.0-0.1-0.246,A3BU69EKYL6SH3,30UZJB2PPKSSO21QHKUJ0S8JS3B35M,3L0KT67Y8IWXWQUJ835J8HAB90CSYE,3,4
247,3,object_04,object_01,810.72500004666,6,1,624.94000000879,0.1111111111111111,2,object_09,1,3298,0,1,1,library_8,2,memory-2step-stake-s,747,3183282,0.0-19.0-0.1-0.247,A3BU69EKYL6SH3,30UZJB2PPKSSO21QHKUJ0S8JS3B35M,3L0KT67Y8IWXWQUJ835J8HAB90CSYE,6,5
248,2,object_08,object_10,1023.0699999956,4,2,531.10000002198,0.1111111111111111,2,object_09,1,3299,0,1,1,forest_5,2,memory-2step-stake-s,748,3191145,0.0-19.0-0.1-0.248,A3BU69EKYL6SH3,30UZJB2PPKSSO21QHKUJ0S8JS3B35M,3L0KT67Y8IWXWQUJ835J8HAB90CSYE,3,4
249,2,object_10,object_08,905.91999999015,4,1,488.81000000983,0.2222222222222222,2,object_09,5,3309,0,3,2,forest_2,2,memory-2step-stake-s,749,3199070,0.0-19.0-0.1-0.249,A3BU69EKYL6SH3,30UZJB2PPKSSO21QHKUJ0S8JS3B35M,3L0KT67Y8IWXWQUJ835J8HAB90CSYE,4,3
250,4,object_02,object_03,604.65999995358,8,2,498.39000002248,0.3333333333333333,2,object_09,5,3324,0,7,3,restaurant_5,2,memory-2step-stake-s,750,3207119,0.0-19.0-0.1-0.250,A3BU69EKYL6SH3,30UZJB2PPKSSO21QHKUJ0S8JS3B35M,3L0KT67Y8IWXWQUJ835J8HAB90CSYE,7,8
251,1,object_05,object_07,972.98000002047,2,2,1155.6850000052,0.4444444444444444,2,object_09,5,3344,0,3,4,desert_3,2,memory-2step-stake-s,751,3215922,0.0-19.0-0.1-0.251,A3BU69EKYL6SH3,30UZJB2PPKSSO21QHKUJ0S8JS3B35M,3L0KT67Y8IWXWQUJ835J8HAB90CSYE,1,2
252,3,object_01,object_04,690.15500001842,6,2,688.65999998525,0.5555555555555556,2,object_09,1,3349,0,2,5,library_4,2,memory-2step-stake-s,752,3224372,0.0-19.0-0.1-0.252,A3BU69EKYL6SH3,30UZJB2PPKSSO21QHKUJ0S8JS3B35M,3L0KT67Y8IWXWQUJ835J8HAB90CSYE,5,6
253,2,object_10,object_08,966.72000002582,4,1,640.01500001177,0.7777777777777778,2,object_09,1,3356,0,1,7,forest_3,2,memory-2step-stake-s,753,3232963,0.0-19.0-0.1-0.253,A3BU69EKYL6SH3,30UZJB2PPKSSO21QHKUJ0S8JS3B35M,3L0KT67Y8IWXWQUJ835J8HAB90CSYE,4,3
254,2,object_08,object_10,661.81000001961,4,2,43.545000022277,1.0,2,object_09,5,3401,0,2,9,forest_3,2,memory-2step-stake-s,754,3241186,0.0-19.0-0.1-0.254,A3BU69EKYL6SH3,30UZJB2PPKSSO21QHKUJ0S8JS3B35M,3L0KT67Y8IWXWQUJ835J8HAB90CSYE,3,4
255,1,object_05,object_07,813.17999999737,2,2,603.79000002285,0.7777777777777778,2,object_09,5,3436,0,2,7,desert_4,2,memory-2step-stake-s,755,3249751,0.0-19.0-0.1-0.255,A3BU69EKYL6SH3,30UZJB2PPKSSO21QHKUJ0S8JS3B35M,3L0KT67Y8IWXWQUJ835J8HAB90CSYE,1,2
