,state1,stim_left,stim_right,rt_1,choice1,response1,rt_2,points,state2,stim_state2,stake,score,practice,rews1,rews2,background,high_arm,trial_type,trial_index,time_elapsed,internal_node_id,subid,hitid,assignmentid,stim_left_num,stim_right_num
0,1,object_08,object_05,-1.0,-1,-1,-1.0,0.0,-,0,5,0,0,1,0,desert_2,2,memory-2step-stake-s,524,1601485,0.0-19.0-0.0-0.0,A80X2FTFDSR19,3QX22DUVPRXA8IOFTTHB0PBO5I3MV1,3Z4GS9HPNZQSY8EQXRH80DUIIP777Q,2,1
1,3,object_03,object_02,1026.0,6,2,-1.0,0.0,2,object_04,1,0,0,0,1,library_6,2,memory-2step-stake-s,525,1610083,0.0-19.0-0.0-0.1,A80X2FTFDSR19,3QX22DUVPRXA8IOFTTHB0PBO5I3MV1,3Z4GS9HPNZQSY8EQXRH80DUIIP777Q,5,6
2,3,object_03,object_02,827.0,5,1,-1.0,0.0,1,object_07,1,0,0,2,3,library_6,2,memory-2step-stake-s,526,1618713,0.0-19.0-0.0-0.2,A80X2FTFDSR19,3QX22DUVPRXA8IOFTTHB0PBO5I3MV1,3Z4GS9HPNZQSY8EQXRH80DUIIP777Q,5,6
3,2,object_10,object_01,1087.0,3,2,-1.0,0.0,1,object_07,5,0,0,2,2,forest_7,2,memory-2step-stake-s,527,1627323,0.0-19.0-0.0-0.3,A80X2FTFDSR19,3QX22DUVPRXA8IOFTTHB0PBO5I3MV1,3Z4GS9HPNZQSY8EQXRH80DUIIP777Q,4,3
4,4,object_09,object_06,-1.0,-1,-1,-1.0,0.0,-,0,1,0,0,4,3,restaurant_3,2,memory-2step-stake-s,528,1633893,0.0-19.0-0.0-0.4,A80X2FTFDSR19,3QX22DUVPRXA8IOFTTHB0PBO5I3MV1,3Z4GS9HPNZQSY8EQXRH80DUIIP777Q,7,8
5,4,object_06,object_09,773.0,7,2,-1.0,0.0,1,object_07,5,0,0,3,3,restaurant_1,2,memory-2step-stake-s,529,1642522,0.0-19.0-0.0-0.5,A80X2FTFDSR19,3QX22DUVPRXA8IOFTTHB0PBO5I3MV1,3Z4GS9HPNZQSY8EQXRH80DUIIP777Q,8,7
6,2,object_01,object_10,1151.0,4,2,1180.0,0.7777777777777778,2,object_04,1,7,0,0,7,forest_7,2,memory-2step-stake-s,530,1651883,0.0-19.0-0.0-0.6,A80X2FTFDSR19,3QX22DUVPRXA8IOFTTHB0PBO5I3MV1,3Z4GS9HPNZQSY8EQXRH80DUIIP777Q,3,4
7,1,object_08,object_05,516.0,2,1,479.0,1.0,2,object_04,1,16,0,1,9,desert_7,2,memory-2step-stake-s,531,1660743,0.0-19.0-0.0-0.7,A80X2FTFDSR19,3QX22DUVPRXA8IOFTTHB0PBO5I3MV1,3Z4GS9HPNZQSY8EQXRH80DUIIP777Q,2,1
8,2,object_10,object_01,373.0,3,2,655.0,0.3333333333333333,1,object_07,5,31,0,3,9,forest_5,2,memory-2step-stake-s,532,1669103,0.0-19.0-0.0-0.8,A80X2FTFDSR19,3QX22DUVPRXA8IOFTTHB0PBO5I3MV1,3Z4GS9HPNZQSY8EQXRH80DUIIP777Q,4,3
9,3,object_03,object_02,535.0,5,1,448.0,0.4444444444444444,1,object_07,1,35,0,4,8,library_7,2,memory-2step-stake-s,533,1677323,0.0-19.0-0.0-0.9,A80X2FTFDSR19,3QX22DUVPRXA8IOFTTHB0PBO5I3MV1,3Z4GS9HPNZQSY8EQXRH80DUIIP777Q,5,6
10,4,object_06,object_09,1076.0,7,2,701.0,0.3333333333333333,1,object_07,5,50,0,3,7,restaurant_6,2,memory-2step-stake-s,534,1685713,0.0-19.0-0.0-0.10,A80X2FTFDSR19,3QX22DUVPRXA8IOFTTHB0PBO5I3MV1,3Z4GS9HPNZQSY8EQXRH80DUIIP777Q,8,7
11,1,object_05,object_08,397.0,1,1,565.0,0.3333333333333333,1,object_07,5,65,0,3,8,desert_7,2,memory-2step-stake-s,535,1693953,0.0-19.0-0.0-0.11,A80X2FTFDSR19,3QX22DUVPRXA8IOFTTHB0PBO5I3MV1,3Z4GS9HPNZQSY8EQXRH80DUIIP777Q,1,2
12,4,object_06,object_09,498.0,7,2,534.0,0.1111111111111111,1,object_07,1,66,0,1,8,restaurant_1,2,memory-2step-stake-s,536,1701903,0.0-19.0-0.0-0.12,A80X2FTFDSR19,3QX22DUVPRXA8IOFTTHB0PBO5I3MV1,3Z4GS9HPNZQSY8EQXRH80DUIIP777Q,8,7
13,2,object_01,object_10,538.0,3,1,392.0,0.4444444444444444,1,object_07,5,86,0,4,5,forest_3,2,memory-2step-stake-s,537,1710053,0.0-19.0-0.0-0.13,A80X2FTFDSR19,3QX22DUVPRXA8IOFTTHB0PBO5I3MV1,3Z4GS9HPNZQSY8EQXRH80DUIIP777Q,3,4
14,2,object_01,object_10,445.0,4,2,539.0,0.3333333333333333,2,object_04,1,89,0,6,3,forest_7,2,memory-2step-stake-s,538,1718273,0.0-19.0-0.0-0.14,A80X2FTFDSR19,3QX22DUVPRXA8IOFTTHB0PBO5I3MV1,3Z4GS9HPNZQSY8EQXRH80DUIIP777Q,3,4
15,2,object_01,object_10,406.0,3,1,309.0,0.6666666666666666,1,object_07,5,119,0,6,3,forest_5,2,memory-2step-stake-s,539,1726613,0.0-19.0-0.0-0.15,A80X2FTFDSR19,3QX22DUVPRXA8IOFTTHB0PBO5I3MV1,3Z4GS9HPNZQSY8EQXRH80DUIIP777Q,3,4
16,1,object_08,object_05,547.0,1,2,413.0,0.6666666666666666,1,object_07,5,149,0,6,4,desert_2,2,memory-2step-stake-s,540,1735053,0.0-19.0-0.0-0.16,A80X2FTFDSR19,3QX22DUVPRXA8IOFTTHB0PBO5I3MV1,3Z4GS9HPNZQSY8EQXRH80DUIIP777Q,2,1
17,3,object_03,object_02,473.0,5,1,546.0,0.3333333333333333,1,object_07,5,164,0,3,3,library_5,2,memory-2step-stake-s,541,1743283,0.0-19.0-0.0-0.17,A80X2FTFDSR19,3QX22DUVPRXA8IOFTTHB0PBO5I3MV1,3Z4GS9HPNZQSY8EQXRH80DUIIP777Q,5,6
18,3,object_02,object_03,473.0,5,2,463.0,0.2222222222222222,1,object_07,1,166,0,2,1,library_3,2,memory-2step-stake-s,542,1751293,0.0-19.0-0.0-0.18,A80X2FTFDSR19,3QX22DUVPRXA8IOFTTHB0PBO5I3MV1,3Z4GS9HPNZQSY8EQXRH80DUIIP777Q,6,5
19,1,object_08,object_05,492.0,1,2,264.0,0.0,1,object_07,5,166,0,0,1,desert_6,2,memory-2step-stake-s,543,1758903,0.0-19.0-0.0-0.19,A80X2FTFDSR19,3QX22DUVPRXA8IOFTTHB0PBO5I3MV1,3Z4GS9HPNZQSY8EQXRH80DUIIP777Q,2,1
20,2,object_01,object_10,513.0,3,1,349.0,0.6666666666666666,1,object_07,5,196,0,6,0,forest_6,2,memory-2step-stake-s,544,1767293,0.0-19.0-0.0-0.20,A80X2FTFDSR19,3QX22DUVPRXA8IOFTTHB0PBO5I3MV1,3Z4GS9HPNZQSY8EQXRH80DUIIP777Q,3,4
21,3,object_02,object_03,826.0,6,1,466.0,0.2222222222222222,2,object_04,1,198,0,7,2,library_6,2,memory-2step-stake-s,545,1775303,0.0-19.0-0.0-0.21,A80X2FTFDSR19,3QX22DUVPRXA8IOFTTHB0PBO5I3MV1,3Z4GS9HPNZQSY8EQXRH80DUIIP777Q,6,5
22,2,object_10,object_01,736.0,3,2,1119.0,0.6666666666666666,1,object_07,1,204,0,6,3,forest_5,2,memory-2step-stake-s,546,1784458,0.0-19.0-0.0-0.22,A80X2FTFDSR19,3QX22DUVPRXA8IOFTTHB0PBO5I3MV1,3Z4GS9HPNZQSY8EQXRH80DUIIP777Q,4,3
23,4,object_06,object_09,697.0,8,1,317.0,0.4444444444444444,2,object_04,1,208,0,3,4,restaurant_1,2,memory-2step-stake-s,547,1792552,0.0-19.0-0.0-0.23,A80X2FTFDSR19,3QX22DUVPRXA8IOFTTHB0PBO5I3MV1,3Z4GS9HPNZQSY8EQXRH80DUIIP777Q,8,7
24,2,object_10,object_01,960.0,3,2,492.0,0.0,1,object_07,5,208,0,0,4,forest_3,2,memory-2step-stake-s,548,1800333,0.0-19.0-0.0-0.24,A80X2FTFDSR19,3QX22DUVPRXA8IOFTTHB0PBO5I3MV1,3Z4GS9HPNZQSY8EQXRH80DUIIP777Q,4,3
25,4,object_09,object_06,663.0,7,1,392.0,0.1111111111111111,1,object_07,1,209,0,1,4,restaurant_1,2,memory-2step-stake-s,549,1808153,0.0-19.0-0.0-0.25,A80X2FTFDSR19,3QX22DUVPRXA8IOFTTHB0PBO5I3MV1,3Z4GS9HPNZQSY8EQXRH80DUIIP777Q,7,8
26,2,object_10,object_01,944.0,3,2,498.0,0.5555555555555556,1,object_07,5,234,0,5,5,forest_5,2,memory-2step-stake-s,550,1816573,0.0-19.0-0.0-0.26,A80X2FTFDSR19,3QX22DUVPRXA8IOFTTHB0PBO5I3MV1,3Z4GS9HPNZQSY8EQXRH80DUIIP777Q,4,3
27,1,object_08,object_05,653.0,2,1,347.0,0.5555555555555556,2,object_04,5,259,0,7,5,desert_4,2,memory-2step-stake-s,551,1824853,0.0-19.0-0.0-0.27,A80X2FTFDSR19,3QX22DUVPRXA8IOFTTHB0PBO5I3MV1,3Z4GS9HPNZQSY8EQXRH80DUIIP777Q,2,1
28,1,object_05,object_08,1086.0,1,1,302.0,0.7777777777777778,1,object_07,5,294,0,7,5,desert_6,2,memory-2step-stake-s,552,1833313,0.0-19.0-0.0-0.28,A80X2FTFDSR19,3QX22DUVPRXA8IOFTTHB0PBO5I3MV1,3Z4GS9HPNZQSY8EQXRH80DUIIP777Q,1,2
29,4,object_06,object_09,1022.0,7,2,378.0,0.7777777777777778,1,object_07,5,329,0,7,8,restaurant_6,2,memory-2step-stake-s,553,1841833,0.0-19.0-0.0-0.29,A80X2FTFDSR19,3QX22DUVPRXA8IOFTTHB0PBO5I3MV1,3Z4GS9HPNZQSY8EQXRH80DUIIP777Q,8,7
30,1,object_08,object_05,1176.0,1,2,591.0,0.6666666666666666,1,object_07,5,359,0,6,4,desert_6,2,memory-2step-stake-s,554,1850456,0.0-19.0-0.0-0.30,A80X2FTFDSR19,3QX22DUVPRXA8IOFTTHB0PBO5I3MV1,3Z4GS9HPNZQSY8EQXRH80DUIIP777Q,2,1
31,2,object_10,object_01,1082.0,3,2,328.0,0.6666666666666666,1,object_07,5,389,0,6,6,forest_7,2,memory-2step-stake-s,555,1858773,0.0-19.0-0.0-0.31,A80X2FTFDSR19,3QX22DUVPRXA8IOFTTHB0PBO5I3MV1,3Z4GS9HPNZQSY8EQXRH80DUIIP777Q,4,3
32,2,object_01,object_10,668.0,3,1,339.0,0.8888888888888888,1,object_07,5,429,0,8,6,forest_6,2,memory-2step-stake-s,556,1867373,0.0-19.0-0.0-0.32,A80X2FTFDSR19,3QX22DUVPRXA8IOFTTHB0PBO5I3MV1,3Z4GS9HPNZQSY8EQXRH80DUIIP777Q,3,4
33,2,object_10,object_01,806.0,3,2,438.0,1.0,1,object_07,5,474,0,9,7,forest_5,2,memory-2step-stake-s,557,1876187,0.0-19.0-0.0-0.33,A80X2FTFDSR19,3QX22DUVPRXA8IOFTTHB0PBO5I3MV1,3Z4GS9HPNZQSY8EQXRH80DUIIP777Q,4,3
34,4,object_09,object_06,1207.0,8,2,478.0,0.5555555555555556,2,object_04,1,479,0,8,5,restaurant_8,2,memory-2step-stake-s,558,1884583,0.0-19.0-0.0-0.34,A80X2FTFDSR19,3QX22DUVPRXA8IOFTTHB0PBO5I3MV1,3Z4GS9HPNZQSY8EQXRH80DUIIP777Q,7,8
35,1,object_05,object_08,936.0,1,1,324.0,1.0,1,object_07,1,488,0,9,4,desert_7,2,memory-2step-stake-s,559,1893253,0.0-19.0-0.0-0.35,A80X2FTFDSR19,3QX22DUVPRXA8IOFTTHB0PBO5I3MV1,3Z4GS9HPNZQSY8EQXRH80DUIIP777Q,1,2
36,3,object_02,object_03,1453.0,5,2,928.0,1.0,1,object_07,1,497,0,9,5,library_7,2,memory-2step-stake-s,560,1902553,0.0-19.0-0.0-0.36,A80X2FTFDSR19,3QX22DUVPRXA8IOFTTHB0PBO5I3MV1,3Z4GS9HPNZQSY8EQXRH80DUIIP777Q,6,5
37,2,object_01,object_10,1171.0,3,1,365.0,0.3333333333333333,1,object_07,5,512,0,3,4,forest_7,2,memory-2step-stake-s,561,1910583,0.0-19.0-0.0-0.37,A80X2FTFDSR19,3QX22DUVPRXA8IOFTTHB0PBO5I3MV1,3Z4GS9HPNZQSY8EQXRH80DUIIP777Q,3,4
38,1,object_05,object_08,1042.0,2,2,500.0,0.6666666666666666,2,object_04,5,542,0,3,6,desert_6,2,memory-2step-stake-s,562,1919103,0.0-19.0-0.0-0.38,A80X2FTFDSR19,3QX22DUVPRXA8IOFTTHB0PBO5I3MV1,3Z4GS9HPNZQSY8EQXRH80DUIIP777Q,1,2
39,3,object_02,object_03,1321.0,5,2,349.0,0.3333333333333333,1,object_07,1,545,0,3,4,library_5,2,memory-2step-stake-s,563,1927113,0.0-19.0-0.0-0.39,A80X2FTFDSR19,3QX22DUVPRXA8IOFTTHB0PBO5I3MV1,3Z4GS9HPNZQSY8EQXRH80DUIIP777Q,6,5
40,4,object_09,object_06,989.0,7,1,364.0,0.3333333333333333,1,object_07,5,560,0,3,4,restaurant_6,2,memory-2step-stake-s,564,1935143,0.0-19.0-0.0-0.40,A80X2FTFDSR19,3QX22DUVPRXA8IOFTTHB0PBO5I3MV1,3Z4GS9HPNZQSY8EQXRH80DUIIP777Q,7,8
41,2,object_10,object_01,787.0,3,2,563.0,0.4444444444444444,1,object_07,5,580,0,4,4,forest_6,2,memory-2step-stake-s,565,1943513,0.0-19.0-0.0-0.41,A80X2FTFDSR19,3QX22DUVPRXA8IOFTTHB0PBO5I3MV1,3Z4GS9HPNZQSY8EQXRH80DUIIP777Q,4,3
42,4,object_06,object_09,1052.0,8,1,364.0,0.2222222222222222,2,object_04,5,590,0,8,2,restaurant_8,2,memory-2step-stake-s,566,1951423,0.0-19.0-0.0-0.42,A80X2FTFDSR19,3QX22DUVPRXA8IOFTTHB0PBO5I3MV1,3Z4GS9HPNZQSY8EQXRH80DUIIP777Q,8,7
43,2,object_10,object_01,807.0,3,2,378.0,0.8888888888888888,1,object_07,5,630,0,8,3,forest_7,2,memory-2step-stake-s,567,1960084,0.0-19.0-0.0-0.43,A80X2FTFDSR19,3QX22DUVPRXA8IOFTTHB0PBO5I3MV1,3Z4GS9HPNZQSY8EQXRH80DUIIP777Q,4,3
44,1,object_08,object_05,1124.0,1,2,333.0,0.8888888888888888,1,object_07,5,670,0,8,1,desert_4,2,memory-2step-stake-s,568,1968664,0.0-19.0-0.0-0.44,A80X2FTFDSR19,3QX22DUVPRXA8IOFTTHB0PBO5I3MV1,3Z4GS9HPNZQSY8EQXRH80DUIIP777Q,2,1
45,1,object_05,object_08,974.0,1,1,505.0,0.6666666666666666,1,object_07,1,676,0,6,2,desert_2,2,memory-2step-stake-s,569,1977223,0.0-19.0-0.0-0.45,A80X2FTFDSR19,3QX22DUVPRXA8IOFTTHB0PBO5I3MV1,3Z4GS9HPNZQSY8EQXRH80DUIIP777Q,1,2
46,1,object_05,object_08,878.0,1,1,382.0,0.6666666666666666,1,object_07,5,706,0,6,1,desert_6,2,memory-2step-stake-s,570,1985634,0.0-19.0-0.0-0.46,A80X2FTFDSR19,3QX22DUVPRXA8IOFTTHB0PBO5I3MV1,3Z4GS9HPNZQSY8EQXRH80DUIIP777Q,1,2
47,2,object_10,object_01,1004.0,3,2,558.0,0.3333333333333333,1,object_07,5,721,0,3,1,forest_5,2,memory-2step-stake-s,571,1993873,0.0-19.0-0.0-0.47,A80X2FTFDSR19,3QX22DUVPRXA8IOFTTHB0PBO5I3MV1,3Z4GS9HPNZQSY8EQXRH80DUIIP777Q,4,3
48,1,object_05,object_08,737.0,1,1,382.0,0.2222222222222222,1,object_07,1,723,0,2,1,desert_6,2,memory-2step-stake-s,572,2001812,0.0-19.0-0.0-0.48,A80X2FTFDSR19,3QX22DUVPRXA8IOFTTHB0PBO5I3MV1,3Z4GS9HPNZQSY8EQXRH80DUIIP777Q,1,2
49,2,object_01,object_10,981.0,4,2,578.0,0.1111111111111111,2,object_04,5,728,0,2,1,forest_7,2,memory-2step-stake-s,573,2009843,0.0-19.0-0.0-0.49,A80X2FTFDSR19,3QX22DUVPRXA8IOFTTHB0PBO5I3MV1,3Z4GS9HPNZQSY8EQXRH80DUIIP777Q,3,4
50,1,object_08,object_05,1057.0,1,2,457.0,0.1111111111111111,1,object_07,5,733,0,1,3,desert_6,2,memory-2step-stake-s,574,2017723,0.0-19.0-0.0-0.50,A80X2FTFDSR19,3QX22DUVPRXA8IOFTTHB0PBO5I3MV1,3Z4GS9HPNZQSY8EQXRH80DUIIP777Q,2,1
51,4,object_06,object_09,1121.0,7,2,472.0,0.3333333333333333,1,object_07,5,748,0,3,4,restaurant_1,2,memory-2step-stake-s,575,2025843,0.0-19.0-0.0-0.51,A80X2FTFDSR19,3QX22DUVPRXA8IOFTTHB0PBO5I3MV1,3Z4GS9HPNZQSY8EQXRH80DUIIP777Q,8,7
52,4,object_09,object_06,1315.0,8,2,460.0,0.5555555555555556,2,object_04,1,753,0,7,5,restaurant_1,2,memory-2step-stake-s,576,2034173,0.0-19.0-0.0-0.52,A80X2FTFDSR19,3QX22DUVPRXA8IOFTTHB0PBO5I3MV1,3Z4GS9HPNZQSY8EQXRH80DUIIP777Q,7,8
53,1,object_08,object_05,962.0,1,2,733.0,0.8888888888888888,1,object_07,5,793,0,8,5,desert_4,2,memory-2step-stake-s,577,2043193,0.0-19.0-0.0-0.53,A80X2FTFDSR19,3QX22DUVPRXA8IOFTTHB0PBO5I3MV1,3Z4GS9HPNZQSY8EQXRH80DUIIP777Q,2,1
54,4,object_06,object_09,966.0,8,1,334.0,0.5555555555555556,2,object_04,1,798,0,6,5,restaurant_1,2,memory-2step-stake-s,578,2051403,0.0-19.0-0.0-0.54,A80X2FTFDSR19,3QX22DUVPRXA8IOFTTHB0PBO5I3MV1,3Z4GS9HPNZQSY8EQXRH80DUIIP777Q,8,7
55,4,object_09,object_06,1505.0,8,2,601.0,0.4444444444444444,2,object_04,1,802,0,6,4,restaurant_8,2,memory-2step-stake-s,579,2059763,0.0-19.0-0.0-0.55,A80X2FTFDSR19,3QX22DUVPRXA8IOFTTHB0PBO5I3MV1,3Z4GS9HPNZQSY8EQXRH80DUIIP777Q,7,8
56,2,object_01,object_10,946.0,3,1,803.0,1.0,1,object_07,1,811,0,9,3,forest_7,2,memory-2step-stake-s,580,2068933,0.0-19.0-0.0-0.56,A80X2FTFDSR19,3QX22DUVPRXA8IOFTTHB0PBO5I3MV1,3Z4GS9HPNZQSY8EQXRH80DUIIP777Q,3,4
57,3,object_02,object_03,1294.0,5,2,395.0,0.8888888888888888,1,object_07,1,819,0,8,5,library_3,2,memory-2step-stake-s,581,2077603,0.0-19.0-0.0-0.57,A80X2FTFDSR19,3QX22DUVPRXA8IOFTTHB0PBO5I3MV1,3Z4GS9HPNZQSY8EQXRH80DUIIP777Q,6,5
58,1,object_05,object_08,852.0,1,1,578.0,0.6666666666666666,1,object_07,5,849,0,6,5,desert_7,2,memory-2step-stake-s,582,2086193,0.0-19.0-0.0-0.58,A80X2FTFDSR19,3QX22DUVPRXA8IOFTTHB0PBO5I3MV1,3Z4GS9HPNZQSY8EQXRH80DUIIP777Q,1,2
59,2,object_10,object_01,1151.0,4,1,586.0,0.2222222222222222,2,object_04,5,859,0,4,2,forest_3,2,memory-2step-stake-s,583,2094323,0.0-19.0-0.0-0.59,A80X2FTFDSR19,3QX22DUVPRXA8IOFTTHB0PBO5I3MV1,3Z4GS9HPNZQSY8EQXRH80DUIIP777Q,4,3
60,2,object_10,object_01,1474.0,3,2,-1.0,0.0,1,object_07,5,859,0,0,0,forest_6,2,memory-2step-stake-s,584,2102922,0.0-19.0-0.0-0.60,A80X2FTFDSR19,3QX22DUVPRXA8IOFTTHB0PBO5I3MV1,3Z4GS9HPNZQSY8EQXRH80DUIIP777Q,4,3
61,4,object_09,object_06,756.0,7,1,407.0,0.0,1,object_07,1,859,0,0,3,restaurant_8,2,memory-2step-stake-s,585,2110623,0.0-19.0-0.0-0.61,A80X2FTFDSR19,3QX22DUVPRXA8IOFTTHB0PBO5I3MV1,3Z4GS9HPNZQSY8EQXRH80DUIIP777Q,7,8
62,4,object_09,object_06,893.0,8,2,336.0,0.4444444444444444,2,object_04,5,879,0,2,4,restaurant_3,2,memory-2step-stake-s,586,2118754,0.0-19.0-0.0-0.62,A80X2FTFDSR19,3QX22DUVPRXA8IOFTTHB0PBO5I3MV1,3Z4GS9HPNZQSY8EQXRH80DUIIP777Q,7,8
63,3,object_02,object_03,1004.0,6,1,354.0,0.3333333333333333,2,object_04,1,882,0,5,3,library_7,2,memory-2step-stake-s,587,2126803,0.0-19.0-0.0-0.63,A80X2FTFDSR19,3QX22DUVPRXA8IOFTTHB0PBO5I3MV1,3Z4GS9HPNZQSY8EQXRH80DUIIP777Q,6,5
64,4,object_09,object_06,1015.0,7,1,359.0,0.3333333333333333,1,object_07,1,885,0,3,2,restaurant_3,2,memory-2step-stake-s,588,2134804,0.0-19.0-0.0-0.64,A80X2FTFDSR19,3QX22DUVPRXA8IOFTTHB0PBO5I3MV1,3Z4GS9HPNZQSY8EQXRH80DUIIP777Q,7,8
65,3,object_03,object_02,1234.0,6,2,448.0,0.0,2,object_04,1,885,0,7,0,library_6,2,memory-2step-stake-s,589,2142554,0.0-19.0-0.0-0.65,A80X2FTFDSR19,3QX22DUVPRXA8IOFTTHB0PBO5I3MV1,3Z4GS9HPNZQSY8EQXRH80DUIIP777Q,5,6
66,3,object_02,object_03,1376.0,5,2,955.0,0.5555555555555556,1,object_07,5,910,0,5,2,library_7,2,memory-2step-stake-s,590,2151393,0.0-19.0-0.0-0.66,A80X2FTFDSR19,3QX22DUVPRXA8IOFTTHB0PBO5I3MV1,3Z4GS9HPNZQSY8EQXRH80DUIIP777Q,6,5
67,3,object_03,object_02,713.0,5,1,531.0,1.0,1,object_07,1,919,0,9,3,library_7,2,memory-2step-stake-s,591,2160303,0.0-19.0-0.0-0.67,A80X2FTFDSR19,3QX22DUVPRXA8IOFTTHB0PBO5I3MV1,3Z4GS9HPNZQSY8EQXRH80DUIIP777Q,5,6
68,1,object_08,object_05,884.0,1,2,240.0,0.6666666666666666,1,object_07,5,949,0,6,2,desert_4,2,memory-2step-stake-s,592,2168563,0.0-19.0-0.0-0.68,A80X2FTFDSR19,3QX22DUVPRXA8IOFTTHB0PBO5I3MV1,3Z4GS9HPNZQSY8EQXRH80DUIIP777Q,2,1
69,4,object_09,object_06,1112.0,8,2,367.0,0.1111111111111111,2,object_04,5,954,0,5,1,restaurant_3,2,memory-2step-stake-s,593,2176358,0.0-19.0-0.0-0.69,A80X2FTFDSR19,3QX22DUVPRXA8IOFTTHB0PBO5I3MV1,3Z4GS9HPNZQSY8EQXRH80DUIIP777Q,7,8
70,4,object_09,object_06,879.0,7,1,719.0,0.8888888888888888,1,object_07,1,962,0,8,1,restaurant_8,2,memory-2step-stake-s,594,2185313,0.0-19.0-0.0-0.70,A80X2FTFDSR19,3QX22DUVPRXA8IOFTTHB0PBO5I3MV1,3Z4GS9HPNZQSY8EQXRH80DUIIP777Q,7,8
71,3,object_02,object_03,922.0,5,2,477.0,1.0,1,object_07,1,971,0,9,3,library_3,2,memory-2step-stake-s,595,2194147,0.0-19.0-0.0-0.71,A80X2FTFDSR19,3QX22DUVPRXA8IOFTTHB0PBO5I3MV1,3Z4GS9HPNZQSY8EQXRH80DUIIP777Q,6,5
72,3,object_02,object_03,1002.0,5,2,597.0,0.8888888888888888,1,object_07,1,979,0,8,3,library_3,2,memory-2step-stake-s,596,2203014,0.0-19.0-0.0-0.72,A80X2FTFDSR19,3QX22DUVPRXA8IOFTTHB0PBO5I3MV1,3Z4GS9HPNZQSY8EQXRH80DUIIP777Q,6,5
73,3,object_02,object_03,1232.0,5,2,1207.0,0.6666666666666666,1,object_07,1,985,0,6,5,library_3,2,memory-2step-stake-s,597,2212223,0.0-19.0-0.0-0.73,A80X2FTFDSR19,3QX22DUVPRXA8IOFTTHB0PBO5I3MV1,3Z4GS9HPNZQSY8EQXRH80DUIIP777Q,6,5
74,2,object_01,object_10,1002.0,3,1,374.0,0.6666666666666666,1,object_07,5,1015,0,6,2,forest_3,2,memory-2step-stake-s,598,2220623,0.0-19.0-0.0-0.74,A80X2FTFDSR19,3QX22DUVPRXA8IOFTTHB0PBO5I3MV1,3Z4GS9HPNZQSY8EQXRH80DUIIP777Q,3,4
75,3,object_03,object_02,862.0,5,1,840.0,0.7777777777777778,1,object_07,1,1022,0,7,3,library_6,2,memory-2step-stake-s,599,2229624,0.0-19.0-0.0-0.75,A80X2FTFDSR19,3QX22DUVPRXA8IOFTTHB0PBO5I3MV1,3Z4GS9HPNZQSY8EQXRH80DUIIP777Q,5,6
76,4,object_06,object_09,1226.0,7,2,361.0,0.7777777777777778,1,object_07,1,1029,0,7,4,restaurant_8,2,memory-2step-stake-s,600,2238124,0.0-19.0-0.0-0.76,A80X2FTFDSR19,3QX22DUVPRXA8IOFTTHB0PBO5I3MV1,3Z4GS9HPNZQSY8EQXRH80DUIIP777Q,8,7
77,2,object_01,object_10,825.0,3,1,313.0,0.7777777777777778,1,object_07,5,1064,0,7,6,forest_7,2,memory-2step-stake-s,601,2246584,0.0-19.0-0.0-0.77,A80X2FTFDSR19,3QX22DUVPRXA8IOFTTHB0PBO5I3MV1,3Z4GS9HPNZQSY8EQXRH80DUIIP777Q,3,4
78,3,object_02,object_03,965.0,5,2,319.0,0.5555555555555556,1,object_07,1,1069,0,5,8,library_3,2,memory-2step-stake-s,602,2254813,0.0-19.0-0.0-0.78,A80X2FTFDSR19,3QX22DUVPRXA8IOFTTHB0PBO5I3MV1,3Z4GS9HPNZQSY8EQXRH80DUIIP777Q,6,5
79,3,object_03,object_02,731.0,5,1,378.0,0.7777777777777778,1,object_07,1,1076,0,7,9,library_7,2,memory-2step-stake-s,603,2263363,0.0-19.0-0.0-0.79,A80X2FTFDSR19,3QX22DUVPRXA8IOFTTHB0PBO5I3MV1,3Z4GS9HPNZQSY8EQXRH80DUIIP777Q,5,6
80,3,object_03,object_02,887.0,5,1,216.0,0.8888888888888888,1,object_07,1,1084,0,8,9,library_7,2,memory-2step-stake-s,604,2271853,0.0-19.0-0.0-0.80,A80X2FTFDSR19,3QX22DUVPRXA8IOFTTHB0PBO5I3MV1,3Z4GS9HPNZQSY8EQXRH80DUIIP777Q,5,6
81,1,object_08,object_05,793.0,1,2,341.0,0.7777777777777778,1,object_07,5,1119,0,7,9,desert_2,2,memory-2step-stake-s,605,2280323,0.0-19.0-0.0-0.81,A80X2FTFDSR19,3QX22DUVPRXA8IOFTTHB0PBO5I3MV1,3Z4GS9HPNZQSY8EQXRH80DUIIP777Q,2,1
82,4,object_06,object_09,1022.0,7,2,331.0,0.5555555555555556,1,object_07,1,1124,0,5,7,restaurant_8,2,memory-2step-stake-s,606,2288603,0.0-19.0-0.0-0.82,A80X2FTFDSR19,3QX22DUVPRXA8IOFTTHB0PBO5I3MV1,3Z4GS9HPNZQSY8EQXRH80DUIIP777Q,8,7
83,4,object_09,object_06,992.0,7,1,346.0,0.1111111111111111,1,object_07,1,1125,0,1,8,restaurant_1,2,memory-2step-stake-s,607,2296359,0.0-19.0-0.0-0.83,A80X2FTFDSR19,3QX22DUVPRXA8IOFTTHB0PBO5I3MV1,3Z4GS9HPNZQSY8EQXRH80DUIIP777Q,7,8
84,1,object_05,object_08,712.0,1,1,353.0,0.1111111111111111,1,object_07,5,1130,0,1,6,desert_4,2,memory-2step-stake-s,608,2304124,0.0-19.0-0.0-0.84,A80X2FTFDSR19,3QX22DUVPRXA8IOFTTHB0PBO5I3MV1,3Z4GS9HPNZQSY8EQXRH80DUIIP777Q,1,2
85,2,object_01,object_10,1274.0,3,1,713.0,0.1111111111111111,1,object_07,5,1135,0,1,6,forest_3,2,memory-2step-stake-s,609,2312273,0.0-19.0-0.0-0.85,A80X2FTFDSR19,3QX22DUVPRXA8IOFTTHB0PBO5I3MV1,3Z4GS9HPNZQSY8EQXRH80DUIIP777Q,3,4
86,1,object_05,object_08,617.0,1,1,440.0,0.1111111111111111,1,object_07,5,1140,0,1,5,desert_2,2,memory-2step-stake-s,610,2320143,0.0-19.0-0.0-0.86,A80X2FTFDSR19,3QX22DUVPRXA8IOFTTHB0PBO5I3MV1,3Z4GS9HPNZQSY8EQXRH80DUIIP777Q,1,2
87,3,object_03,object_02,833.0,5,1,558.0,0.2222222222222222,1,object_07,1,1142,0,2,7,library_5,2,memory-2step-stake-s,611,2328253,0.0-19.0-0.0-0.87,A80X2FTFDSR19,3QX22DUVPRXA8IOFTTHB0PBO5I3MV1,3Z4GS9HPNZQSY8EQXRH80DUIIP777Q,5,6
88,3,object_03,object_02,693.0,5,1,284.0,0.3333333333333333,1,object_07,1,1145,0,3,6,library_3,2,memory-2step-stake-s,612,2336194,0.0-19.0-0.0-0.88,A80X2FTFDSR19,3QX22DUVPRXA8IOFTTHB0PBO5I3MV1,3Z4GS9HPNZQSY8EQXRH80DUIIP777Q,5,6
89,1,object_08,object_05,713.0,1,2,621.0,0.4444444444444444,1,object_07,5,1165,0,4,4,desert_2,2,memory-2step-stake-s,613,2344633,0.0-19.0-0.0-0.89,A80X2FTFDSR19,3QX22DUVPRXA8IOFTTHB0PBO5I3MV1,3Z4GS9HPNZQSY8EQXRH80DUIIP777Q,2,1
90,1,object_05,object_08,734.0,1,1,449.0,0.4444444444444444,1,object_07,5,1185,0,4,5,desert_4,2,memory-2step-stake-s,614,2352863,0.0-19.0-0.0-0.90,A80X2FTFDSR19,3QX22DUVPRXA8IOFTTHB0PBO5I3MV1,3Z4GS9HPNZQSY8EQXRH80DUIIP777Q,1,2
91,1,object_05,object_08,572.0,1,1,1021.0,0.3333333333333333,1,object_07,5,1200,0,3,6,desert_2,2,memory-2step-stake-s,615,2361553,0.0-19.0-0.0-0.91,A80X2FTFDSR19,3QX22DUVPRXA8IOFTTHB0PBO5I3MV1,3Z4GS9HPNZQSY8EQXRH80DUIIP777Q,1,2
92,4,object_06,object_09,1101.0,7,2,456.0,0.5555555555555556,1,object_07,1,1205,0,5,4,restaurant_6,2,memory-2step-stake-s,616,2369924,0.0-19.0-0.0-0.92,A80X2FTFDSR19,3QX22DUVPRXA8IOFTTHB0PBO5I3MV1,3Z4GS9HPNZQSY8EQXRH80DUIIP777Q,8,7
93,4,object_06,object_09,1115.0,7,2,388.0,1.0,1,object_07,1,1214,0,9,5,restaurant_1,2,memory-2step-stake-s,617,2378693,0.0-19.0-0.0-0.93,A80X2FTFDSR19,3QX22DUVPRXA8IOFTTHB0PBO5I3MV1,3Z4GS9HPNZQSY8EQXRH80DUIIP777Q,8,7
94,3,object_02,object_03,895.0,5,2,471.0,1.0,1,object_07,5,1259,0,9,7,library_7,2,memory-2step-stake-s,618,2387533,0.0-19.0-0.0-0.94,A80X2FTFDSR19,3QX22DUVPRXA8IOFTTHB0PBO5I3MV1,3Z4GS9HPNZQSY8EQXRH80DUIIP777Q,6,5
95,1,object_05,object_08,612.0,1,1,518.0,0.3333333333333333,1,object_07,1,1262,0,3,7,desert_6,2,memory-2step-stake-s,619,2395713,0.0-19.0-0.0-0.95,A80X2FTFDSR19,3QX22DUVPRXA8IOFTTHB0PBO5I3MV1,3Z4GS9HPNZQSY8EQXRH80DUIIP777Q,1,2
96,1,object_05,object_08,694.0,1,1,319.0,0.2222222222222222,1,object_07,5,1272,0,2,5,desert_7,2,memory-2step-stake-s,620,2403563,0.0-19.0-0.0-0.96,A80X2FTFDSR19,3QX22DUVPRXA8IOFTTHB0PBO5I3MV1,3Z4GS9HPNZQSY8EQXRH80DUIIP777Q,1,2
97,1,object_08,object_05,832.0,1,2,474.0,0.2222222222222222,1,object_07,1,1274,0,2,3,desert_4,2,memory-2step-stake-s,621,2411593,0.0-19.0-0.0-0.97,A80X2FTFDSR19,3QX22DUVPRXA8IOFTTHB0PBO5I3MV1,3Z4GS9HPNZQSY8EQXRH80DUIIP777Q,2,1
98,2,object_01,object_10,1153.0,4,2,361.0,0.2222222222222222,2,object_04,5,1284,0,1,2,forest_5,2,memory-2step-stake-s,622,2419503,0.0-19.0-0.0-0.98,A80X2FTFDSR19,3QX22DUVPRXA8IOFTTHB0PBO5I3MV1,3Z4GS9HPNZQSY8EQXRH80DUIIP777Q,3,4
99,4,object_09,object_06,892.0,7,1,350.0,0.1111111111111111,1,object_07,5,1289,0,1,1,restaurant_6,2,memory-2step-stake-s,623,2427294,0.0-19.0-0.0-0.99,A80X2FTFDSR19,3QX22DUVPRXA8IOFTTHB0PBO5I3MV1,3Z4GS9HPNZQSY8EQXRH80DUIIP777Q,7,8
100,4,object_06,object_09,869.0,7,2,296.0,0.2222222222222222,1,object_07,1,1291,0,2,1,restaurant_8,2,memory-2step-stake-s,624,2435133,0.0-19.0-0.0-0.100,A80X2FTFDSR19,3QX22DUVPRXA8IOFTTHB0PBO5I3MV1,3Z4GS9HPNZQSY8EQXRH80DUIIP777Q,8,7
101,4,object_06,object_09,869.0,7,2,373.0,0.2222222222222222,1,object_07,1,1293,0,2,3,restaurant_1,2,memory-2step-stake-s,625,2443043,0.0-19.0-0.0-0.101,A80X2FTFDSR19,3QX22DUVPRXA8IOFTTHB0PBO5I3MV1,3Z4GS9HPNZQSY8EQXRH80DUIIP777Q,8,7
102,1,object_05,object_08,672.0,1,1,681.0,0.3333333333333333,1,object_07,5,1308,0,3,5,desert_2,2,memory-2step-stake-s,626,2451394,0.0-19.0-0.0-0.102,A80X2FTFDSR19,3QX22DUVPRXA8IOFTTHB0PBO5I3MV1,3Z4GS9HPNZQSY8EQXRH80DUIIP777Q,1,2
103,2,object_01,object_10,793.0,3,1,443.0,0.1111111111111111,1,object_07,5,1313,0,1,3,forest_6,2,memory-2step-stake-s,627,2459263,0.0-19.0-0.0-0.103,A80X2FTFDSR19,3QX22DUVPRXA8IOFTTHB0PBO5I3MV1,3Z4GS9HPNZQSY8EQXRH80DUIIP777Q,3,4
104,4,object_09,object_06,823.0,7,1,478.0,0.0,1,object_07,1,1313,0,0,4,restaurant_1,2,memory-2step-stake-s,628,2467044,0.0-19.0-0.0-0.104,A80X2FTFDSR19,3QX22DUVPRXA8IOFTTHB0PBO5I3MV1,3Z4GS9HPNZQSY8EQXRH80DUIIP777Q,7,8
105,4,object_06,object_09,696.0,7,2,395.0,0.3333333333333333,1,object_07,1,1316,0,3,3,restaurant_8,2,memory-2step-stake-s,629,2475123,0.0-19.0-0.0-0.105,A80X2FTFDSR19,3QX22DUVPRXA8IOFTTHB0PBO5I3MV1,3Z4GS9HPNZQSY8EQXRH80DUIIP777Q,8,7
106,4,object_09,object_06,675.0,7,1,306.0,0.0,1,object_07,1,1316,0,0,1,restaurant_6,2,memory-2step-stake-s,630,2482753,0.0-19.0-0.0-0.106,A80X2FTFDSR19,3QX22DUVPRXA8IOFTTHB0PBO5I3MV1,3Z4GS9HPNZQSY8EQXRH80DUIIP777Q,7,8
107,1,object_08,object_05,647.0,1,2,503.0,0.0,1,object_07,1,1316,0,0,0,desert_6,2,memory-2step-stake-s,631,2490554,0.0-19.0-0.0-0.107,A80X2FTFDSR19,3QX22DUVPRXA8IOFTTHB0PBO5I3MV1,3Z4GS9HPNZQSY8EQXRH80DUIIP777Q,2,1
108,2,object_10,object_01,723.0,4,1,390.0,0.1111111111111111,2,object_04,5,1321,0,0,1,forest_7,2,memory-2step-stake-s,632,2498363,0.0-19.0-0.0-0.108,A80X2FTFDSR19,3QX22DUVPRXA8IOFTTHB0PBO5I3MV1,3Z4GS9HPNZQSY8EQXRH80DUIIP777Q,4,3
109,3,object_02,object_03,988.0,5,2,486.0,0.0,1,object_07,1,1321,0,0,4,library_6,2,memory-2step-stake-s,633,2506148,0.0-19.0-0.0-0.109,A80X2FTFDSR19,3QX22DUVPRXA8IOFTTHB0PBO5I3MV1,3Z4GS9HPNZQSY8EQXRH80DUIIP777Q,6,5
110,4,object_09,object_06,701.0,7,1,519.0,0.3333333333333333,1,object_07,1,1324,0,3,2,restaurant_3,2,memory-2step-stake-s,634,2514303,0.0-19.0-0.0-0.110,A80X2FTFDSR19,3QX22DUVPRXA8IOFTTHB0PBO5I3MV1,3Z4GS9HPNZQSY8EQXRH80DUIIP777Q,7,8
111,4,object_09,object_06,769.0,8,2,754.0,0.6666666666666666,2,object_04,1,1330,0,4,6,restaurant_1,2,memory-2step-stake-s,635,2523037,0.0-19.0-0.0-0.111,A80X2FTFDSR19,3QX22DUVPRXA8IOFTTHB0PBO5I3MV1,3Z4GS9HPNZQSY8EQXRH80DUIIP777Q,7,8
112,1,object_08,object_05,664.0,1,2,532.0,0.5555555555555556,1,object_07,1,1335,0,5,6,desert_4,2,memory-2step-stake-s,636,2531443,0.0-19.0-0.0-0.112,A80X2FTFDSR19,3QX22DUVPRXA8IOFTTHB0PBO5I3MV1,3Z4GS9HPNZQSY8EQXRH80DUIIP777Q,2,1
113,3,object_03,object_02,661.0,5,1,304.0,0.5555555555555556,1,object_07,1,1340,0,5,7,library_7,2,memory-2step-stake-s,637,2539643,0.0-19.0-0.0-0.113,A80X2FTFDSR19,3QX22DUVPRXA8IOFTTHB0PBO5I3MV1,3Z4GS9HPNZQSY8EQXRH80DUIIP777Q,5,6
114,3,object_03,object_02,676.0,5,1,621.0,0.4444444444444444,1,object_07,5,1360,0,4,7,library_6,2,memory-2step-stake-s,638,2548043,0.0-19.0-0.0-0.114,A80X2FTFDSR19,3QX22DUVPRXA8IOFTTHB0PBO5I3MV1,3Z4GS9HPNZQSY8EQXRH80DUIIP777Q,5,6
115,3,object_03,object_02,710.0,5,1,561.0,0.2222222222222222,1,object_07,1,1362,0,2,8,library_7,2,memory-2step-stake-s,639,2556143,0.0-19.0-0.0-0.115,A80X2FTFDSR19,3QX22DUVPRXA8IOFTTHB0PBO5I3MV1,3Z4GS9HPNZQSY8EQXRH80DUIIP777Q,5,6
116,3,object_03,object_02,651.0,5,1,504.0,0.3333333333333333,1,object_07,1,1365,0,3,6,library_5,2,memory-2step-stake-s,640,2564303,0.0-19.0-0.0-0.116,A80X2FTFDSR19,3QX22DUVPRXA8IOFTTHB0PBO5I3MV1,3Z4GS9HPNZQSY8EQXRH80DUIIP777Q,5,6
117,3,object_02,object_03,912.0,5,2,587.0,0.3333333333333333,1,object_07,1,1368,0,3,7,library_3,2,memory-2step-stake-s,641,2572564,0.0-19.0-0.0-0.117,A80X2FTFDSR19,3QX22DUVPRXA8IOFTTHB0PBO5I3MV1,3Z4GS9HPNZQSY8EQXRH80DUIIP777Q,6,5
118,4,object_09,object_06,851.0,7,1,498.0,0.2222222222222222,1,object_07,1,1370,0,2,6,restaurant_6,2,memory-2step-stake-s,642,2580644,0.0-19.0-0.0-0.118,A80X2FTFDSR19,3QX22DUVPRXA8IOFTTHB0PBO5I3MV1,3Z4GS9HPNZQSY8EQXRH80DUIIP777Q,7,8
119,1,object_05,object_08,668.0,1,1,679.0,0.5555555555555556,1,object_07,5,1395,0,5,3,desert_2,2,memory-2step-stake-s,643,2589203,0.0-19.0-0.0-0.119,A80X2FTFDSR19,3QX22DUVPRXA8IOFTTHB0PBO5I3MV1,3Z4GS9HPNZQSY8EQXRH80DUIIP777Q,1,2
120,2,object_01,object_10,1001.0,4,2,574.0,0.4444444444444444,2,object_04,5,1415,0,6,4,forest_5,2,memory-2step-stake-s,644,2597593,0.0-19.0-0.0-0.120,A80X2FTFDSR19,3QX22DUVPRXA8IOFTTHB0PBO5I3MV1,3Z4GS9HPNZQSY8EQXRH80DUIIP777Q,3,4
121,3,object_03,object_02,702.0,5,1,643.0,0.0,1,object_07,1,1415,0,0,6,library_5,2,memory-2step-stake-s,645,2605553,0.0-19.0-0.0-0.121,A80X2FTFDSR19,3QX22DUVPRXA8IOFTTHB0PBO5I3MV1,3Z4GS9HPNZQSY8EQXRH80DUIIP777Q,5,6
122,2,object_10,object_01,703.0,3,2,518.0,0.3333333333333333,1,object_07,5,1430,0,3,8,forest_6,2,memory-2step-stake-s,646,2613774,0.0-19.0-0.0-0.122,A80X2FTFDSR19,3QX22DUVPRXA8IOFTTHB0PBO5I3MV1,3Z4GS9HPNZQSY8EQXRH80DUIIP777Q,4,3
123,4,object_06,object_09,688.0,7,2,389.0,0.3333333333333333,1,object_07,1,1433,0,3,7,restaurant_6,2,memory-2step-stake-s,647,2621854,0.0-19.0-0.0-0.123,A80X2FTFDSR19,3QX22DUVPRXA8IOFTTHB0PBO5I3MV1,3Z4GS9HPNZQSY8EQXRH80DUIIP777Q,8,7
124,2,object_10,object_01,685.0,4,1,522.0,0.6666666666666666,2,object_04,5,1463,0,1,6,forest_6,2,memory-2step-stake-s,648,2630404,0.0-19.0-0.0-0.124,A80X2FTFDSR19,3QX22DUVPRXA8IOFTTHB0PBO5I3MV1,3Z4GS9HPNZQSY8EQXRH80DUIIP777Q,4,3
125,1,object_08,object_05,904.0,1,2,684.0,0.1111111111111111,1,object_07,5,1468,0,1,3,desert_2,2,memory-2step-stake-s,649,2638533,0.0-19.0-0.0-0.125,A80X2FTFDSR19,3QX22DUVPRXA8IOFTTHB0PBO5I3MV1,3Z4GS9HPNZQSY8EQXRH80DUIIP777Q,2,1
126,2,object_10,object_01,640.0,4,1,418.0,0.5555555555555556,2,object_04,5,1493,0,2,5,forest_3,2,memory-2step-stake-s,650,2646883,0.0-19.0-0.0-0.126,A80X2FTFDSR19,3QX22DUVPRXA8IOFTTHB0PBO5I3MV1,3Z4GS9HPNZQSY8EQXRH80DUIIP777Q,4,3
127,1,object_05,object_08,708.0,1,1,1043.0,0.1111111111111111,1,object_07,5,1498,0,1,2,desert_4,2,memory-2step-stake-s,651,2655363,0.0-19.0-0.0-0.127,A80X2FTFDSR19,3QX22DUVPRXA8IOFTTHB0PBO5I3MV1,3Z4GS9HPNZQSY8EQXRH80DUIIP777Q,1,2
128,3,object_02,object_03,1142.0,5,2,831.0,0.1111111111111111,1,object_07,1,1499,0,1,1,library_7,2,memory-2step-stake-s,653,2666303,0.0-19.0-0.1-0.128,A80X2FTFDSR19,3QX22DUVPRXA8IOFTTHB0PBO5I3MV1,3Z4GS9HPNZQSY8EQXRH80DUIIP777Q,6,5
129,4,object_06,object_09,647.0,7,2,299.0,0.1111111111111111,1,object_07,5,1504,0,1,1,restaurant_6,2,memory-2step-stake-s,654,2674024,0.0-19.0-0.1-0.129,A80X2FTFDSR19,3QX22DUVPRXA8IOFTTHB0PBO5I3MV1,3Z4GS9HPNZQSY8EQXRH80DUIIP777Q,8,7
130,1,object_05,object_08,657.0,1,1,594.0,0.0,1,object_07,5,1504,0,0,0,desert_7,2,memory-2step-stake-s,655,2681933,0.0-19.0-0.1-0.130,A80X2FTFDSR19,3QX22DUVPRXA8IOFTTHB0PBO5I3MV1,3Z4GS9HPNZQSY8EQXRH80DUIIP777Q,1,2
131,3,object_03,object_02,736.0,5,1,293.0,0.0,1,object_07,1,1504,0,0,4,library_6,2,memory-2step-stake-s,656,2689524,0.0-19.0-0.1-0.131,A80X2FTFDSR19,3QX22DUVPRXA8IOFTTHB0PBO5I3MV1,3Z4GS9HPNZQSY8EQXRH80DUIIP777Q,5,6
132,1,object_05,object_08,732.0,1,1,322.0,0.1111111111111111,1,object_07,5,1509,0,1,3,desert_7,2,memory-2step-stake-s,657,2697274,0.0-19.0-0.1-0.132,A80X2FTFDSR19,3QX22DUVPRXA8IOFTTHB0PBO5I3MV1,3Z4GS9HPNZQSY8EQXRH80DUIIP777Q,1,2
133,3,object_02,object_03,803.0,5,2,513.0,0.0,1,object_07,1,1509,0,0,4,library_7,2,memory-2step-stake-s,658,2705114,0.0-19.0-0.1-0.133,A80X2FTFDSR19,3QX22DUVPRXA8IOFTTHB0PBO5I3MV1,3Z4GS9HPNZQSY8EQXRH80DUIIP777Q,6,5
134,4,object_06,object_09,722.0,7,2,334.0,0.1111111111111111,1,object_07,1,1510,0,1,4,restaurant_3,2,memory-2step-stake-s,659,2712883,0.0-19.0-0.1-0.134,A80X2FTFDSR19,3QX22DUVPRXA8IOFTTHB0PBO5I3MV1,3Z4GS9HPNZQSY8EQXRH80DUIIP777Q,8,7
135,3,object_02,object_03,793.0,5,2,359.0,0.1111111111111111,1,object_07,1,1511,0,1,6,library_3,2,memory-2step-stake-s,660,2720693,0.0-19.0-0.1-0.135,A80X2FTFDSR19,3QX22DUVPRXA8IOFTTHB0PBO5I3MV1,3Z4GS9HPNZQSY8EQXRH80DUIIP777Q,6,5
136,2,object_10,object_01,667.0,4,1,390.0,0.3333333333333333,2,object_04,5,1526,0,2,3,forest_5,2,memory-2step-stake-s,661,2728694,0.0-19.0-0.1-0.136,A80X2FTFDSR19,3QX22DUVPRXA8IOFTTHB0PBO5I3MV1,3Z4GS9HPNZQSY8EQXRH80DUIIP777Q,4,3
137,1,object_08,object_05,810.0,1,2,800.0,0.4444444444444444,1,object_07,5,1546,0,4,0,desert_7,2,memory-2step-stake-s,662,2737274,0.0-19.0-0.1-0.137,A80X2FTFDSR19,3QX22DUVPRXA8IOFTTHB0PBO5I3MV1,3Z4GS9HPNZQSY8EQXRH80DUIIP777Q,2,1
138,2,object_01,object_10,661.0,3,1,379.0,0.4444444444444444,1,object_07,5,1566,0,4,2,forest_5,2,memory-2step-stake-s,663,2745453,0.0-19.0-0.1-0.138,A80X2FTFDSR19,3QX22DUVPRXA8IOFTTHB0PBO5I3MV1,3Z4GS9HPNZQSY8EQXRH80DUIIP777Q,3,4
139,3,object_03,object_02,725.0,5,1,390.0,0.4444444444444444,1,object_07,1,1570,0,4,2,library_6,2,memory-2step-stake-s,664,2753643,0.0-19.0-0.1-0.139,A80X2FTFDSR19,3QX22DUVPRXA8IOFTTHB0PBO5I3MV1,3Z4GS9HPNZQSY8EQXRH80DUIIP777Q,5,6
140,2,object_10,object_01,807.0,4,1,592.0,0.3333333333333333,2,object_04,5,1585,0,4,3,forest_3,2,memory-2step-stake-s,665,2761903,0.0-19.0-0.1-0.140,A80X2FTFDSR19,3QX22DUVPRXA8IOFTTHB0PBO5I3MV1,3Z4GS9HPNZQSY8EQXRH80DUIIP777Q,4,3
141,4,object_06,object_09,731.0,7,2,344.0,0.5555555555555556,1,object_07,1,1590,0,5,2,restaurant_8,2,memory-2step-stake-s,666,2770193,0.0-19.0-0.1-0.141,A80X2FTFDSR19,3QX22DUVPRXA8IOFTTHB0PBO5I3MV1,3Z4GS9HPNZQSY8EQXRH80DUIIP777Q,8,7
142,2,object_10,object_01,571.0,4,1,427.0,0.3333333333333333,2,object_04,5,1605,0,6,3,forest_5,2,memory-2step-stake-s,667,2778294,0.0-19.0-0.1-0.142,A80X2FTFDSR19,3QX22DUVPRXA8IOFTTHB0PBO5I3MV1,3Z4GS9HPNZQSY8EQXRH80DUIIP777Q,4,3
143,2,object_10,object_01,647.0,4,1,661.0,0.5555555555555556,2,object_04,1,1610,0,7,5,forest_6,2,memory-2step-stake-s,668,2786873,0.0-19.0-0.1-0.143,A80X2FTFDSR19,3QX22DUVPRXA8IOFTTHB0PBO5I3MV1,3Z4GS9HPNZQSY8EQXRH80DUIIP777Q,4,3
144,1,object_08,object_05,709.0,1,2,-1.0,0.0,1,object_07,5,1610,0,7,3,desert_7,2,memory-2step-stake-s,669,2795494,0.0-19.0-0.1-0.144,A80X2FTFDSR19,3QX22DUVPRXA8IOFTTHB0PBO5I3MV1,3Z4GS9HPNZQSY8EQXRH80DUIIP777Q,2,1
145,2,object_01,object_10,1153.0,4,2,709.0,0.2222222222222222,2,object_04,5,1620,0,5,2,forest_3,2,memory-2step-stake-s,670,2803743,0.0-19.0-0.1-0.145,A80X2FTFDSR19,3QX22DUVPRXA8IOFTTHB0PBO5I3MV1,3Z4GS9HPNZQSY8EQXRH80DUIIP777Q,3,4
146,1,object_08,object_05,731.0,1,2,-1.0,0.0,1,object_07,1,1620,0,7,2,desert_6,2,memory-2step-stake-s,671,2812323,0.0-19.0-0.1-0.146,A80X2FTFDSR19,3QX22DUVPRXA8IOFTTHB0PBO5I3MV1,3Z4GS9HPNZQSY8EQXRH80DUIIP777Q,2,1
147,4,object_06,object_09,644.0,8,1,302.0,0.1111111111111111,2,object_04,1,1621,0,5,1,restaurant_3,2,memory-2step-stake-s,672,2820044,0.0-19.0-0.1-0.147,A80X2FTFDSR19,3QX22DUVPRXA8IOFTTHB0PBO5I3MV1,3Z4GS9HPNZQSY8EQXRH80DUIIP777Q,8,7
148,3,object_03,object_02,965.0,6,2,302.0,0.3333333333333333,2,object_04,1,1624,0,6,3,library_6,2,memory-2step-stake-s,673,2828044,0.0-19.0-0.1-0.148,A80X2FTFDSR19,3QX22DUVPRXA8IOFTTHB0PBO5I3MV1,3Z4GS9HPNZQSY8EQXRH80DUIIP777Q,5,6
149,1,object_08,object_05,1023.0,1,2,433.0,0.5555555555555556,1,object_07,1,1629,0,5,2,desert_4,2,memory-2step-stake-s,674,2836393,0.0-19.0-0.1-0.149,A80X2FTFDSR19,3QX22DUVPRXA8IOFTTHB0PBO5I3MV1,3Z4GS9HPNZQSY8EQXRH80DUIIP777Q,2,1
150,2,object_01,object_10,924.0,3,1,323.0,0.2222222222222222,1,object_07,5,1639,0,2,2,forest_6,2,memory-2step-stake-s,675,2844284,0.0-19.0-0.1-0.150,A80X2FTFDSR19,3QX22DUVPRXA8IOFTTHB0PBO5I3MV1,3Z4GS9HPNZQSY8EQXRH80DUIIP777Q,3,4
151,3,object_02,object_03,732.0,6,1,300.0,0.4444444444444444,2,object_04,5,1659,0,2,4,library_5,2,memory-2step-stake-s,676,2852363,0.0-19.0-0.1-0.151,A80X2FTFDSR19,3QX22DUVPRXA8IOFTTHB0PBO5I3MV1,3Z4GS9HPNZQSY8EQXRH80DUIIP777Q,6,5
152,2,object_10,object_01,1114.0,3,2,385.0,0.0,1,object_07,5,1659,0,0,5,forest_6,2,memory-2step-stake-s,677,2860063,0.0-19.0-0.1-0.152,A80X2FTFDSR19,3QX22DUVPRXA8IOFTTHB0PBO5I3MV1,3Z4GS9HPNZQSY8EQXRH80DUIIP777Q,4,3
153,1,object_08,object_05,821.0,2,1,1001.0,0.4444444444444444,2,object_04,1,1663,0,4,4,desert_4,2,memory-2step-stake-s,678,2868843,0.0-19.0-0.1-0.153,A80X2FTFDSR19,3QX22DUVPRXA8IOFTTHB0PBO5I3MV1,3Z4GS9HPNZQSY8EQXRH80DUIIP777Q,2,1
154,3,object_03,object_02,987.0,6,2,310.0,0.7777777777777778,2,object_04,1,1670,0,6,7,library_3,2,memory-2step-stake-s,679,2877303,0.0-19.0-0.1-0.154,A80X2FTFDSR19,3QX22DUVPRXA8IOFTTHB0PBO5I3MV1,3Z4GS9HPNZQSY8EQXRH80DUIIP777Q,5,6
155,3,object_03,object_02,900.0,6,2,315.0,0.7777777777777778,2,object_04,1,1677,0,8,7,library_6,2,memory-2step-stake-s,680,2885754,0.0-19.0-0.1-0.155,A80X2FTFDSR19,3QX22DUVPRXA8IOFTTHB0PBO5I3MV1,3Z4GS9HPNZQSY8EQXRH80DUIIP777Q,5,6
156,4,object_06,object_09,1002.0,7,2,295.0,0.7777777777777778,1,object_07,1,1684,0,7,6,restaurant_8,2,memory-2step-stake-s,681,2894194,0.0-19.0-0.1-0.156,A80X2FTFDSR19,3QX22DUVPRXA8IOFTTHB0PBO5I3MV1,3Z4GS9HPNZQSY8EQXRH80DUIIP777Q,8,7
157,2,object_01,object_10,977.0,4,2,283.0,0.6666666666666666,2,object_04,5,1714,0,8,6,forest_5,2,memory-2step-stake-s,682,2902523,0.0-19.0-0.1-0.157,A80X2FTFDSR19,3QX22DUVPRXA8IOFTTHB0PBO5I3MV1,3Z4GS9HPNZQSY8EQXRH80DUIIP777Q,3,4
158,4,object_06,object_09,733.0,8,1,310.0,0.4444444444444444,2,object_04,1,1718,0,7,4,restaurant_8,2,memory-2step-stake-s,683,2910634,0.0-19.0-0.1-0.158,A80X2FTFDSR19,3QX22DUVPRXA8IOFTTHB0PBO5I3MV1,3Z4GS9HPNZQSY8EQXRH80DUIIP777Q,8,7
159,2,object_10,object_01,867.0,3,2,313.0,0.4444444444444444,1,object_07,5,1738,0,4,2,forest_5,2,memory-2step-stake-s,684,2918753,0.0-19.0-0.1-0.159,A80X2FTFDSR19,3QX22DUVPRXA8IOFTTHB0PBO5I3MV1,3Z4GS9HPNZQSY8EQXRH80DUIIP777Q,4,3
160,3,object_02,object_03,554.0,6,1,310.0,0.4444444444444444,2,object_04,1,1742,0,5,4,library_3,2,memory-2step-stake-s,685,2926833,0.0-19.0-0.1-0.160,A80X2FTFDSR19,3QX22DUVPRXA8IOFTTHB0PBO5I3MV1,3Z4GS9HPNZQSY8EQXRH80DUIIP777Q,6,5
161,2,object_01,object_10,739.0,4,2,521.0,0.8888888888888888,2,object_04,5,1782,0,8,8,forest_7,2,memory-2step-stake-s,686,2935616,0.0-19.0-0.1-0.161,A80X2FTFDSR19,3QX22DUVPRXA8IOFTTHB0PBO5I3MV1,3Z4GS9HPNZQSY8EQXRH80DUIIP777Q,3,4
162,1,object_08,object_05,1051.0,2,1,699.0,1.0,2,object_04,5,1827,0,7,9,desert_2,2,memory-2step-stake-s,687,2944683,0.0-19.0-0.1-0.162,A80X2FTFDSR19,3QX22DUVPRXA8IOFTTHB0PBO5I3MV1,3Z4GS9HPNZQSY8EQXRH80DUIIP777Q,2,1
163,3,object_03,object_02,1203.0,6,2,632.0,0.7777777777777778,2,object_04,5,1862,0,7,7,library_6,2,memory-2step-stake-s,688,2953454,0.0-19.0-0.1-0.163,A80X2FTFDSR19,3QX22DUVPRXA8IOFTTHB0PBO5I3MV1,3Z4GS9HPNZQSY8EQXRH80DUIIP777Q,5,6
164,4,object_09,object_06,1296.0,8,2,599.0,0.7777777777777778,2,object_04,5,1897,0,7,7,restaurant_3,2,memory-2step-stake-s,689,2962213,0.0-19.0-0.1-0.164,A80X2FTFDSR19,3QX22DUVPRXA8IOFTTHB0PBO5I3MV1,3Z4GS9HPNZQSY8EQXRH80DUIIP777Q,7,8
165,2,object_01,object_10,906.0,4,2,268.0,0.7777777777777778,2,object_04,5,1932,0,8,7,forest_5,2,memory-2step-stake-s,690,2970634,0.0-19.0-0.1-0.165,A80X2FTFDSR19,3QX22DUVPRXA8IOFTTHB0PBO5I3MV1,3Z4GS9HPNZQSY8EQXRH80DUIIP777Q,3,4
166,4,object_06,object_09,738.0,7,2,325.0,0.8888888888888888,1,object_07,1,1940,0,8,9,restaurant_6,2,memory-2step-stake-s,691,2979214,0.0-19.0-0.1-0.166,A80X2FTFDSR19,3QX22DUVPRXA8IOFTTHB0PBO5I3MV1,3Z4GS9HPNZQSY8EQXRH80DUIIP777Q,8,7
167,2,object_01,object_10,782.0,3,1,299.0,1.0,1,object_07,5,1985,0,9,8,forest_5,2,memory-2step-stake-s,692,2987893,0.0-19.0-0.1-0.167,A80X2FTFDSR19,3QX22DUVPRXA8IOFTTHB0PBO5I3MV1,3Z4GS9HPNZQSY8EQXRH80DUIIP777Q,3,4
168,3,object_02,object_03,753.0,6,1,339.0,0.8888888888888888,2,object_04,1,1993,0,8,8,library_5,2,memory-2step-stake-s,693,2996504,0.0-19.0-0.1-0.168,A80X2FTFDSR19,3QX22DUVPRXA8IOFTTHB0PBO5I3MV1,3Z4GS9HPNZQSY8EQXRH80DUIIP777Q,6,5
169,1,object_05,object_08,936.0,2,2,428.0,1.0,2,object_04,1,2002,0,8,9,desert_6,2,memory-2step-stake-s,694,3005333,0.0-19.0-0.1-0.169,A80X2FTFDSR19,3QX22DUVPRXA8IOFTTHB0PBO5I3MV1,3Z4GS9HPNZQSY8EQXRH80DUIIP777Q,1,2
170,4,object_06,object_09,927.0,7,2,243.0,0.7777777777777778,1,object_07,1,2009,0,7,7,restaurant_8,2,memory-2step-stake-s,695,3013723,0.0-19.0-0.1-0.170,A80X2FTFDSR19,3QX22DUVPRXA8IOFTTHB0PBO5I3MV1,3Z4GS9HPNZQSY8EQXRH80DUIIP777Q,8,7
171,4,object_09,object_06,903.0,8,2,294.0,0.8888888888888888,2,object_04,5,2049,0,7,8,restaurant_3,2,memory-2step-stake-s,696,3022283,0.0-19.0-0.1-0.171,A80X2FTFDSR19,3QX22DUVPRXA8IOFTTHB0PBO5I3MV1,3Z4GS9HPNZQSY8EQXRH80DUIIP777Q,7,8
172,2,object_10,object_01,754.0,4,1,275.0,0.7777777777777778,2,object_04,5,2084,0,8,7,forest_6,2,memory-2step-stake-s,697,3030714,0.0-19.0-0.1-0.172,A80X2FTFDSR19,3QX22DUVPRXA8IOFTTHB0PBO5I3MV1,3Z4GS9HPNZQSY8EQXRH80DUIIP777Q,4,3
173,2,object_01,object_10,824.0,4,2,285.0,0.8888888888888888,2,object_04,5,2124,0,6,8,forest_7,2,memory-2step-stake-s,698,3039276,0.0-19.0-0.1-0.173,A80X2FTFDSR19,3QX22DUVPRXA8IOFTTHB0PBO5I3MV1,3Z4GS9HPNZQSY8EQXRH80DUIIP777Q,3,4
174,3,object_03,object_02,560.0,6,2,363.0,1.0,2,object_04,1,2133,0,4,9,library_3,2,memory-2step-stake-s,699,3047993,0.0-19.0-0.1-0.174,A80X2FTFDSR19,3QX22DUVPRXA8IOFTTHB0PBO5I3MV1,3Z4GS9HPNZQSY8EQXRH80DUIIP777Q,5,6
175,1,object_05,object_08,936.0,2,2,845.0,0.6666666666666666,2,object_04,5,2163,0,5,6,desert_6,2,memory-2step-stake-s,700,3056873,0.0-19.0-0.1-0.175,A80X2FTFDSR19,3QX22DUVPRXA8IOFTTHB0PBO5I3MV1,3Z4GS9HPNZQSY8EQXRH80DUIIP777Q,1,2
176,1,object_05,object_08,848.0,2,2,721.0,0.2222222222222222,2,object_04,1,2165,0,7,2,desert_4,2,memory-2step-stake-s,701,3065113,0.0-19.0-0.1-0.176,A80X2FTFDSR19,3QX22DUVPRXA8IOFTTHB0PBO5I3MV1,3Z4GS9HPNZQSY8EQXRH80DUIIP777Q,1,2
177,2,object_10,object_01,626.0,4,1,308.0,0.0,2,object_04,5,2165,0,8,0,forest_7,2,memory-2step-stake-s,702,3072733,0.0-19.0-0.1-0.177,A80X2FTFDSR19,3QX22DUVPRXA8IOFTTHB0PBO5I3MV1,3Z4GS9HPNZQSY8EQXRH80DUIIP777Q,4,3
178,1,object_08,object_05,1005.0,2,1,160.0,0.0,2,object_04,1,2165,0,6,0,desert_6,2,memory-2step-stake-s,703,3080223,0.0-19.0-0.1-0.178,A80X2FTFDSR19,3QX22DUVPRXA8IOFTTHB0PBO5I3MV1,3Z4GS9HPNZQSY8EQXRH80DUIIP777Q,2,1
179,1,object_05,object_08,896.0,1,1,346.0,0.4444444444444444,1,object_07,5,2185,0,4,2,desert_2,2,memory-2step-stake-s,704,3088364,0.0-19.0-0.1-0.179,A80X2FTFDSR19,3QX22DUVPRXA8IOFTTHB0PBO5I3MV1,3Z4GS9HPNZQSY8EQXRH80DUIIP777Q,1,2
180,1,object_05,object_08,683.0,1,1,356.0,0.2222222222222222,1,object_07,5,2195,0,2,2,desert_2,2,memory-2step-stake-s,705,3096253,0.0-19.0-0.1-0.180,A80X2FTFDSR19,3QX22DUVPRXA8IOFTTHB0PBO5I3MV1,3Z4GS9HPNZQSY8EQXRH80DUIIP777Q,1,2
181,4,object_06,object_09,775.0,7,2,336.0,0.2222222222222222,1,object_07,1,2197,0,2,3,restaurant_3,2,memory-2step-stake-s,706,3104133,0.0-19.0-0.1-0.181,A80X2FTFDSR19,3QX22DUVPRXA8IOFTTHB0PBO5I3MV1,3Z4GS9HPNZQSY8EQXRH80DUIIP777Q,8,7
182,2,object_10,object_01,945.0,3,2,293.0,0.6666666666666666,1,object_07,1,2203,0,6,4,forest_3,2,memory-2step-stake-s,707,3112464,0.0-19.0-0.1-0.182,A80X2FTFDSR19,3QX22DUVPRXA8IOFTTHB0PBO5I3MV1,3Z4GS9HPNZQSY8EQXRH80DUIIP777Q,4,3
183,4,object_06,object_09,783.0,8,1,349.0,0.2222222222222222,2,object_04,1,2205,0,5,2,restaurant_1,2,memory-2step-stake-s,708,3120353,0.0-19.0-0.1-0.183,A80X2FTFDSR19,3QX22DUVPRXA8IOFTTHB0PBO5I3MV1,3Z4GS9HPNZQSY8EQXRH80DUIIP777Q,8,7
184,1,object_05,object_08,836.0,2,2,355.0,0.7777777777777778,2,object_04,5,2240,0,9,7,desert_7,2,memory-2step-stake-s,709,3128854,0.0-19.0-0.1-0.184,A80X2FTFDSR19,3QX22DUVPRXA8IOFTTHB0PBO5I3MV1,3Z4GS9HPNZQSY8EQXRH80DUIIP777Q,1,2
185,4,object_06,object_09,868.0,8,1,450.0,0.8888888888888888,2,object_04,5,2280,0,5,8,restaurant_8,2,memory-2step-stake-s,710,3137573,0.0-19.0-0.1-0.185,A80X2FTFDSR19,3QX22DUVPRXA8IOFTTHB0PBO5I3MV1,3Z4GS9HPNZQSY8EQXRH80DUIIP777Q,8,7
186,3,object_02,object_03,670.0,6,1,281.0,0.7777777777777778,2,object_04,5,2315,0,4,7,library_3,2,memory-2step-stake-s,711,3146024,0.0-19.0-0.1-0.186,A80X2FTFDSR19,3QX22DUVPRXA8IOFTTHB0PBO5I3MV1,3Z4GS9HPNZQSY8EQXRH80DUIIP777Q,6,5
187,3,object_02,object_03,647.0,6,1,273.0,1.0,2,object_04,1,2324,0,0,9,library_5,2,memory-2step-stake-s,712,3154693,0.0-19.0-0.1-0.187,A80X2FTFDSR19,3QX22DUVPRXA8IOFTTHB0PBO5I3MV1,3Z4GS9HPNZQSY8EQXRH80DUIIP777Q,6,5
188,2,object_01,object_10,945.0,3,1,310.0,0.1111111111111111,1,object_07,5,2329,0,1,6,forest_7,2,memory-2step-stake-s,713,3162413,0.0-19.0-0.1-0.188,A80X2FTFDSR19,3QX22DUVPRXA8IOFTTHB0PBO5I3MV1,3Z4GS9HPNZQSY8EQXRH80DUIIP777Q,3,4
189,1,object_08,object_05,690.0,1,2,301.0,0.2222222222222222,1,object_07,1,2331,0,2,4,desert_4,2,memory-2step-stake-s,714,3170273,0.0-19.0-0.1-0.189,A80X2FTFDSR19,3QX22DUVPRXA8IOFTTHB0PBO5I3MV1,3Z4GS9HPNZQSY8EQXRH80DUIIP777Q,2,1
190,2,object_01,object_10,964.0,4,2,461.0,0.4444444444444444,2,object_04,1,2335,0,3,4,forest_6,2,memory-2step-stake-s,715,3178533,0.0-19.0-0.1-0.190,A80X2FTFDSR19,3QX22DUVPRXA8IOFTTHB0PBO5I3MV1,3Z4GS9HPNZQSY8EQXRH80DUIIP777Q,3,4
191,4,object_06,object_09,866.0,7,2,326.0,0.4444444444444444,1,object_07,1,2339,0,4,2,restaurant_3,2,memory-2step-stake-s,716,3186653,0.0-19.0-0.1-0.191,A80X2FTFDSR19,3QX22DUVPRXA8IOFTTHB0PBO5I3MV1,3Z4GS9HPNZQSY8EQXRH80DUIIP777Q,8,7
192,1,object_08,object_05,1210.0,2,1,450.0,0.3333333333333333,2,object_04,1,2342,0,7,3,desert_7,2,memory-2step-stake-s,717,3194773,0.0-19.0-0.1-0.192,A80X2FTFDSR19,3QX22DUVPRXA8IOFTTHB0PBO5I3MV1,3Z4GS9HPNZQSY8EQXRH80DUIIP777Q,2,1
193,2,object_10,object_01,712.0,3,2,346.0,0.6666666666666666,1,object_07,5,2372,0,6,4,forest_3,2,memory-2step-stake-s,718,3203143,0.0-19.0-0.1-0.193,A80X2FTFDSR19,3QX22DUVPRXA8IOFTTHB0PBO5I3MV1,3Z4GS9HPNZQSY8EQXRH80DUIIP777Q,4,3
194,1,object_08,object_05,1088.0,1,2,455.0,0.7777777777777778,1,object_07,5,2407,0,7,2,desert_7,2,memory-2step-stake-s,719,3211732,0.0-19.0-0.1-0.194,A80X2FTFDSR19,3QX22DUVPRXA8IOFTTHB0PBO5I3MV1,3Z4GS9HPNZQSY8EQXRH80DUIIP777Q,2,1
195,4,object_06,object_09,852.0,7,2,319.0,0.8888888888888888,1,object_07,1,2415,0,8,1,restaurant_1,2,memory-2step-stake-s,720,3220293,0.0-19.0-0.1-0.195,A80X2FTFDSR19,3QX22DUVPRXA8IOFTTHB0PBO5I3MV1,3Z4GS9HPNZQSY8EQXRH80DUIIP777Q,8,7
196,4,object_06,object_09,805.0,7,2,352.0,0.6666666666666666,1,object_07,1,2421,0,6,1,restaurant_6,2,memory-2step-stake-s,721,3228674,0.0-19.0-0.1-0.196,A80X2FTFDSR19,3QX22DUVPRXA8IOFTTHB0PBO5I3MV1,3Z4GS9HPNZQSY8EQXRH80DUIIP777Q,8,7
197,4,object_06,object_09,659.0,8,1,436.0,0.3333333333333333,2,object_04,1,2424,0,4,3,restaurant_8,2,memory-2step-stake-s,722,3236803,0.0-19.0-0.1-0.197,A80X2FTFDSR19,3QX22DUVPRXA8IOFTTHB0PBO5I3MV1,3Z4GS9HPNZQSY8EQXRH80DUIIP777Q,8,7
198,4,object_06,object_09,822.0,7,2,474.0,0.5555555555555556,1,object_07,1,2429,0,5,7,restaurant_6,2,memory-2step-stake-s,723,3245193,0.0-19.0-0.1-0.198,A80X2FTFDSR19,3QX22DUVPRXA8IOFTTHB0PBO5I3MV1,3Z4GS9HPNZQSY8EQXRH80DUIIP777Q,8,7
199,2,object_01,object_10,633.0,3,1,332.0,0.2222222222222222,1,object_07,5,2439,0,2,3,forest_6,2,memory-2step-stake-s,724,3253063,0.0-19.0-0.1-0.199,A80X2FTFDSR19,3QX22DUVPRXA8IOFTTHB0PBO5I3MV1,3Z4GS9HPNZQSY8EQXRH80DUIIP777Q,3,4
200,2,object_01,object_10,741.0,4,2,609.0,0.5555555555555556,2,object_04,5,2464,0,0,5,forest_3,2,memory-2step-stake-s,725,3261564,0.0-19.0-0.1-0.200,A80X2FTFDSR19,3QX22DUVPRXA8IOFTTHB0PBO5I3MV1,3Z4GS9HPNZQSY8EQXRH80DUIIP777Q,3,4
201,2,object_10,object_01,992.0,3,2,363.0,0.1111111111111111,1,object_07,5,2469,0,1,6,forest_3,2,memory-2step-stake-s,726,3269373,0.0-19.0-0.1-0.201,A80X2FTFDSR19,3QX22DUVPRXA8IOFTTHB0PBO5I3MV1,3Z4GS9HPNZQSY8EQXRH80DUIIP777Q,4,3
202,4,object_09,object_06,862.0,7,1,431.0,0.1111111111111111,1,object_07,1,2470,0,1,2,restaurant_3,2,memory-2step-stake-s,727,3277234,0.0-19.0-0.1-0.202,A80X2FTFDSR19,3QX22DUVPRXA8IOFTTHB0PBO5I3MV1,3Z4GS9HPNZQSY8EQXRH80DUIIP777Q,7,8
203,1,object_08,object_05,794.0,1,2,324.0,0.2222222222222222,1,object_07,5,2480,0,2,4,desert_7,2,memory-2step-stake-s,728,3285114,0.0-19.0-0.1-0.203,A80X2FTFDSR19,3QX22DUVPRXA8IOFTTHB0PBO5I3MV1,3Z4GS9HPNZQSY8EQXRH80DUIIP777Q,2,1
204,3,object_02,object_03,766.0,6,1,442.0,0.5555555555555556,2,object_04,1,2485,0,3,5,library_7,2,memory-2step-stake-s,729,3293434,0.0-19.0-0.1-0.204,A80X2FTFDSR19,3QX22DUVPRXA8IOFTTHB0PBO5I3MV1,3Z4GS9HPNZQSY8EQXRH80DUIIP777Q,6,5
205,4,object_09,object_06,922.0,7,1,310.0,0.4444444444444444,1,object_07,5,2505,0,4,5,restaurant_3,2,memory-2step-stake-s,730,3301543,0.0-19.0-0.1-0.205,A80X2FTFDSR19,3QX22DUVPRXA8IOFTTHB0PBO5I3MV1,3Z4GS9HPNZQSY8EQXRH80DUIIP777Q,7,8
206,3,object_02,object_03,752.0,6,1,327.0,0.3333333333333333,2,object_04,1,2508,0,5,3,library_7,2,memory-2step-stake-s,731,3309524,0.0-19.0-0.1-0.206,A80X2FTFDSR19,3QX22DUVPRXA8IOFTTHB0PBO5I3MV1,3Z4GS9HPNZQSY8EQXRH80DUIIP777Q,6,5
207,4,object_09,object_06,937.0,8,2,539.0,0.3333333333333333,2,object_04,1,2511,0,5,3,restaurant_6,2,memory-2step-stake-s,732,3317744,0.0-19.0-0.1-0.207,A80X2FTFDSR19,3QX22DUVPRXA8IOFTTHB0PBO5I3MV1,3Z4GS9HPNZQSY8EQXRH80DUIIP777Q,7,8
208,1,object_05,object_08,664.0,1,1,431.0,0.3333333333333333,1,object_07,5,2526,0,3,2,desert_2,2,memory-2step-stake-s,733,3325864,0.0-19.0-0.1-0.208,A80X2FTFDSR19,3QX22DUVPRXA8IOFTTHB0PBO5I3MV1,3Z4GS9HPNZQSY8EQXRH80DUIIP777Q,1,2
209,2,object_10,object_01,915.0,4,1,351.0,0.0,2,object_04,5,2526,0,0,0,forest_3,2,memory-2step-stake-s,734,3333544,0.0-19.0-0.1-0.209,A80X2FTFDSR19,3QX22DUVPRXA8IOFTTHB0PBO5I3MV1,3Z4GS9HPNZQSY8EQXRH80DUIIP777Q,4,3
210,4,object_06,object_09,754.0,7,2,280.0,0.2222222222222222,1,object_07,5,2536,0,2,0,restaurant_3,2,memory-2step-stake-s,735,3341383,0.0-19.0-0.1-0.210,A80X2FTFDSR19,3QX22DUVPRXA8IOFTTHB0PBO5I3MV1,3Z4GS9HPNZQSY8EQXRH80DUIIP777Q,8,7
211,3,object_02,object_03,652.0,6,1,629.0,0.5555555555555556,2,object_04,5,2561,0,5,5,library_6,2,memory-2step-stake-s,736,3349924,0.0-19.0-0.1-0.211,A80X2FTFDSR19,3QX22DUVPRXA8IOFTTHB0PBO5I3MV1,3Z4GS9HPNZQSY8EQXRH80DUIIP777Q,6,5
212,3,object_02,object_03,-1.0,-1,-1,-1.0,0.0,-,0,1,2561,0,8,3,library_6,2,memory-2step-stake-s,737,3356533,0.0-19.0-0.1-0.212,A80X2FTFDSR19,3QX22DUVPRXA8IOFTTHB0PBO5I3MV1,3Z4GS9HPNZQSY8EQXRH80DUIIP777Q,6,5
213,3,object_03,object_02,1140.0,6,2,-1.0,0.0,2,object_04,1,2561,0,9,3,library_5,2,memory-2step-stake-s,738,3365163,0.0-19.0-0.1-0.213,A80X2FTFDSR19,3QX22DUVPRXA8IOFTTHB0PBO5I3MV1,3Z4GS9HPNZQSY8EQXRH80DUIIP777Q,5,6
214,3,object_03,object_02,665.0,6,2,282.0,0.7777777777777778,2,object_04,5,2596,0,7,7,library_3,2,memory-2step-stake-s,739,3373594,0.0-19.0-0.1-0.214,A80X2FTFDSR19,3QX22DUVPRXA8IOFTTHB0PBO5I3MV1,3Z4GS9HPNZQSY8EQXRH80DUIIP777Q,5,6
215,4,object_09,object_06,534.0,7,1,289.0,0.8888888888888888,1,object_07,1,2604,0,8,6,restaurant_3,2,memory-2step-stake-s,740,3382163,0.0-19.0-0.1-0.215,A80X2FTFDSR19,3QX22DUVPRXA8IOFTTHB0PBO5I3MV1,3Z4GS9HPNZQSY8EQXRH80DUIIP777Q,7,8
216,3,object_03,object_02,525.0,6,2,292.0,0.4444444444444444,2,object_04,1,2608,0,6,4,library_5,2,memory-2step-stake-s,741,3390214,0.0-19.0-0.1-0.216,A80X2FTFDSR19,3QX22DUVPRXA8IOFTTHB0PBO5I3MV1,3Z4GS9HPNZQSY8EQXRH80DUIIP777Q,5,6
217,1,object_08,object_05,538.0,2,1,320.0,0.5555555555555556,2,object_04,1,2613,0,8,5,desert_4,2,memory-2step-stake-s,742,3398444,0.0-19.0-0.1-0.217,A80X2FTFDSR19,3QX22DUVPRXA8IOFTTHB0PBO5I3MV1,3Z4GS9HPNZQSY8EQXRH80DUIIP777Q,2,1
218,4,object_06,object_09,585.0,7,2,305.0,0.8888888888888888,1,object_07,1,2621,0,8,3,restaurant_1,2,memory-2step-stake-s,743,3406983,0.0-19.0-0.1-0.218,A80X2FTFDSR19,3QX22DUVPRXA8IOFTTHB0PBO5I3MV1,3Z4GS9HPNZQSY8EQXRH80DUIIP777Q,8,7
219,2,object_01,object_10,717.0,3,1,299.0,0.6666666666666666,1,object_07,5,2651,0,6,4,forest_7,2,memory-2step-stake-s,744,3415255,0.0-19.0-0.1-0.219,A80X2FTFDSR19,3QX22DUVPRXA8IOFTTHB0PBO5I3MV1,3Z4GS9HPNZQSY8EQXRH80DUIIP777Q,3,4
220,4,object_06,object_09,657.0,7,2,277.0,0.7777777777777778,1,object_07,1,2658,0,7,3,restaurant_1,2,memory-2step-stake-s,745,3423669,0.0-19.0-0.1-0.220,A80X2FTFDSR19,3QX22DUVPRXA8IOFTTHB0PBO5I3MV1,3Z4GS9HPNZQSY8EQXRH80DUIIP777Q,8,7
221,3,object_02,object_03,612.0,6,1,235.0,0.4444444444444444,2,object_04,1,2662,0,8,4,library_7,2,memory-2step-stake-s,746,3431683,0.0-19.0-0.1-0.221,A80X2FTFDSR19,3QX22DUVPRXA8IOFTTHB0PBO5I3MV1,3Z4GS9HPNZQSY8EQXRH80DUIIP777Q,6,5
222,3,object_03,object_02,604.0,6,2,249.0,0.5555555555555556,2,object_04,1,2667,0,8,5,library_5,2,memory-2step-stake-s,747,3439843,0.0-19.0-0.1-0.222,A80X2FTFDSR19,3QX22DUVPRXA8IOFTTHB0PBO5I3MV1,3Z4GS9HPNZQSY8EQXRH80DUIIP777Q,5,6
223,2,object_01,object_10,457.0,3,1,257.0,0.7777777777777778,1,object_07,1,2674,0,7,6,forest_6,2,memory-2step-stake-s,748,3448213,0.0-19.0-0.1-0.223,A80X2FTFDSR19,3QX22DUVPRXA8IOFTTHB0PBO5I3MV1,3Z4GS9HPNZQSY8EQXRH80DUIIP777Q,3,4
224,1,object_08,object_05,712.0,2,1,303.0,0.5555555555555556,2,object_04,5,2699,0,9,5,desert_4,2,memory-2step-stake-s,749,3456394,0.0-19.0-0.1-0.224,A80X2FTFDSR19,3QX22DUVPRXA8IOFTTHB0PBO5I3MV1,3Z4GS9HPNZQSY8EQXRH80DUIIP777Q,2,1
225,3,object_02,object_03,1022.0,6,1,661.0,0.5555555555555556,2,object_04,1,2704,0,8,5,library_3,2,memory-2step-stake-s,750,3464934,0.0-19.0-0.1-0.225,A80X2FTFDSR19,3QX22DUVPRXA8IOFTTHB0PBO5I3MV1,3Z4GS9HPNZQSY8EQXRH80DUIIP777Q,6,5
226,4,object_06,object_09,597.0,7,2,331.0,0.8888888888888888,1,object_07,5,2744,0,8,6,restaurant_3,2,memory-2step-stake-s,751,3473524,0.0-19.0-0.1-0.226,A80X2FTFDSR19,3QX22DUVPRXA8IOFTTHB0PBO5I3MV1,3Z4GS9HPNZQSY8EQXRH80DUIIP777Q,8,7
227,3,object_02,object_03,915.0,6,1,670.0,0.7777777777777778,2,object_04,5,2779,0,4,7,library_5,2,memory-2step-stake-s,752,3482353,0.0-19.0-0.1-0.227,A80X2FTFDSR19,3QX22DUVPRXA8IOFTTHB0PBO5I3MV1,3Z4GS9HPNZQSY8EQXRH80DUIIP777Q,6,5
228,1,object_08,object_05,682.0,2,1,316.0,0.7777777777777778,2,object_04,5,2814,0,2,7,desert_6,2,memory-2step-stake-s,753,3490814,0.0-19.0-0.1-0.228,A80X2FTFDSR19,3QX22DUVPRXA8IOFTTHB0PBO5I3MV1,3Z4GS9HPNZQSY8EQXRH80DUIIP777Q,2,1
229,1,object_08,object_05,633.0,2,1,273.0,0.7777777777777778,2,object_04,5,2849,0,1,7,desert_2,2,memory-2step-stake-s,754,3499254,0.0-19.0-0.1-0.229,A80X2FTFDSR19,3QX22DUVPRXA8IOFTTHB0PBO5I3MV1,3Z4GS9HPNZQSY8EQXRH80DUIIP777Q,2,1
230,1,object_08,object_05,606.0,2,1,280.0,0.8888888888888888,2,object_04,5,2889,0,1,8,desert_7,2,memory-2step-stake-s,755,3507794,0.0-19.0-0.1-0.230,A80X2FTFDSR19,3QX22DUVPRXA8IOFTTHB0PBO5I3MV1,3Z4GS9HPNZQSY8EQXRH80DUIIP777Q,2,1
231,3,object_03,object_02,766.0,5,1,287.0,0.0,1,object_07,1,2889,0,0,7,library_6,2,memory-2step-stake-s,756,3515384,0.0-19.0-0.1-0.231,A80X2FTFDSR19,3QX22DUVPRXA8IOFTTHB0PBO5I3MV1,3Z4GS9HPNZQSY8EQXRH80DUIIP777Q,5,6
232,1,object_08,object_05,980.0,1,2,435.0,0.0,1,object_07,1,2889,0,0,8,desert_6,2,memory-2step-stake-s,757,3523164,0.0-19.0-0.1-0.232,A80X2FTFDSR19,3QX22DUVPRXA8IOFTTHB0PBO5I3MV1,3Z4GS9HPNZQSY8EQXRH80DUIIP777Q,2,1
233,2,object_01,object_10,713.0,3,1,298.0,0.0,1,object_07,5,2889,0,0,9,forest_6,2,memory-2step-stake-s,758,3530794,0.0-19.0-0.1-0.233,A80X2FTFDSR19,3QX22DUVPRXA8IOFTTHB0PBO5I3MV1,3Z4GS9HPNZQSY8EQXRH80DUIIP777Q,3,4
234,2,object_01,object_10,710.0,4,2,318.0,1.0,2,object_04,5,2934,0,1,9,forest_3,2,memory-2step-stake-s,759,3539503,0.0-19.0-0.1-0.234,A80X2FTFDSR19,3QX22DUVPRXA8IOFTTHB0PBO5I3MV1,3Z4GS9HPNZQSY8EQXRH80DUIIP777Q,3,4
235,2,object_01,object_10,629.0,3,1,386.0,0.1111111111111111,1,object_07,5,2939,0,1,5,forest_3,2,memory-2step-stake-s,760,3547304,0.0-19.0-0.1-0.235,A80X2FTFDSR19,3QX22DUVPRXA8IOFTTHB0PBO5I3MV1,3Z4GS9HPNZQSY8EQXRH80DUIIP777Q,3,4
236,4,object_06,object_09,589.0,7,2,415.0,0.1111111111111111,1,object_07,1,2940,0,1,4,restaurant_8,2,memory-2step-stake-s,761,3555173,0.0-19.0-0.1-0.236,A80X2FTFDSR19,3QX22DUVPRXA8IOFTTHB0PBO5I3MV1,3Z4GS9HPNZQSY8EQXRH80DUIIP777Q,8,7
237,4,object_06,object_09,674.0,7,2,439.0,0.1111111111111111,1,object_07,1,2941,0,1,5,restaurant_6,2,memory-2step-stake-s,762,3563024,0.0-19.0-0.1-0.237,A80X2FTFDSR19,3QX22DUVPRXA8IOFTTHB0PBO5I3MV1,3Z4GS9HPNZQSY8EQXRH80DUIIP777Q,8,7
238,1,object_05,object_08,865.0,2,2,472.0,0.6666666666666666,2,object_04,5,2971,0,1,6,desert_6,2,memory-2step-stake-s,763,3571513,0.0-19.0-0.1-0.238,A80X2FTFDSR19,3QX22DUVPRXA8IOFTTHB0PBO5I3MV1,3Z4GS9HPNZQSY8EQXRH80DUIIP777Q,1,2
239,3,object_02,object_03,605.0,6,1,408.0,0.6666666666666666,2,object_04,1,2977,0,0,6,library_5,2,memory-2step-stake-s,764,3579924,0.0-19.0-0.1-0.239,A80X2FTFDSR19,3QX22DUVPRXA8IOFTTHB0PBO5I3MV1,3Z4GS9HPNZQSY8EQXRH80DUIIP777Q,6,5
240,3,object_03,object_02,769.0,6,2,580.0,0.7777777777777778,2,object_04,1,2984,0,2,7,library_3,2,memory-2step-stake-s,765,3588653,0.0-19.0-0.1-0.240,A80X2FTFDSR19,3QX22DUVPRXA8IOFTTHB0PBO5I3MV1,3Z4GS9HPNZQSY8EQXRH80DUIIP777Q,5,6
241,1,object_08,object_05,641.0,2,1,275.0,0.5555555555555556,2,object_04,5,3009,0,5,5,desert_2,2,memory-2step-stake-s,766,3596814,0.0-19.0-0.1-0.241,A80X2FTFDSR19,3QX22DUVPRXA8IOFTTHB0PBO5I3MV1,3Z4GS9HPNZQSY8EQXRH80DUIIP777Q,2,1
242,3,object_03,object_02,1127.0,6,2,452.0,0.2222222222222222,2,object_04,5,3019,0,8,2,library_5,2,memory-2step-stake-s,767,3604803,0.0-19.0-0.1-0.242,A80X2FTFDSR19,3QX22DUVPRXA8IOFTTHB0PBO5I3MV1,3Z4GS9HPNZQSY8EQXRH80DUIIP777Q,5,6
243,3,object_03,object_02,782.0,5,1,313.0,0.8888888888888888,1,object_07,1,3027,0,8,2,library_5,2,memory-2step-stake-s,768,3613373,0.0-19.0-0.1-0.243,A80X2FTFDSR19,3QX22DUVPRXA8IOFTTHB0PBO5I3MV1,3Z4GS9HPNZQSY8EQXRH80DUIIP777Q,5,6
244,3,object_02,object_03,849.0,6,1,271.0,0.3333333333333333,2,object_04,1,3030,0,8,3,library_5,2,memory-2step-stake-s,769,3621318,0.0-19.0-0.1-0.244,A80X2FTFDSR19,3QX22DUVPRXA8IOFTTHB0PBO5I3MV1,3Z4GS9HPNZQSY8EQXRH80DUIIP777Q,6,5
245,1,object_05,object_08,688.0,2,2,317.0,0.4444444444444444,2,object_04,5,3050,0,6,4,desert_7,2,memory-2step-stake-s,770,3629424,0.0-19.0-0.1-0.245,A80X2FTFDSR19,3QX22DUVPRXA8IOFTTHB0PBO5I3MV1,3Z4GS9HPNZQSY8EQXRH80DUIIP777Q,1,2
246,3,object_03,object_02,675.0,5,1,303.0,0.5555555555555556,1,object_07,1,3055,0,5,1,library_7,2,memory-2step-stake-s,771,3637644,0.0-19.0-0.1-0.246,A80X2FTFDSR19,3QX22DUVPRXA8IOFTTHB0PBO5I3MV1,3Z4GS9HPNZQSY8EQXRH80DUIIP777Q,5,6
247,4,object_09,object_06,682.0,8,2,668.0,0.1111111111111111,2,object_04,1,3056,0,4,1,restaurant_6,2,memory-2step-stake-s,772,3645753,0.0-19.0-0.1-0.247,A80X2FTFDSR19,3QX22DUVPRXA8IOFTTHB0PBO5I3MV1,3Z4GS9HPNZQSY8EQXRH80DUIIP777Q,7,8
248,2,object_10,object_01,636.0,4,1,316.0,0.1111111111111111,2,object_04,5,3061,0,5,1,forest_6,2,memory-2step-stake-s,773,3653504,0.0-19.0-0.1-0.248,A80X2FTFDSR19,3QX22DUVPRXA8IOFTTHB0PBO5I3MV1,3Z4GS9HPNZQSY8EQXRH80DUIIP777Q,4,3
249,2,object_01,object_10,704.0,3,1,-1.0,0.0,1,object_07,5,3061,0,9,3,forest_3,2,memory-2step-stake-s,774,3662114,0.0-19.0-0.1-0.249,A80X2FTFDSR19,3QX22DUVPRXA8IOFTTHB0PBO5I3MV1,3Z4GS9HPNZQSY8EQXRH80DUIIP777Q,3,4
250,1,object_08,object_05,816.0,2,1,338.0,0.5555555555555556,2,object_04,5,3086,0,8,5,desert_7,2,memory-2step-stake-s,775,3670344,0.0-19.0-0.1-0.250,A80X2FTFDSR19,3QX22DUVPRXA8IOFTTHB0PBO5I3MV1,3Z4GS9HPNZQSY8EQXRH80DUIIP777Q,2,1
251,4,object_09,object_06,483.0,8,2,867.0,0.5555555555555556,2,object_04,1,3091,0,5,5,restaurant_6,2,memory-2step-stake-s,776,3679124,0.0-19.0-0.1-0.251,A80X2FTFDSR19,3QX22DUVPRXA8IOFTTHB0PBO5I3MV1,3Z4GS9HPNZQSY8EQXRH80DUIIP777Q,7,8
252,2,object_10,object_01,605.0,4,1,723.0,0.4444444444444444,2,object_04,1,3095,0,5,4,forest_7,2,memory-2step-stake-s,777,3687621,0.0-19.0-0.1-0.252,A80X2FTFDSR19,3QX22DUVPRXA8IOFTTHB0PBO5I3MV1,3Z4GS9HPNZQSY8EQXRH80DUIIP777Q,4,3
253,3,object_02,object_03,631.0,5,2,260.0,0.3333333333333333,1,object_07,1,3098,0,3,7,library_6,2,memory-2step-stake-s,778,3695564,0.0-19.0-0.1-0.253,A80X2FTFDSR19,3QX22DUVPRXA8IOFTTHB0PBO5I3MV1,3Z4GS9HPNZQSY8EQXRH80DUIIP777Q,6,5
254,1,object_05,object_08,753.0,2,2,229.0,0.8888888888888888,2,object_04,5,3138,0,0,8,desert_4,2,memory-2step-stake-s,779,3704043,0.0-19.0-0.1-0.254,A80X2FTFDSR19,3QX22DUVPRXA8IOFTTHB0PBO5I3MV1,3Z4GS9HPNZQSY8EQXRH80DUIIP777Q,1,2
255,2,object_01,object_10,621.0,3,1,349.0,0.1111111111111111,1,object_07,5,3143,0,1,7,forest_5,2,memory-2step-stake-s,780,3711864,0.0-19.0-0.1-0.255,A80X2FTFDSR19,3QX22DUVPRXA8IOFTTHB0PBO5I3MV1,3Z4GS9HPNZQSY8EQXRH80DUIIP777Q,3,4
