,state1,stim_left,stim_right,rt_1,choice1,response1,rt_2,points,state2,stim_state2,stake,score,practice,rews1,rews2,background,high_arm,trial_type,trial_index,time_elapsed,internal_node_id,subid,hitid,assignmentid,stim_left_num,stim_right_num
0,1,object_01,object_08,800.19999998808,2,2,-1.0,0.0,2,object_10,5,0,0,2,5,desert_5,2,memory-2step-stake-s,498,3024935,0.0-19.0-0.0-0.0,A3CGQOJC28OVGN,3YGE63DIOBDQKTHDUYZ9OUNPB7QW00,3TMSXRD2XAGTD10PGJ8BRJ2MG0KW18,1,2
1,2,object_04,object_05,818.29999998212,4,1,563.0,0.4444444444444444,2,object_10,1,4,0,1,4,forest_7,2,memory-2step-stake-s,499,3033142,0.0-19.0-0.0-0.1,A3CGQOJC28OVGN,3YGE63DIOBDQKTHDUYZ9OUNPB7QW00,3TMSXRD2XAGTD10PGJ8BRJ2MG0KW18,4,3
2,1,object_08,object_01,710.90000000596,1,2,830.29999998212,0.3333333333333333,1,object_02,1,7,0,3,5,desert_5,2,memory-2step-stake-s,500,3041512,0.0-19.0-0.0-0.2,A3CGQOJC28OVGN,3YGE63DIOBDQKTHDUYZ9OUNPB7QW00,3TMSXRD2XAGTD10PGJ8BRJ2MG0KW18,2,1
3,2,object_05,object_04,705.89999997616,4,2,502.29999998212,0.5555555555555556,2,object_10,5,32,0,3,5,forest_7,2,memory-2step-stake-s,501,3049750,0.0-19.0-0.0-0.3,A3CGQOJC28OVGN,3YGE63DIOBDQKTHDUYZ9OUNPB7QW00,3TMSXRD2XAGTD10PGJ8BRJ2MG0KW18,3,4
4,3,object_09,object_06,881.90000000596,5,1,835.69999998808,0.3333333333333333,1,object_02,1,35,0,3,6,library_8,2,memory-2step-stake-s,502,3058124,0.0-19.0-0.0-0.4,A3CGQOJC28OVGN,3YGE63DIOBDQKTHDUYZ9OUNPB7QW00,3TMSXRD2XAGTD10PGJ8BRJ2MG0KW18,5,6
5,2,object_04,object_05,792.19999998808,3,2,676.40000000596,0.3333333333333333,1,object_02,5,50,0,3,6,forest_1,2,memory-2step-stake-s,503,3066335,0.0-19.0-0.0-0.5,A3CGQOJC28OVGN,3YGE63DIOBDQKTHDUYZ9OUNPB7QW00,3TMSXRD2XAGTD10PGJ8BRJ2MG0KW18,4,3
6,4,object_03,object_07,1052.0,8,1,1059.0,0.6666666666666666,2,object_10,5,80,0,2,6,restaurant_5,2,memory-2step-stake-s,504,3075230,0.0-19.0-0.0-0.6,A3CGQOJC28OVGN,3YGE63DIOBDQKTHDUYZ9OUNPB7QW00,3TMSXRD2XAGTD10PGJ8BRJ2MG0KW18,8,7
7,3,object_09,object_06,1040.0,6,2,649.0,0.6666666666666666,2,object_10,5,110,0,0,6,library_8,2,memory-2step-stake-s,505,3083717,0.0-19.0-0.0-0.7,A3CGQOJC28OVGN,3YGE63DIOBDQKTHDUYZ9OUNPB7QW00,3TMSXRD2XAGTD10PGJ8BRJ2MG0KW18,5,6
8,3,object_06,object_09,780.19999998808,6,1,573.40000000596,0.3333333333333333,2,object_10,1,113,0,3,3,library_8,2,memory-2step-stake-s,506,3091823,0.0-19.0-0.0-0.8,A3CGQOJC28OVGN,3YGE63DIOBDQKTHDUYZ9OUNPB7QW00,3TMSXRD2XAGTD10PGJ8BRJ2MG0KW18,6,5
9,1,object_01,object_08,930.40000000596,1,1,739.0,0.2222222222222222,1,object_02,5,123,0,2,3,desert_7,2,memory-2step-stake-s,507,3099994,0.0-19.0-0.0-0.9,A3CGQOJC28OVGN,3YGE63DIOBDQKTHDUYZ9OUNPB7QW00,3TMSXRD2XAGTD10PGJ8BRJ2MG0KW18,1,2
10,3,object_09,object_06,908.5,6,2,797.59999999404,0.4444444444444444,2,object_10,5,143,0,5,4,library_5,2,memory-2step-stake-s,508,3108427,0.0-19.0-0.0-0.10,A3CGQOJC28OVGN,3YGE63DIOBDQKTHDUYZ9OUNPB7QW00,3TMSXRD2XAGTD10PGJ8BRJ2MG0KW18,5,6
11,3,object_06,object_09,694.0,6,1,439.29999998212,0.5555555555555556,2,object_10,1,148,0,6,5,library_2,2,memory-2step-stake-s,509,3116605,0.0-19.0-0.0-0.11,A3CGQOJC28OVGN,3YGE63DIOBDQKTHDUYZ9OUNPB7QW00,3TMSXRD2XAGTD10PGJ8BRJ2MG0KW18,6,5
12,3,object_06,object_09,706.40000000596,6,1,746.69999998808,0.7777777777777778,2,object_10,5,183,0,7,7,library_6,2,memory-2step-stake-s,510,3125295,0.0-19.0-0.0-0.12,A3CGQOJC28OVGN,3YGE63DIOBDQKTHDUYZ9OUNPB7QW00,3TMSXRD2XAGTD10PGJ8BRJ2MG0KW18,6,5
13,2,object_04,object_05,654.40000000596,4,1,901.0,0.4444444444444444,2,object_10,5,203,0,7,4,forest_7,2,memory-2step-stake-s,511,3133836,0.0-19.0-0.0-0.13,A3CGQOJC28OVGN,3YGE63DIOBDQKTHDUYZ9OUNPB7QW00,3TMSXRD2XAGTD10PGJ8BRJ2MG0KW18,4,3
14,2,object_04,object_05,616.30000001192,4,1,531.0,0.3333333333333333,2,object_10,5,218,0,8,3,forest_5,2,memory-2step-stake-s,512,3141895,0.0-19.0-0.0-0.14,A3CGQOJC28OVGN,3YGE63DIOBDQKTHDUYZ9OUNPB7QW00,3TMSXRD2XAGTD10PGJ8BRJ2MG0KW18,4,3
15,2,object_04,object_05,571.0,4,1,796.10000002384,0.1111111111111111,2,object_10,5,223,0,7,1,forest_7,2,memory-2step-stake-s,513,3150016,0.0-19.0-0.0-0.15,A3CGQOJC28OVGN,3YGE63DIOBDQKTHDUYZ9OUNPB7QW00,3TMSXRD2XAGTD10PGJ8BRJ2MG0KW18,4,3
16,4,object_03,object_07,741.09999999404,8,1,-1.0,0.0,2,object_10,1,223,0,7,1,restaurant_5,2,memory-2step-stake-s,514,3158542,0.0-19.0-0.0-0.16,A3CGQOJC28OVGN,3YGE63DIOBDQKTHDUYZ9OUNPB7QW00,3TMSXRD2XAGTD10PGJ8BRJ2MG0KW18,8,7
17,3,object_06,object_09,672.39999997616,6,1,694.89999997616,0.0,2,object_10,1,223,0,8,0,library_5,2,memory-2step-stake-s,515,3166468,0.0-19.0-0.0-0.17,A3CGQOJC28OVGN,3YGE63DIOBDQKTHDUYZ9OUNPB7QW00,3TMSXRD2XAGTD10PGJ8BRJ2MG0KW18,6,5
18,4,object_07,object_03,860.79999998212,7,1,715.09999999404,0.7777777777777778,1,object_02,1,230,0,7,0,restaurant_1,2,memory-2step-stake-s,516,3175127,0.0-19.0-0.0-0.18,A3CGQOJC28OVGN,3YGE63DIOBDQKTHDUYZ9OUNPB7QW00,3TMSXRD2XAGTD10PGJ8BRJ2MG0KW18,7,8
19,3,object_09,object_06,759.19999998808,5,1,675.90000000596,0.8888888888888888,1,object_02,1,238,0,8,1,library_5,2,memory-2step-stake-s,517,3183859,0.0-19.0-0.0-0.19,A3CGQOJC28OVGN,3YGE63DIOBDQKTHDUYZ9OUNPB7QW00,3TMSXRD2XAGTD10PGJ8BRJ2MG0KW18,5,6
20,4,object_03,object_07,917.20000001788,7,2,747.60000002384,0.8888888888888888,1,object_02,1,246,0,8,2,restaurant_2,2,memory-2step-stake-s,518,3192657,0.0-19.0-0.0-0.20,A3CGQOJC28OVGN,3YGE63DIOBDQKTHDUYZ9OUNPB7QW00,3TMSXRD2XAGTD10PGJ8BRJ2MG0KW18,8,7
21,1,object_08,object_01,838.80000001192,2,1,552.79999998212,0.1111111111111111,2,object_10,5,251,0,8,1,desert_2,2,memory-2step-stake-s,519,3200535,0.0-19.0-0.0-0.21,A3CGQOJC28OVGN,3YGE63DIOBDQKTHDUYZ9OUNPB7QW00,3TMSXRD2XAGTD10PGJ8BRJ2MG0KW18,2,1
22,4,object_07,object_03,932.29999998212,7,1,686.0,0.7777777777777778,1,object_02,5,286,0,7,2,restaurant_1,2,memory-2step-stake-s,520,3209162,0.0-19.0-0.0-0.22,A3CGQOJC28OVGN,3YGE63DIOBDQKTHDUYZ9OUNPB7QW00,3TMSXRD2XAGTD10PGJ8BRJ2MG0KW18,7,8
23,3,object_06,object_09,779.60000002384,6,1,484.90000000596,0.3333333333333333,2,object_10,1,289,0,4,3,library_8,2,memory-2step-stake-s,521,3217186,0.0-19.0-0.0-0.23,A3CGQOJC28OVGN,3YGE63DIOBDQKTHDUYZ9OUNPB7QW00,3TMSXRD2XAGTD10PGJ8BRJ2MG0KW18,6,5
24,1,object_08,object_01,725.60000002384,1,2,539.70000001788,0.2222222222222222,1,object_02,5,299,0,2,4,desert_5,2,memory-2step-stake-s,522,3225157,0.0-19.0-0.0-0.24,A3CGQOJC28OVGN,3YGE63DIOBDQKTHDUYZ9OUNPB7QW00,3TMSXRD2XAGTD10PGJ8BRJ2MG0KW18,2,1
25,3,object_09,object_06,758.30000001192,5,1,490.90000000596,0.4444444444444444,1,object_02,1,303,0,4,5,library_6,2,memory-2step-stake-s,523,3233285,0.0-19.0-0.0-0.25,A3CGQOJC28OVGN,3YGE63DIOBDQKTHDUYZ9OUNPB7QW00,3TMSXRD2XAGTD10PGJ8BRJ2MG0KW18,5,6
26,3,object_09,object_06,754.40000000596,5,1,465.40000000596,0.3333333333333333,1,object_02,5,318,0,3,2,library_6,2,memory-2step-stake-s,524,3241289,0.0-19.0-0.0-0.26,A3CGQOJC28OVGN,3YGE63DIOBDQKTHDUYZ9OUNPB7QW00,3TMSXRD2XAGTD10PGJ8BRJ2MG0KW18,5,6
27,2,object_04,object_05,703.10000002384,4,1,677.90000000596,0.1111111111111111,2,object_10,1,319,0,1,1,forest_3,2,memory-2step-stake-s,525,3249304,0.0-19.0-0.0-0.27,A3CGQOJC28OVGN,3YGE63DIOBDQKTHDUYZ9OUNPB7QW00,3TMSXRD2XAGTD10PGJ8BRJ2MG0KW18,4,3
28,2,object_04,object_05,869.70000001788,3,2,875.30000001192,0.2222222222222222,1,object_02,5,329,0,2,2,forest_7,2,memory-2step-stake-s,526,3257613,0.0-19.0-0.0-0.28,A3CGQOJC28OVGN,3YGE63DIOBDQKTHDUYZ9OUNPB7QW00,3TMSXRD2XAGTD10PGJ8BRJ2MG0KW18,4,3
29,3,object_06,object_09,718.29999998212,6,1,340.59999999404,0.5555555555555556,2,object_10,1,334,0,0,5,library_2,2,memory-2step-stake-s,527,3265698,0.0-19.0-0.0-0.29,A3CGQOJC28OVGN,3YGE63DIOBDQKTHDUYZ9OUNPB7QW00,3TMSXRD2XAGTD10PGJ8BRJ2MG0KW18,6,5
30,1,object_08,object_01,913.40000000596,2,1,567.59999999404,0.6666666666666666,2,object_10,5,364,0,0,6,desert_5,2,memory-2step-stake-s,528,3274111,0.0-19.0-0.0-0.30,A3CGQOJC28OVGN,3YGE63DIOBDQKTHDUYZ9OUNPB7QW00,3TMSXRD2XAGTD10PGJ8BRJ2MG0KW18,2,1
31,1,object_08,object_01,980.0,2,1,672.09999999404,0.3333333333333333,2,object_10,5,379,0,0,3,desert_7,2,memory-2step-stake-s,529,3282324,0.0-19.0-0.0-0.31,A3CGQOJC28OVGN,3YGE63DIOBDQKTHDUYZ9OUNPB7QW00,3TMSXRD2XAGTD10PGJ8BRJ2MG0KW18,2,1
32,2,object_05,object_04,727.20000001788,3,1,409.59999999404,0.0,1,object_02,5,379,0,0,4,forest_3,2,memory-2step-stake-s,530,3289964,0.0-19.0-0.0-0.32,A3CGQOJC28OVGN,3YGE63DIOBDQKTHDUYZ9OUNPB7QW00,3TMSXRD2XAGTD10PGJ8BRJ2MG0KW18,3,4
33,3,object_06,object_09,991.09999999404,5,2,565.5,0.1111111111111111,1,object_02,1,380,0,1,4,library_2,2,memory-2step-stake-s,531,3297862,0.0-19.0-0.0-0.33,A3CGQOJC28OVGN,3YGE63DIOBDQKTHDUYZ9OUNPB7QW00,3TMSXRD2XAGTD10PGJ8BRJ2MG0KW18,6,5
34,3,object_09,object_06,1129.7000000179,6,2,447.09999999404,0.2222222222222222,2,object_10,1,382,0,5,2,library_2,2,memory-2step-stake-s,532,3305754,0.0-19.0-0.0-0.34,A3CGQOJC28OVGN,3YGE63DIOBDQKTHDUYZ9OUNPB7QW00,3TMSXRD2XAGTD10PGJ8BRJ2MG0KW18,5,6
35,4,object_07,object_03,922.69999998808,7,1,824.5,0.7777777777777778,1,object_02,1,389,0,7,2,restaurant_4,2,memory-2step-stake-s,533,3314524,0.0-19.0-0.0-0.35,A3CGQOJC28OVGN,3YGE63DIOBDQKTHDUYZ9OUNPB7QW00,3TMSXRD2XAGTD10PGJ8BRJ2MG0KW18,7,8
36,1,object_01,object_08,811.89999997616,1,1,526.69999998808,0.8888888888888888,1,object_02,5,429,0,8,4,desert_7,2,memory-2step-stake-s,534,3323109,0.0-19.0-0.0-0.36,A3CGQOJC28OVGN,3YGE63DIOBDQKTHDUYZ9OUNPB7QW00,3TMSXRD2XAGTD10PGJ8BRJ2MG0KW18,1,2
37,1,object_01,object_08,966.80000001192,2,2,503.09999999404,0.1111111111111111,2,object_10,5,434,0,7,1,desert_1,2,memory-2step-stake-s,535,3330941,0.0-19.0-0.0-0.37,A3CGQOJC28OVGN,3YGE63DIOBDQKTHDUYZ9OUNPB7QW00,3TMSXRD2XAGTD10PGJ8BRJ2MG0KW18,1,2
38,4,object_03,object_07,947.40000000596,8,1,696.40000000596,0.3333333333333333,2,object_10,5,449,0,7,3,restaurant_2,2,memory-2step-stake-s,536,3339175,0.0-19.0-0.0-0.38,A3CGQOJC28OVGN,3YGE63DIOBDQKTHDUYZ9OUNPB7QW00,3TMSXRD2XAGTD10PGJ8BRJ2MG0KW18,8,7
39,2,object_04,object_05,865.5,3,2,424.59999999404,0.8888888888888888,1,object_02,1,457,0,8,1,forest_5,2,memory-2step-stake-s,537,3347653,0.0-19.0-0.0-0.39,A3CGQOJC28OVGN,3YGE63DIOBDQKTHDUYZ9OUNPB7QW00,3TMSXRD2XAGTD10PGJ8BRJ2MG0KW18,4,3
40,3,object_09,object_06,818.59999999404,5,1,688.40000000596,1.0,1,object_02,5,502,0,9,3,library_6,2,memory-2step-stake-s,538,3356497,0.0-19.0-0.0-0.40,A3CGQOJC28OVGN,3YGE63DIOBDQKTHDUYZ9OUNPB7QW00,3TMSXRD2XAGTD10PGJ8BRJ2MG0KW18,5,6
41,1,object_08,object_01,1387.099999994,1,2,1360.599999994,0.8888888888888888,1,object_02,5,542,0,8,5,desert_7,2,memory-2step-stake-s,539,3365922,0.0-19.0-0.0-0.41,A3CGQOJC28OVGN,3YGE63DIOBDQKTHDUYZ9OUNPB7QW00,3TMSXRD2XAGTD10PGJ8BRJ2MG0KW18,2,1
42,1,object_08,object_01,608.30000001192,2,1,535.5,0.4444444444444444,2,object_10,5,562,0,8,4,desert_1,2,memory-2step-stake-s,540,3374102,0.0-19.0-0.0-0.42,A3CGQOJC28OVGN,3YGE63DIOBDQKTHDUYZ9OUNPB7QW00,3TMSXRD2XAGTD10PGJ8BRJ2MG0KW18,2,1
43,2,object_04,object_05,787.80000001192,4,1,-1.0,0.0,2,object_10,5,562,0,6,3,forest_3,2,memory-2step-stake-s,541,3382636,0.0-19.0-0.0-0.43,A3CGQOJC28OVGN,3YGE63DIOBDQKTHDUYZ9OUNPB7QW00,3TMSXRD2XAGTD10PGJ8BRJ2MG0KW18,4,3
44,2,object_05,object_04,897.40000000596,3,1,346.90000000596,0.6666666666666666,1,object_02,5,592,0,6,6,forest_3,2,memory-2step-stake-s,542,3390825,0.0-19.0-0.0-0.44,A3CGQOJC28OVGN,3YGE63DIOBDQKTHDUYZ9OUNPB7QW00,3TMSXRD2XAGTD10PGJ8BRJ2MG0KW18,3,4
45,2,object_04,object_05,515.5,3,2,483.09999999404,0.4444444444444444,1,object_02,5,612,0,4,5,forest_1,2,memory-2step-stake-s,543,3398955,0.0-19.0-0.0-0.45,A3CGQOJC28OVGN,3YGE63DIOBDQKTHDUYZ9OUNPB7QW00,3TMSXRD2XAGTD10PGJ8BRJ2MG0KW18,4,3
46,2,object_04,object_05,743.5,3,2,399.0,0.2222222222222222,1,object_02,5,622,0,2,5,forest_3,2,memory-2step-stake-s,544,3406790,0.0-19.0-0.0-0.46,A3CGQOJC28OVGN,3YGE63DIOBDQKTHDUYZ9OUNPB7QW00,3TMSXRD2XAGTD10PGJ8BRJ2MG0KW18,4,3
47,1,object_01,object_08,825.40000000596,1,1,509.0,0.0,1,object_02,5,622,0,0,6,desert_5,2,memory-2step-stake-s,545,3414529,0.0-19.0-0.0-0.47,A3CGQOJC28OVGN,3YGE63DIOBDQKTHDUYZ9OUNPB7QW00,3TMSXRD2XAGTD10PGJ8BRJ2MG0KW18,1,2
48,1,object_08,object_01,1095.099999994,2,1,606.40000000596,0.5555555555555556,2,object_10,5,647,0,1,5,desert_5,2,memory-2step-stake-s,546,3422877,0.0-19.0-0.0-0.48,A3CGQOJC28OVGN,3YGE63DIOBDQKTHDUYZ9OUNPB7QW00,3TMSXRD2XAGTD10PGJ8BRJ2MG0KW18,2,1
49,3,object_06,object_09,956.79999998212,5,2,500.40000000596,0.3333333333333333,1,object_02,1,650,0,3,3,library_5,2,memory-2step-stake-s,547,3430916,0.0-19.0-0.0-0.49,A3CGQOJC28OVGN,3YGE63DIOBDQKTHDUYZ9OUNPB7QW00,3TMSXRD2XAGTD10PGJ8BRJ2MG0KW18,6,5
50,1,object_08,object_01,898.80000001192,2,1,330.70000001788,0.3333333333333333,2,object_10,5,665,0,3,3,desert_1,2,memory-2step-stake-s,548,3438792,0.0-19.0-0.0-0.50,A3CGQOJC28OVGN,3YGE63DIOBDQKTHDUYZ9OUNPB7QW00,3TMSXRD2XAGTD10PGJ8BRJ2MG0KW18,2,1
51,3,object_09,object_06,739.90000000596,6,2,489.09999999404,0.2222222222222222,2,object_10,1,667,0,6,2,library_6,2,memory-2step-stake-s,549,3446712,0.0-19.0-0.0-0.51,A3CGQOJC28OVGN,3YGE63DIOBDQKTHDUYZ9OUNPB7QW00,3TMSXRD2XAGTD10PGJ8BRJ2MG0KW18,5,6
52,3,object_09,object_06,593.0,5,1,469.30000001192,0.4444444444444444,1,object_02,5,687,0,4,5,library_6,2,memory-2step-stake-s,550,3454829,0.0-19.0-0.0-0.52,A3CGQOJC28OVGN,3YGE63DIOBDQKTHDUYZ9OUNPB7QW00,3TMSXRD2XAGTD10PGJ8BRJ2MG0KW18,5,6
53,1,object_08,object_01,1288.5,2,1,-1.0,0.0,2,object_10,5,687,0,3,7,desert_5,2,memory-2step-stake-s,551,3463365,0.0-19.0-0.0-0.53,A3CGQOJC28OVGN,3YGE63DIOBDQKTHDUYZ9OUNPB7QW00,3TMSXRD2XAGTD10PGJ8BRJ2MG0KW18,2,1
54,4,object_03,object_07,466.39999997616,7,2,544.70000001788,0.2222222222222222,1,object_02,1,689,0,2,8,restaurant_4,2,memory-2step-stake-s,552,3471350,0.0-19.0-0.0-0.54,A3CGQOJC28OVGN,3YGE63DIOBDQKTHDUYZ9OUNPB7QW00,3TMSXRD2XAGTD10PGJ8BRJ2MG0KW18,8,7
55,2,object_05,object_04,799.5,3,1,611.59999999404,0.3333333333333333,1,object_02,5,704,0,3,8,forest_5,2,memory-2step-stake-s,553,3479505,0.0-19.0-0.0-0.55,A3CGQOJC28OVGN,3YGE63DIOBDQKTHDUYZ9OUNPB7QW00,3TMSXRD2XAGTD10PGJ8BRJ2MG0KW18,3,4
56,1,object_08,object_01,629.5,2,1,691.80000001192,0.5555555555555556,2,object_10,5,729,0,2,5,desert_5,2,memory-2step-stake-s,554,3487960,0.0-19.0-0.0-0.56,A3CGQOJC28OVGN,3YGE63DIOBDQKTHDUYZ9OUNPB7QW00,3TMSXRD2XAGTD10PGJ8BRJ2MG0KW18,2,1
57,1,object_08,object_01,580.79999998212,2,1,340.79999998212,0.6666666666666666,2,object_10,5,759,0,0,6,desert_1,2,memory-2step-stake-s,555,3496148,0.0-19.0-0.0-0.57,A3CGQOJC28OVGN,3YGE63DIOBDQKTHDUYZ9OUNPB7QW00,3TMSXRD2XAGTD10PGJ8BRJ2MG0KW18,2,1
58,1,object_08,object_01,699.09999999404,2,1,389.5,0.7777777777777778,2,object_10,5,794,0,2,7,desert_2,2,memory-2step-stake-s,556,3504488,0.0-19.0-0.0-0.58,A3CGQOJC28OVGN,3YGE63DIOBDQKTHDUYZ9OUNPB7QW00,3TMSXRD2XAGTD10PGJ8BRJ2MG0KW18,2,1
59,3,object_09,object_06,783.70000001788,6,2,-1.0,0.0,2,object_10,1,794,0,1,8,library_6,2,memory-2step-stake-s,557,3513027,0.0-19.0-0.0-0.59,A3CGQOJC28OVGN,3YGE63DIOBDQKTHDUYZ9OUNPB7QW00,3TMSXRD2XAGTD10PGJ8BRJ2MG0KW18,5,6
60,2,object_05,object_04,552.90000000596,3,1,456.5,0.0,1,object_02,5,794,0,0,7,forest_1,2,memory-2step-stake-s,558,3520714,0.0-19.0-0.0-0.60,A3CGQOJC28OVGN,3YGE63DIOBDQKTHDUYZ9OUNPB7QW00,3TMSXRD2XAGTD10PGJ8BRJ2MG0KW18,3,4
61,2,object_05,object_04,653.19999998808,4,2,780.80000001192,0.7777777777777778,2,object_10,5,829,0,2,7,forest_3,2,memory-2step-stake-s,559,3529453,0.0-19.0-0.0-0.61,A3CGQOJC28OVGN,3YGE63DIOBDQKTHDUYZ9OUNPB7QW00,3TMSXRD2XAGTD10PGJ8BRJ2MG0KW18,3,4
62,4,object_03,object_07,805.90000000596,8,1,527.29999998212,1.0,2,object_10,1,838,0,1,9,restaurant_4,2,memory-2step-stake-s,560,3538147,0.0-19.0-0.0-0.62,A3CGQOJC28OVGN,3YGE63DIOBDQKTHDUYZ9OUNPB7QW00,3TMSXRD2XAGTD10PGJ8BRJ2MG0KW18,8,7
63,3,object_09,object_06,826.09999999404,6,2,389.29999998212,1.0,2,object_10,5,883,0,2,9,library_5,2,memory-2step-stake-s,561,3546696,0.0-19.0-0.0-0.63,A3CGQOJC28OVGN,3YGE63DIOBDQKTHDUYZ9OUNPB7QW00,3TMSXRD2XAGTD10PGJ8BRJ2MG0KW18,5,6
64,3,object_06,object_09,727.79999998212,6,1,678.09999999404,0.7777777777777778,2,object_10,1,890,0,1,7,library_2,2,memory-2step-stake-s,562,3555331,0.0-19.0-0.0-0.64,A3CGQOJC28OVGN,3YGE63DIOBDQKTHDUYZ9OUNPB7QW00,3TMSXRD2XAGTD10PGJ8BRJ2MG0KW18,6,5
65,3,object_09,object_06,758.80000001192,6,2,626.60000002384,0.6666666666666666,2,object_10,1,896,0,1,6,library_8,2,memory-2step-stake-s,563,3563815,0.0-19.0-0.0-0.65,A3CGQOJC28OVGN,3YGE63DIOBDQKTHDUYZ9OUNPB7QW00,3TMSXRD2XAGTD10PGJ8BRJ2MG0KW18,5,6
66,3,object_06,object_09,650.0,6,1,366.19999998808,1.0,2,object_10,1,905,0,3,9,library_8,2,memory-2step-stake-s,564,3572342,0.0-19.0-0.0-0.66,A3CGQOJC28OVGN,3YGE63DIOBDQKTHDUYZ9OUNPB7QW00,3TMSXRD2XAGTD10PGJ8BRJ2MG0KW18,6,5
67,4,object_03,object_07,983.5,8,1,567.0,0.6666666666666666,2,object_10,1,911,0,5,6,restaurant_5,2,memory-2step-stake-s,565,3580761,0.0-19.0-0.0-0.67,A3CGQOJC28OVGN,3YGE63DIOBDQKTHDUYZ9OUNPB7QW00,3TMSXRD2XAGTD10PGJ8BRJ2MG0KW18,8,7
68,3,object_06,object_09,962.09999999404,6,1,577.59999999404,0.7777777777777778,2,object_10,1,918,0,6,7,library_5,2,memory-2step-stake-s,566,3589299,0.0-19.0-0.0-0.68,A3CGQOJC28OVGN,3YGE63DIOBDQKTHDUYZ9OUNPB7QW00,3TMSXRD2XAGTD10PGJ8BRJ2MG0KW18,6,5
69,4,object_03,object_07,942.29999998212,7,2,737.70000001788,0.6666666666666666,1,object_02,1,924,0,6,8,restaurant_5,2,memory-2step-stake-s,567,3597894,0.0-19.0-0.0-0.69,A3CGQOJC28OVGN,3YGE63DIOBDQKTHDUYZ9OUNPB7QW00,3TMSXRD2XAGTD10PGJ8BRJ2MG0KW18,8,7
70,4,object_07,object_03,712.0,7,1,363.29999998212,0.4444444444444444,1,object_02,1,928,0,4,5,restaurant_2,2,memory-2step-stake-s,568,3605901,0.0-19.0-0.0-0.70,A3CGQOJC28OVGN,3YGE63DIOBDQKTHDUYZ9OUNPB7QW00,3TMSXRD2XAGTD10PGJ8BRJ2MG0KW18,7,8
71,3,object_09,object_06,721.70000001788,5,1,348.90000000596,0.5555555555555556,1,object_02,1,933,0,5,2,library_5,2,memory-2step-stake-s,569,3614012,0.0-19.0-0.0-0.71,A3CGQOJC28OVGN,3YGE63DIOBDQKTHDUYZ9OUNPB7QW00,3TMSXRD2XAGTD10PGJ8BRJ2MG0KW18,5,6
72,2,object_04,object_05,795.90000000596,4,1,436.29999998212,0.4444444444444444,2,object_10,1,937,0,4,4,forest_5,2,memory-2step-stake-s,570,3622087,0.0-19.0-0.0-0.72,A3CGQOJC28OVGN,3YGE63DIOBDQKTHDUYZ9OUNPB7QW00,3TMSXRD2XAGTD10PGJ8BRJ2MG0KW18,4,3
73,4,object_03,object_07,830.59999999404,8,1,648.80000001192,0.0,2,object_10,1,937,0,3,0,restaurant_4,2,memory-2step-stake-s,571,3629967,0.0-19.0-0.0-0.73,A3CGQOJC28OVGN,3YGE63DIOBDQKTHDUYZ9OUNPB7QW00,3TMSXRD2XAGTD10PGJ8BRJ2MG0KW18,8,7
74,4,object_03,object_07,820.0,7,2,-1.0,0.0,1,object_02,1,937,0,5,5,restaurant_4,2,memory-2step-stake-s,572,3638507,0.0-19.0-0.0-0.74,A3CGQOJC28OVGN,3YGE63DIOBDQKTHDUYZ9OUNPB7QW00,3TMSXRD2XAGTD10PGJ8BRJ2MG0KW18,8,7
75,2,object_05,object_04,879.0,3,1,611.29999998212,0.6666666666666666,1,object_02,5,967,0,6,4,forest_7,2,memory-2step-stake-s,573,3646971,0.0-19.0-0.0-0.75,A3CGQOJC28OVGN,3YGE63DIOBDQKTHDUYZ9OUNPB7QW00,3TMSXRD2XAGTD10PGJ8BRJ2MG0KW18,3,4
76,4,object_03,object_07,831.0,7,2,1487.2000000179,0.4444444444444444,1,object_02,1,971,0,4,8,restaurant_5,2,memory-2step-stake-s,574,3656127,0.0-19.0-0.0-0.76,A3CGQOJC28OVGN,3YGE63DIOBDQKTHDUYZ9OUNPB7QW00,3TMSXRD2XAGTD10PGJ8BRJ2MG0KW18,8,7
77,1,object_08,object_01,760.0,2,1,592.70000001788,0.5555555555555556,2,object_10,1,976,0,4,5,desert_7,2,memory-2step-stake-s,575,3664476,0.0-19.0-0.0-0.77,A3CGQOJC28OVGN,3YGE63DIOBDQKTHDUYZ9OUNPB7QW00,3TMSXRD2XAGTD10PGJ8BRJ2MG0KW18,2,1
78,4,object_07,object_03,982.5,7,1,372.59999999404,0.0,1,object_02,1,976,0,0,5,restaurant_5,2,memory-2step-stake-s,576,3672087,0.0-19.0-0.0-0.78,A3CGQOJC28OVGN,3YGE63DIOBDQKTHDUYZ9OUNPB7QW00,3TMSXRD2XAGTD10PGJ8BRJ2MG0KW18,7,8
79,1,object_08,object_01,785.5,1,2,721.59999999404,0.2222222222222222,1,object_02,5,986,0,2,3,desert_1,2,memory-2step-stake-s,577,3680253,0.0-19.0-0.0-0.79,A3CGQOJC28OVGN,3YGE63DIOBDQKTHDUYZ9OUNPB7QW00,3TMSXRD2XAGTD10PGJ8BRJ2MG0KW18,2,1
80,1,object_08,object_01,975.90000000596,2,1,-1.0,0.0,2,object_10,1,986,0,3,3,desert_2,2,memory-2step-stake-s,578,3688794,0.0-19.0-0.0-0.80,A3CGQOJC28OVGN,3YGE63DIOBDQKTHDUYZ9OUNPB7QW00,3TMSXRD2XAGTD10PGJ8BRJ2MG0KW18,2,1
81,4,object_07,object_03,760.79999998212,7,1,646.60000002384,0.5555555555555556,1,object_02,1,991,0,5,0,restaurant_4,2,memory-2step-stake-s,579,3697192,0.0-19.0-0.0-0.81,A3CGQOJC28OVGN,3YGE63DIOBDQKTHDUYZ9OUNPB7QW00,3TMSXRD2XAGTD10PGJ8BRJ2MG0KW18,7,8
82,1,object_01,object_08,765.09999999404,2,2,676.40000000596,0.0,2,object_10,5,991,0,4,0,desert_1,2,memory-2step-stake-s,580,3705107,0.0-19.0-0.0-0.82,A3CGQOJC28OVGN,3YGE63DIOBDQKTHDUYZ9OUNPB7QW00,3TMSXRD2XAGTD10PGJ8BRJ2MG0KW18,1,2
83,1,object_08,object_01,967.69999998808,1,2,311.30000001192,0.5555555555555556,1,object_02,5,1016,0,5,1,desert_7,2,memory-2step-stake-s,581,3713176,0.0-19.0-0.0-0.83,A3CGQOJC28OVGN,3YGE63DIOBDQKTHDUYZ9OUNPB7QW00,3TMSXRD2XAGTD10PGJ8BRJ2MG0KW18,2,1
84,2,object_05,object_04,835.90000000596,3,1,377.59999999404,0.7777777777777778,1,object_02,5,1051,0,7,0,forest_3,2,memory-2step-stake-s,582,3721509,0.0-19.0-0.0-0.84,A3CGQOJC28OVGN,3YGE63DIOBDQKTHDUYZ9OUNPB7QW00,3TMSXRD2XAGTD10PGJ8BRJ2MG0KW18,3,4
85,3,object_06,object_09,683.40000000596,5,2,645.39999997616,0.6666666666666666,1,object_02,1,1057,0,6,0,library_5,2,memory-2step-stake-s,583,3730017,0.0-19.0-0.0-0.85,A3CGQOJC28OVGN,3YGE63DIOBDQKTHDUYZ9OUNPB7QW00,3TMSXRD2XAGTD10PGJ8BRJ2MG0KW18,6,5
86,4,object_03,object_07,677.0,8,1,1281.7000000179,0.0,2,object_10,1,1057,0,5,0,restaurant_1,2,memory-2step-stake-s,584,3738544,0.0-19.0-0.0-0.86,A3CGQOJC28OVGN,3YGE63DIOBDQKTHDUYZ9OUNPB7QW00,3TMSXRD2XAGTD10PGJ8BRJ2MG0KW18,8,7
87,1,object_08,object_01,650.40000000596,1,2,399.70000001788,0.4444444444444444,1,object_02,5,1077,0,4,0,desert_2,2,memory-2step-stake-s,585,3746607,0.0-19.0-0.0-0.87,A3CGQOJC28OVGN,3YGE63DIOBDQKTHDUYZ9OUNPB7QW00,3TMSXRD2XAGTD10PGJ8BRJ2MG0KW18,2,1
88,4,object_03,object_07,961.40000000596,7,2,831.29999998212,0.6666666666666666,1,object_02,1,1083,0,6,1,restaurant_5,2,memory-2step-stake-s,586,3755302,0.0-19.0-0.0-0.88,A3CGQOJC28OVGN,3YGE63DIOBDQKTHDUYZ9OUNPB7QW00,3TMSXRD2XAGTD10PGJ8BRJ2MG0KW18,8,7
89,4,object_07,object_03,766.90000000596,7,1,459.90000000596,0.8888888888888888,1,object_02,1,1091,0,8,2,restaurant_1,2,memory-2step-stake-s,587,3763835,0.0-19.0-0.0-0.89,A3CGQOJC28OVGN,3YGE63DIOBDQKTHDUYZ9OUNPB7QW00,3TMSXRD2XAGTD10PGJ8BRJ2MG0KW18,7,8
90,2,object_04,object_05,688.90000000596,3,2,629.0,0.8888888888888888,1,object_02,5,1131,0,8,1,forest_1,2,memory-2step-stake-s,588,3772538,0.0-19.0-0.0-0.90,A3CGQOJC28OVGN,3YGE63DIOBDQKTHDUYZ9OUNPB7QW00,3TMSXRD2XAGTD10PGJ8BRJ2MG0KW18,4,3
91,3,object_09,object_06,619.59999999404,5,1,382.40000000596,0.8888888888888888,1,object_02,1,1139,0,8,3,library_2,2,memory-2step-stake-s,589,3780973,0.0-19.0-0.0-0.91,A3CGQOJC28OVGN,3YGE63DIOBDQKTHDUYZ9OUNPB7QW00,3TMSXRD2XAGTD10PGJ8BRJ2MG0KW18,5,6
92,4,object_07,object_03,751.70000001788,8,2,375.20000001788,0.0,2,object_10,1,1139,0,8,0,restaurant_5,2,memory-2step-stake-s,590,3788578,0.0-19.0-0.0-0.92,A3CGQOJC28OVGN,3YGE63DIOBDQKTHDUYZ9OUNPB7QW00,3TMSXRD2XAGTD10PGJ8BRJ2MG0KW18,7,8
93,4,object_03,object_07,809.0,7,2,370.30000001192,0.8888888888888888,1,object_02,5,1179,0,8,0,restaurant_1,2,memory-2step-stake-s,591,3796990,0.0-19.0-0.0-0.93,A3CGQOJC28OVGN,3YGE63DIOBDQKTHDUYZ9OUNPB7QW00,3TMSXRD2XAGTD10PGJ8BRJ2MG0KW18,8,7
94,4,object_03,object_07,739.70000001788,7,2,427.0,0.8888888888888888,1,object_02,1,1187,0,8,0,restaurant_1,2,memory-2step-stake-s,592,3805457,0.0-19.0-0.0-0.94,A3CGQOJC28OVGN,3YGE63DIOBDQKTHDUYZ9OUNPB7QW00,3TMSXRD2XAGTD10PGJ8BRJ2MG0KW18,8,7
95,3,object_09,object_06,720.59999999404,5,1,420.90000000596,0.8888888888888888,1,object_02,1,1195,0,8,7,library_2,2,memory-2step-stake-s,593,3813927,0.0-19.0-0.0-0.95,A3CGQOJC28OVGN,3YGE63DIOBDQKTHDUYZ9OUNPB7QW00,3TMSXRD2XAGTD10PGJ8BRJ2MG0KW18,5,6
96,3,object_06,object_09,623.79999998212,5,2,466.70000001788,0.4444444444444444,1,object_02,1,1199,0,4,7,library_2,2,memory-2step-stake-s,594,3822026,0.0-19.0-0.0-0.96,A3CGQOJC28OVGN,3YGE63DIOBDQKTHDUYZ9OUNPB7QW00,3TMSXRD2XAGTD10PGJ8BRJ2MG0KW18,6,5
97,1,object_08,object_01,-1.0,-1,-1,-1.0,0.0,-,0,1,1199,0,3,4,desert_2,2,memory-2step-stake-s,595,3828542,0.0-19.0-0.0-0.97,A3CGQOJC28OVGN,3YGE63DIOBDQKTHDUYZ9OUNPB7QW00,3TMSXRD2XAGTD10PGJ8BRJ2MG0KW18,2,1
98,2,object_05,object_04,625.79999998212,3,1,635.90000000596,0.3333333333333333,1,object_02,1,1202,0,3,6,forest_1,2,memory-2step-stake-s,596,3836705,0.0-19.0-0.0-0.98,A3CGQOJC28OVGN,3YGE63DIOBDQKTHDUYZ9OUNPB7QW00,3TMSXRD2XAGTD10PGJ8BRJ2MG0KW18,3,4
99,3,object_09,object_06,615.90000000596,6,2,347.59999999404,0.8888888888888888,2,object_10,1,1210,0,0,8,library_8,2,memory-2step-stake-s,597,3845110,0.0-19.0-0.0-0.99,A3CGQOJC28OVGN,3YGE63DIOBDQKTHDUYZ9OUNPB7QW00,3TMSXRD2XAGTD10PGJ8BRJ2MG0KW18,5,6
100,4,object_03,object_07,779.30000001192,8,1,709.30000001192,0.5555555555555556,2,object_10,1,1215,0,1,5,restaurant_5,2,memory-2step-stake-s,598,3853548,0.0-19.0-0.0-0.100,A3CGQOJC28OVGN,3YGE63DIOBDQKTHDUYZ9OUNPB7QW00,3TMSXRD2XAGTD10PGJ8BRJ2MG0KW18,8,7
101,2,object_04,object_05,775.59999999404,4,1,489.20000001788,0.3333333333333333,2,object_10,5,1230,0,2,3,forest_5,2,memory-2step-stake-s,599,3861571,0.0-19.0-0.0-0.101,A3CGQOJC28OVGN,3YGE63DIOBDQKTHDUYZ9OUNPB7QW00,3TMSXRD2XAGTD10PGJ8BRJ2MG0KW18,4,3
102,4,object_03,object_07,726.20000001788,8,1,716.5,0.1111111111111111,2,object_10,1,1231,0,4,1,restaurant_2,2,memory-2step-stake-s,600,3869621,0.0-19.0-0.0-0.102,A3CGQOJC28OVGN,3YGE63DIOBDQKTHDUYZ9OUNPB7QW00,3TMSXRD2XAGTD10PGJ8BRJ2MG0KW18,8,7
103,2,object_05,object_04,915.70000001788,4,2,1419.6999999881,0.1111111111111111,2,object_10,5,1236,0,4,1,forest_5,2,memory-2step-stake-s,601,3878370,0.0-19.0-0.0-0.103,A3CGQOJC28OVGN,3YGE63DIOBDQKTHDUYZ9OUNPB7QW00,3TMSXRD2XAGTD10PGJ8BRJ2MG0KW18,3,4
104,1,object_08,object_01,1002.099999994,2,1,410.70000001788,0.3333333333333333,2,object_10,5,1251,0,4,3,desert_5,2,memory-2step-stake-s,602,3886306,0.0-19.0-0.0-0.104,A3CGQOJC28OVGN,3YGE63DIOBDQKTHDUYZ9OUNPB7QW00,3TMSXRD2XAGTD10PGJ8BRJ2MG0KW18,2,1
105,1,object_08,object_01,667.0,1,2,-1.0,0.0,1,object_02,5,1251,0,2,4,desert_2,2,memory-2step-stake-s,603,3894825,0.0-19.0-0.0-0.105,A3CGQOJC28OVGN,3YGE63DIOBDQKTHDUYZ9OUNPB7QW00,3TMSXRD2XAGTD10PGJ8BRJ2MG0KW18,2,1
106,1,object_08,object_01,710.90000000596,2,1,393.0,0.4444444444444444,2,object_10,1,1255,0,1,4,desert_1,2,memory-2step-stake-s,604,3902854,0.0-19.0-0.0-0.106,A3CGQOJC28OVGN,3YGE63DIOBDQKTHDUYZ9OUNPB7QW00,3TMSXRD2XAGTD10PGJ8BRJ2MG0KW18,2,1
107,4,object_07,object_03,749.90000000596,8,2,335.29999998212,0.5555555555555556,2,object_10,1,1260,0,3,5,restaurant_2,2,memory-2step-stake-s,605,3910920,0.0-19.0-0.0-0.107,A3CGQOJC28OVGN,3YGE63DIOBDQKTHDUYZ9OUNPB7QW00,3TMSXRD2XAGTD10PGJ8BRJ2MG0KW18,7,8
108,4,object_07,object_03,699.09999999404,8,2,616.19999998808,0.4444444444444444,2,object_10,1,1264,0,2,4,restaurant_1,2,memory-2step-stake-s,606,3919168,0.0-19.0-0.0-0.108,A3CGQOJC28OVGN,3YGE63DIOBDQKTHDUYZ9OUNPB7QW00,3TMSXRD2XAGTD10PGJ8BRJ2MG0KW18,7,8
109,1,object_01,object_08,824.0,1,1,193.40000000596,0.1111111111111111,1,object_02,1,1265,0,1,3,desert_1,2,memory-2step-stake-s,607,3926684,0.0-19.0-0.0-0.109,A3CGQOJC28OVGN,3YGE63DIOBDQKTHDUYZ9OUNPB7QW00,3TMSXRD2XAGTD10PGJ8BRJ2MG0KW18,1,2
110,1,object_08,object_01,898.30000001192,2,1,465.59999999404,0.6666666666666666,2,object_10,5,1295,0,1,6,desert_5,2,memory-2step-stake-s,608,3934990,0.0-19.0-0.0-0.110,A3CGQOJC28OVGN,3YGE63DIOBDQKTHDUYZ9OUNPB7QW00,3TMSXRD2XAGTD10PGJ8BRJ2MG0KW18,2,1
111,2,object_05,object_04,822.09999999404,3,1,-1.0,0.0,1,object_02,1,1295,0,4,8,forest_3,2,memory-2step-stake-s,609,3943517,0.0-19.0-0.0-0.111,A3CGQOJC28OVGN,3YGE63DIOBDQKTHDUYZ9OUNPB7QW00,3TMSXRD2XAGTD10PGJ8BRJ2MG0KW18,3,4
112,1,object_08,object_01,843.29999998212,2,1,-1.0,0.0,2,object_10,5,1295,0,5,7,desert_1,2,memory-2step-stake-s,610,3952040,0.0-19.0-0.0-0.112,A3CGQOJC28OVGN,3YGE63DIOBDQKTHDUYZ9OUNPB7QW00,3TMSXRD2XAGTD10PGJ8BRJ2MG0KW18,2,1
113,3,object_06,object_09,893.60000002384,6,1,460.0,0.8888888888888888,2,object_10,1,1303,0,4,8,library_5,2,memory-2step-stake-s,611,3960542,0.0-19.0-0.0-0.113,A3CGQOJC28OVGN,3YGE63DIOBDQKTHDUYZ9OUNPB7QW00,3TMSXRD2XAGTD10PGJ8BRJ2MG0KW18,6,5
114,2,object_04,object_05,779.09999999404,3,2,412.0,0.3333333333333333,1,object_02,5,1318,0,3,7,forest_7,2,memory-2step-stake-s,612,3968489,0.0-19.0-0.0-0.114,A3CGQOJC28OVGN,3YGE63DIOBDQKTHDUYZ9OUNPB7QW00,3TMSXRD2XAGTD10PGJ8BRJ2MG0KW18,4,3
115,2,object_05,object_04,634.80000001192,3,1,401.69999998808,0.1111111111111111,1,object_02,5,1323,0,1,7,forest_1,2,memory-2step-stake-s,613,3976225,0.0-19.0-0.0-0.115,A3CGQOJC28OVGN,3YGE63DIOBDQKTHDUYZ9OUNPB7QW00,3TMSXRD2XAGTD10PGJ8BRJ2MG0KW18,3,4
116,2,object_05,object_04,678.79999998212,4,2,518.09999999404,0.6666666666666666,2,object_10,1,1329,0,7,6,forest_5,2,memory-2step-stake-s,614,3984583,0.0-19.0-0.0-0.116,A3CGQOJC28OVGN,3YGE63DIOBDQKTHDUYZ9OUNPB7QW00,3TMSXRD2XAGTD10PGJ8BRJ2MG0KW18,3,4
117,2,object_05,object_04,783.70000001788,4,2,382.10000002384,0.2222222222222222,2,object_10,5,1339,0,8,2,forest_5,2,memory-2step-stake-s,615,3992399,0.0-19.0-0.0-0.117,A3CGQOJC28OVGN,3YGE63DIOBDQKTHDUYZ9OUNPB7QW00,3TMSXRD2XAGTD10PGJ8BRJ2MG0KW18,3,4
118,1,object_08,object_01,660.90000000596,2,1,1316.8000000119,0.7777777777777778,2,object_10,1,1346,0,9,7,desert_7,2,memory-2step-stake-s,616,4001667,0.0-19.0-0.0-0.118,A3CGQOJC28OVGN,3YGE63DIOBDQKTHDUYZ9OUNPB7QW00,3TMSXRD2XAGTD10PGJ8BRJ2MG0KW18,2,1
119,3,object_09,object_06,1070.5,5,1,1126.2000000179,1.0,1,object_02,1,1355,0,9,6,library_8,2,memory-2step-stake-s,617,4010950,0.0-19.0-0.0-0.119,A3CGQOJC28OVGN,3YGE63DIOBDQKTHDUYZ9OUNPB7QW00,3TMSXRD2XAGTD10PGJ8BRJ2MG0KW18,5,6
120,4,object_07,object_03,859.69999998808,8,2,602.80000001192,0.8888888888888888,2,object_10,1,1363,0,8,8,restaurant_1,2,memory-2step-stake-s,618,4019592,0.0-19.0-0.0-0.120,A3CGQOJC28OVGN,3YGE63DIOBDQKTHDUYZ9OUNPB7QW00,3TMSXRD2XAGTD10PGJ8BRJ2MG0KW18,7,8
121,3,object_06,object_09,698.90000000596,6,1,437.69999998808,0.6666666666666666,2,object_10,1,1369,0,9,6,library_8,2,memory-2step-stake-s,619,4027866,0.0-19.0-0.0-0.121,A3CGQOJC28OVGN,3YGE63DIOBDQKTHDUYZ9OUNPB7QW00,3TMSXRD2XAGTD10PGJ8BRJ2MG0KW18,6,5
122,4,object_03,object_07,726.60000002384,7,2,591.90000000596,0.6666666666666666,1,object_02,1,1375,0,6,5,restaurant_4,2,memory-2step-stake-s,620,4036303,0.0-19.0-0.0-0.122,A3CGQOJC28OVGN,3YGE63DIOBDQKTHDUYZ9OUNPB7QW00,3TMSXRD2XAGTD10PGJ8BRJ2MG0KW18,8,7
123,4,object_07,object_03,-1.0,-1,-1,-1.0,0.0,-,0,1,1375,0,5,4,restaurant_4,2,memory-2step-stake-s,621,4042821,0.0-19.0-0.0-0.123,A3CGQOJC28OVGN,3YGE63DIOBDQKTHDUYZ9OUNPB7QW00,3TMSXRD2XAGTD10PGJ8BRJ2MG0KW18,7,8
124,3,object_09,object_06,526.69999998808,6,2,472.80000001192,0.4444444444444444,2,object_10,1,1379,0,6,4,library_8,2,memory-2step-stake-s,622,4050926,0.0-19.0-0.0-0.124,A3CGQOJC28OVGN,3YGE63DIOBDQKTHDUYZ9OUNPB7QW00,3TMSXRD2XAGTD10PGJ8BRJ2MG0KW18,5,6
125,3,object_09,object_06,734.20000001788,5,1,341.10000002384,1.0,1,object_02,1,1388,0,9,2,library_5,2,memory-2step-stake-s,623,4059431,0.0-19.0-0.0-0.125,A3CGQOJC28OVGN,3YGE63DIOBDQKTHDUYZ9OUNPB7QW00,3TMSXRD2XAGTD10PGJ8BRJ2MG0KW18,5,6
126,4,object_07,object_03,641.0,7,1,373.69999998808,1.0,1,object_02,1,1397,0,9,1,restaurant_4,2,memory-2step-stake-s,624,4067964,0.0-19.0-0.0-0.126,A3CGQOJC28OVGN,3YGE63DIOBDQKTHDUYZ9OUNPB7QW00,3TMSXRD2XAGTD10PGJ8BRJ2MG0KW18,7,8
127,4,object_03,object_07,935.09999999404,7,2,488.59999999404,0.7777777777777778,1,object_02,1,1404,0,7,2,restaurant_5,2,memory-2step-stake-s,625,4076400,0.0-19.0-0.0-0.127,A3CGQOJC28OVGN,3YGE63DIOBDQKTHDUYZ9OUNPB7QW00,3TMSXRD2XAGTD10PGJ8BRJ2MG0KW18,8,7
128,3,object_06,object_09,468.10000002384,6,1,335.19999998808,0.4444444444444444,2,object_10,5,1424,0,9,4,library_5,2,memory-2step-stake-s,627,4228431,0.0-19.0-0.1-0.128,A3CGQOJC28OVGN,3YGE63DIOBDQKTHDUYZ9OUNPB7QW00,3TMSXRD2XAGTD10PGJ8BRJ2MG0KW18,6,5
129,1,object_01,object_08,805.0,2,2,329.69999998808,0.5555555555555556,2,object_10,5,1449,0,6,5,desert_2,2,memory-2step-stake-s,628,4236508,0.0-19.0-0.1-0.129,A3CGQOJC28OVGN,3YGE63DIOBDQKTHDUYZ9OUNPB7QW00,3TMSXRD2XAGTD10PGJ8BRJ2MG0KW18,1,2
130,4,object_07,object_03,605.59999999404,8,2,199.09999999404,0.4444444444444444,2,object_10,1,1453,0,6,4,restaurant_2,2,memory-2step-stake-s,629,4244347,0.0-19.0-0.1-0.130,A3CGQOJC28OVGN,3YGE63DIOBDQKTHDUYZ9OUNPB7QW00,3TMSXRD2XAGTD10PGJ8BRJ2MG0KW18,7,8
131,3,object_06,object_09,674.30000001192,6,1,326.79999998212,0.3333333333333333,2,object_10,5,1468,0,7,3,library_6,2,memory-2step-stake-s,630,4252209,0.0-19.0-0.1-0.131,A3CGQOJC28OVGN,3YGE63DIOBDQKTHDUYZ9OUNPB7QW00,3TMSXRD2XAGTD10PGJ8BRJ2MG0KW18,6,5
132,1,object_01,object_08,754.30000001192,1,1,489.69999998808,0.4444444444444444,1,object_02,5,1488,0,4,5,desert_5,2,memory-2step-stake-s,631,4260342,0.0-19.0-0.1-0.132,A3CGQOJC28OVGN,3YGE63DIOBDQKTHDUYZ9OUNPB7QW00,3TMSXRD2XAGTD10PGJ8BRJ2MG0KW18,1,2
133,2,object_05,object_04,635.40000000596,3,1,354.20000001788,0.3333333333333333,1,object_02,5,1503,0,3,5,forest_1,2,memory-2step-stake-s,632,4268243,0.0-19.0-0.1-0.133,A3CGQOJC28OVGN,3YGE63DIOBDQKTHDUYZ9OUNPB7QW00,3TMSXRD2XAGTD10PGJ8BRJ2MG0KW18,3,4
134,4,object_07,object_03,742.90000000596,7,1,377.30000001192,0.8888888888888888,1,object_02,1,1511,0,8,5,restaurant_1,2,memory-2step-stake-s,633,4276675,0.0-19.0-0.1-0.134,A3CGQOJC28OVGN,3YGE63DIOBDQKTHDUYZ9OUNPB7QW00,3TMSXRD2XAGTD10PGJ8BRJ2MG0KW18,7,8
135,1,object_01,object_08,933.19999998808,2,2,404.80000001192,0.7777777777777778,2,object_10,5,1546,0,6,7,desert_1,2,memory-2step-stake-s,634,4285040,0.0-19.0-0.1-0.135,A3CGQOJC28OVGN,3YGE63DIOBDQKTHDUYZ9OUNPB7QW00,3TMSXRD2XAGTD10PGJ8BRJ2MG0KW18,1,2
136,3,object_06,object_09,855.80000001192,6,1,782.29999998212,0.6666666666666666,2,object_10,5,1576,0,4,6,library_5,2,memory-2step-stake-s,635,4293685,0.0-19.0-0.1-0.136,A3CGQOJC28OVGN,3YGE63DIOBDQKTHDUYZ9OUNPB7QW00,3TMSXRD2XAGTD10PGJ8BRJ2MG0KW18,6,5
137,4,object_03,object_07,725.5,8,1,330.90000000596,0.3333333333333333,2,object_10,1,1579,0,1,3,restaurant_2,2,memory-2step-stake-s,636,4301560,0.0-19.0-0.1-0.137,A3CGQOJC28OVGN,3YGE63DIOBDQKTHDUYZ9OUNPB7QW00,3TMSXRD2XAGTD10PGJ8BRJ2MG0KW18,8,7
138,1,object_01,object_08,1223.900000006,2,2,806.10000002384,0.7777777777777778,2,object_10,5,1614,0,3,7,desert_2,2,memory-2step-stake-s,637,4310312,0.0-19.0-0.1-0.138,A3CGQOJC28OVGN,3YGE63DIOBDQKTHDUYZ9OUNPB7QW00,3TMSXRD2XAGTD10PGJ8BRJ2MG0KW18,1,2
139,4,object_03,object_07,666.79999998212,8,1,415.90000000596,1.0,2,object_10,5,1659,0,3,9,restaurant_2,2,memory-2step-stake-s,638,4318889,0.0-19.0-0.1-0.139,A3CGQOJC28OVGN,3YGE63DIOBDQKTHDUYZ9OUNPB7QW00,3TMSXRD2XAGTD10PGJ8BRJ2MG0KW18,8,7
140,2,object_05,object_04,630.79999998212,4,2,479.5,0.6666666666666666,2,object_10,5,1689,0,5,6,forest_5,2,memory-2step-stake-s,639,4327223,0.0-19.0-0.1-0.140,A3CGQOJC28OVGN,3YGE63DIOBDQKTHDUYZ9OUNPB7QW00,3TMSXRD2XAGTD10PGJ8BRJ2MG0KW18,3,4
141,4,object_03,object_07,920.70000001788,8,1,100.59999999404,0.3333333333333333,2,object_10,1,1692,0,5,3,restaurant_5,2,memory-2step-stake-s,640,4334865,0.0-19.0-0.1-0.141,A3CGQOJC28OVGN,3YGE63DIOBDQKTHDUYZ9OUNPB7QW00,3TMSXRD2XAGTD10PGJ8BRJ2MG0KW18,8,7
142,4,object_03,object_07,760.0,7,2,885.39999997616,0.2222222222222222,1,object_02,1,1694,0,2,0,restaurant_4,2,memory-2step-stake-s,641,4343181,0.0-19.0-0.1-0.142,A3CGQOJC28OVGN,3YGE63DIOBDQKTHDUYZ9OUNPB7QW00,3TMSXRD2XAGTD10PGJ8BRJ2MG0KW18,8,7
143,4,object_03,object_07,914.69999998808,8,1,-1.0,0.0,2,object_10,5,1694,0,2,1,restaurant_1,2,memory-2step-stake-s,642,4351717,0.0-19.0-0.1-0.143,A3CGQOJC28OVGN,3YGE63DIOBDQKTHDUYZ9OUNPB7QW00,3TMSXRD2XAGTD10PGJ8BRJ2MG0KW18,8,7
144,1,object_08,object_01,762.30000001192,2,1,392.0,0.5555555555555556,2,object_10,5,1719,0,0,5,desert_1,2,memory-2step-stake-s,643,4359856,0.0-19.0-0.1-0.144,A3CGQOJC28OVGN,3YGE63DIOBDQKTHDUYZ9OUNPB7QW00,3TMSXRD2XAGTD10PGJ8BRJ2MG0KW18,2,1
145,4,object_07,object_03,682.19999998808,7,1,369.40000000596,0.0,1,object_02,5,1719,0,0,7,restaurant_1,2,memory-2step-stake-s,644,4367459,0.0-19.0-0.1-0.145,A3CGQOJC28OVGN,3YGE63DIOBDQKTHDUYZ9OUNPB7QW00,3TMSXRD2XAGTD10PGJ8BRJ2MG0KW18,7,8
146,1,object_08,object_01,492.19999998808,1,2,18.90000000596,0.0,1,object_02,5,1719,0,0,4,desert_1,2,memory-2step-stake-s,645,4374709,0.0-19.0-0.1-0.146,A3CGQOJC28OVGN,3YGE63DIOBDQKTHDUYZ9OUNPB7QW00,3TMSXRD2XAGTD10PGJ8BRJ2MG0KW18,2,1
147,1,object_08,object_01,649.79999998212,2,1,572.0,0.8888888888888888,2,object_10,5,1759,0,0,8,desert_7,2,memory-2step-stake-s,646,4383359,0.0-19.0-0.1-0.147,A3CGQOJC28OVGN,3YGE63DIOBDQKTHDUYZ9OUNPB7QW00,3TMSXRD2XAGTD10PGJ8BRJ2MG0KW18,2,1
148,3,object_06,object_09,656.20000001788,6,1,78.399999976158,0.8888888888888888,2,object_10,1,1767,0,3,8,library_5,2,memory-2step-stake-s,647,4391504,0.0-19.0-0.1-0.148,A3CGQOJC28OVGN,3YGE63DIOBDQKTHDUYZ9OUNPB7QW00,3TMSXRD2XAGTD10PGJ8BRJ2MG0KW18,6,5
149,4,object_03,object_07,794.30000001192,8,1,361.09999999404,0.6666666666666666,2,object_10,1,1773,0,1,6,restaurant_4,2,memory-2step-stake-s,648,4399721,0.0-19.0-0.1-0.149,A3CGQOJC28OVGN,3YGE63DIOBDQKTHDUYZ9OUNPB7QW00,3TMSXRD2XAGTD10PGJ8BRJ2MG0KW18,8,7
150,3,object_06,object_09,713.80000001192,6,1,100.90000000596,0.7777777777777778,2,object_10,5,1808,0,1,7,library_5,2,memory-2step-stake-s,649,4407786,0.0-19.0-0.1-0.150,A3CGQOJC28OVGN,3YGE63DIOBDQKTHDUYZ9OUNPB7QW00,3TMSXRD2XAGTD10PGJ8BRJ2MG0KW18,6,5
151,3,object_06,object_09,390.0,5,2,381.40000000596,0.0,1,object_02,1,1808,0,0,8,library_2,2,memory-2step-stake-s,650,4415404,0.0-19.0-0.1-0.151,A3CGQOJC28OVGN,3YGE63DIOBDQKTHDUYZ9OUNPB7QW00,3TMSXRD2XAGTD10PGJ8BRJ2MG0KW18,6,5
152,1,object_01,object_08,943.80000001192,2,2,383.70000001788,0.8888888888888888,2,object_10,5,1848,0,1,8,desert_2,2,memory-2step-stake-s,651,4423856,0.0-19.0-0.1-0.152,A3CGQOJC28OVGN,3YGE63DIOBDQKTHDUYZ9OUNPB7QW00,3TMSXRD2XAGTD10PGJ8BRJ2MG0KW18,1,2
153,2,object_04,object_05,867.0,4,1,458.59999999404,0.7777777777777778,2,object_10,5,1883,0,1,7,forest_3,2,memory-2step-stake-s,652,4432278,0.0-19.0-0.1-0.153,A3CGQOJC28OVGN,3YGE63DIOBDQKTHDUYZ9OUNPB7QW00,3TMSXRD2XAGTD10PGJ8BRJ2MG0KW18,4,3
154,4,object_07,object_03,705.0,7,1,591.0,0.0,1,object_02,1,1883,0,0,7,restaurant_1,2,memory-2step-stake-s,653,4440104,0.0-19.0-0.1-0.154,A3CGQOJC28OVGN,3YGE63DIOBDQKTHDUYZ9OUNPB7QW00,3TMSXRD2XAGTD10PGJ8BRJ2MG0KW18,7,8
155,3,object_09,object_06,765.09999999404,6,2,497.0,0.8888888888888888,2,object_10,1,1891,0,1,8,library_6,2,memory-2step-stake-s,654,4448665,0.0-19.0-0.1-0.155,A3CGQOJC28OVGN,3YGE63DIOBDQKTHDUYZ9OUNPB7QW00,3TMSXRD2XAGTD10PGJ8BRJ2MG0KW18,5,6
156,3,object_06,object_09,657.5,6,1,381.79999998212,0.8888888888888888,2,object_10,1,1899,0,1,8,library_6,2,memory-2step-stake-s,655,4457107,0.0-19.0-0.1-0.156,A3CGQOJC28OVGN,3YGE63DIOBDQKTHDUYZ9OUNPB7QW00,3TMSXRD2XAGTD10PGJ8BRJ2MG0KW18,6,5
157,2,object_04,object_05,726.30000001192,4,1,1288.900000006,0.7777777777777778,2,object_10,5,1934,0,3,7,forest_3,2,memory-2step-stake-s,656,4466354,0.0-19.0-0.1-0.157,A3CGQOJC28OVGN,3YGE63DIOBDQKTHDUYZ9OUNPB7QW00,3TMSXRD2XAGTD10PGJ8BRJ2MG0KW18,4,3
158,2,object_04,object_05,768.89999997616,4,1,421.70000001788,0.5555555555555556,2,object_10,5,1959,0,4,5,forest_1,2,memory-2step-stake-s,657,4474523,0.0-19.0-0.1-0.158,A3CGQOJC28OVGN,3YGE63DIOBDQKTHDUYZ9OUNPB7QW00,3TMSXRD2XAGTD10PGJ8BRJ2MG0KW18,4,3
159,4,object_07,object_03,686.0,7,1,378.80000001192,0.6666666666666666,1,object_02,1,1965,0,6,7,restaurant_5,2,memory-2step-stake-s,658,4482757,0.0-19.0-0.1-0.159,A3CGQOJC28OVGN,3YGE63DIOBDQKTHDUYZ9OUNPB7QW00,3TMSXRD2XAGTD10PGJ8BRJ2MG0KW18,7,8
160,3,object_09,object_06,833.20000001788,5,1,643.20000001788,0.6666666666666666,1,object_02,1,1971,0,6,7,library_2,2,memory-2step-stake-s,659,4491266,0.0-19.0-0.1-0.160,A3CGQOJC28OVGN,3YGE63DIOBDQKTHDUYZ9OUNPB7QW00,3TMSXRD2XAGTD10PGJ8BRJ2MG0KW18,5,6
161,4,object_03,object_07,838.90000000596,8,1,330.5,1.0,2,object_10,1,1980,0,7,9,restaurant_2,2,memory-2step-stake-s,660,4499780,0.0-19.0-0.1-0.161,A3CGQOJC28OVGN,3YGE63DIOBDQKTHDUYZ9OUNPB7QW00,3TMSXRD2XAGTD10PGJ8BRJ2MG0KW18,8,7
162,4,object_07,object_03,742.70000001788,8,2,433.79999998212,0.8888888888888888,2,object_10,5,2020,0,6,8,restaurant_4,2,memory-2step-stake-s,661,4508274,0.0-19.0-0.1-0.162,A3CGQOJC28OVGN,3YGE63DIOBDQKTHDUYZ9OUNPB7QW00,3TMSXRD2XAGTD10PGJ8BRJ2MG0KW18,7,8
163,1,object_08,object_01,969.09999999404,2,1,742.19999998808,0.5555555555555556,2,object_10,5,2045,0,7,5,desert_5,2,memory-2step-stake-s,662,4516772,0.0-19.0-0.1-0.163,A3CGQOJC28OVGN,3YGE63DIOBDQKTHDUYZ9OUNPB7QW00,3TMSXRD2XAGTD10PGJ8BRJ2MG0KW18,2,1
164,2,object_05,object_04,1167.6999999881,4,2,-1.0,0.0,2,object_10,1,2045,0,6,5,forest_1,2,memory-2step-stake-s,663,4525316,0.0-19.0-0.1-0.164,A3CGQOJC28OVGN,3YGE63DIOBDQKTHDUYZ9OUNPB7QW00,3TMSXRD2XAGTD10PGJ8BRJ2MG0KW18,3,4
165,3,object_09,object_06,-1.0,-1,-1,-1.0,0.0,-,0,1,2045,0,5,6,library_6,2,memory-2step-stake-s,664,4531840,0.0-19.0-0.1-0.165,A3CGQOJC28OVGN,3YGE63DIOBDQKTHDUYZ9OUNPB7QW00,3TMSXRD2XAGTD10PGJ8BRJ2MG0KW18,5,6
166,4,object_03,object_07,-1.0,-1,-1,-1.0,0.0,-,0,1,2045,0,7,7,restaurant_4,2,memory-2step-stake-s,665,4538372,0.0-19.0-0.1-0.166,A3CGQOJC28OVGN,3YGE63DIOBDQKTHDUYZ9OUNPB7QW00,3TMSXRD2XAGTD10PGJ8BRJ2MG0KW18,8,7
167,2,object_05,object_04,-1.0,-1,-1,-1.0,0.0,-,0,5,2045,0,7,7,forest_7,2,memory-2step-stake-s,666,4544900,0.0-19.0-0.1-0.167,A3CGQOJC28OVGN,3YGE63DIOBDQKTHDUYZ9OUNPB7QW00,3TMSXRD2XAGTD10PGJ8BRJ2MG0KW18,3,4
168,1,object_01,object_08,-1.0,-1,-1,-1.0,0.0,-,0,5,2045,0,2,9,desert_5,2,memory-2step-stake-s,667,4551422,0.0-19.0-0.1-0.168,A3CGQOJC28OVGN,3YGE63DIOBDQKTHDUYZ9OUNPB7QW00,3TMSXRD2XAGTD10PGJ8BRJ2MG0KW18,1,2
169,2,object_05,object_04,53.799999982119,4,2,1116.6000000238,0.8888888888888888,2,object_10,5,2085,0,1,8,forest_5,2,memory-2step-stake-s,668,4560603,0.0-19.0-0.1-0.169,A3CGQOJC28OVGN,3YGE63DIOBDQKTHDUYZ9OUNPB7QW00,3TMSXRD2XAGTD10PGJ8BRJ2MG0KW18,3,4
170,2,object_05,object_04,622.69999998808,4,2,342.80000001192,1.0,2,object_10,5,2130,0,0,9,forest_3,2,memory-2step-stake-s,669,4569118,0.0-19.0-0.1-0.170,A3CGQOJC28OVGN,3YGE63DIOBDQKTHDUYZ9OUNPB7QW00,3TMSXRD2XAGTD10PGJ8BRJ2MG0KW18,3,4
171,2,object_05,object_04,958.5,4,2,341.0,0.8888888888888888,2,object_10,5,2170,0,0,8,forest_7,2,memory-2step-stake-s,670,4577540,0.0-19.0-0.1-0.171,A3CGQOJC28OVGN,3YGE63DIOBDQKTHDUYZ9OUNPB7QW00,3TMSXRD2XAGTD10PGJ8BRJ2MG0KW18,3,4
172,1,object_08,object_01,666.09999999404,2,1,337.40000000596,0.8888888888888888,2,object_10,1,2178,0,3,8,desert_7,2,memory-2step-stake-s,671,4585948,0.0-19.0-0.1-0.172,A3CGQOJC28OVGN,3YGE63DIOBDQKTHDUYZ9OUNPB7QW00,3TMSXRD2XAGTD10PGJ8BRJ2MG0KW18,2,1
173,1,object_01,object_08,752.59999999404,2,2,347.69999998808,0.8888888888888888,2,object_10,5,2218,0,3,8,desert_2,2,memory-2step-stake-s,672,4594368,0.0-19.0-0.1-0.173,A3CGQOJC28OVGN,3YGE63DIOBDQKTHDUYZ9OUNPB7QW00,3TMSXRD2XAGTD10PGJ8BRJ2MG0KW18,1,2
174,1,object_08,object_01,668.30000001192,2,1,-1.0,0.0,2,object_10,5,2218,0,3,6,desert_1,2,memory-2step-stake-s,673,4602903,0.0-19.0-0.1-0.174,A3CGQOJC28OVGN,3YGE63DIOBDQKTHDUYZ9OUNPB7QW00,3TMSXRD2XAGTD10PGJ8BRJ2MG0KW18,2,1
175,1,object_08,object_01,660.59999999404,2,1,758.69999998808,0.7777777777777778,2,object_10,1,2225,0,0,7,desert_5,2,memory-2step-stake-s,674,4611621,0.0-19.0-0.1-0.175,A3CGQOJC28OVGN,3YGE63DIOBDQKTHDUYZ9OUNPB7QW00,3TMSXRD2XAGTD10PGJ8BRJ2MG0KW18,2,1
176,1,object_08,object_01,600.19999998808,2,1,1138.2999999821,0.6666666666666666,2,object_10,5,2255,0,2,6,desert_2,2,memory-2step-stake-s,675,4620618,0.0-19.0-0.1-0.176,A3CGQOJC28OVGN,3YGE63DIOBDQKTHDUYZ9OUNPB7QW00,3TMSXRD2XAGTD10PGJ8BRJ2MG0KW18,2,1
177,4,object_07,object_03,801.0,8,2,623.40000000596,0.5555555555555556,2,object_10,1,2260,0,4,5,restaurant_2,2,memory-2step-stake-s,676,4628997,0.0-19.0-0.1-0.177,A3CGQOJC28OVGN,3YGE63DIOBDQKTHDUYZ9OUNPB7QW00,3TMSXRD2XAGTD10PGJ8BRJ2MG0KW18,7,8
178,2,object_04,object_05,719.80000001192,4,1,402.0,0.6666666666666666,2,object_10,5,2290,0,5,6,forest_1,2,memory-2step-stake-s,677,4637242,0.0-19.0-0.1-0.178,A3CGQOJC28OVGN,3YGE63DIOBDQKTHDUYZ9OUNPB7QW00,3TMSXRD2XAGTD10PGJ8BRJ2MG0KW18,4,3
179,4,object_07,object_03,542.40000000596,8,2,479.70000001788,0.6666666666666666,2,object_10,1,2296,0,5,6,restaurant_1,2,memory-2step-stake-s,678,4645562,0.0-19.0-0.1-0.179,A3CGQOJC28OVGN,3YGE63DIOBDQKTHDUYZ9OUNPB7QW00,3TMSXRD2XAGTD10PGJ8BRJ2MG0KW18,7,8
180,1,object_01,object_08,675.30000001192,2,2,541.59999999404,0.3333333333333333,2,object_10,5,2311,0,6,3,desert_1,2,memory-2step-stake-s,679,4653630,0.0-19.0-0.1-0.180,A3CGQOJC28OVGN,3YGE63DIOBDQKTHDUYZ9OUNPB7QW00,3TMSXRD2XAGTD10PGJ8BRJ2MG0KW18,1,2
181,4,object_07,object_03,758.0,8,2,860.09999999404,0.4444444444444444,2,object_10,1,2315,0,4,4,restaurant_2,2,memory-2step-stake-s,680,4662119,0.0-19.0-0.1-0.181,A3CGQOJC28OVGN,3YGE63DIOBDQKTHDUYZ9OUNPB7QW00,3TMSXRD2XAGTD10PGJ8BRJ2MG0KW18,7,8
182,3,object_09,object_06,624.29999998212,6,2,1074.099999994,0.4444444444444444,2,object_10,1,2319,0,3,4,library_2,2,memory-2step-stake-s,681,4670819,0.0-19.0-0.1-0.182,A3CGQOJC28OVGN,3YGE63DIOBDQKTHDUYZ9OUNPB7QW00,3TMSXRD2XAGTD10PGJ8BRJ2MG0KW18,5,6
183,4,object_07,object_03,819.29999998212,8,2,364.80000001192,0.1111111111111111,2,object_10,5,2324,0,3,1,restaurant_2,2,memory-2step-stake-s,682,4678517,0.0-19.0-0.1-0.183,A3CGQOJC28OVGN,3YGE63DIOBDQKTHDUYZ9OUNPB7QW00,3TMSXRD2XAGTD10PGJ8BRJ2MG0KW18,7,8
184,2,object_04,object_05,-1.0,-1,-1,-1.0,0.0,-,0,5,2324,0,2,0,forest_1,2,memory-2step-stake-s,683,4685032,0.0-19.0-0.1-0.184,A3CGQOJC28OVGN,3YGE63DIOBDQKTHDUYZ9OUNPB7QW00,3TMSXRD2XAGTD10PGJ8BRJ2MG0KW18,4,3
185,2,object_04,object_05,518.20000001788,3,2,401.69999998808,0.0,1,object_02,5,2324,0,0,0,forest_5,2,memory-2step-stake-s,684,4692661,0.0-19.0-0.1-0.185,A3CGQOJC28OVGN,3YGE63DIOBDQKTHDUYZ9OUNPB7QW00,3TMSXRD2XAGTD10PGJ8BRJ2MG0KW18,4,3
186,3,object_09,object_06,536.59999999404,6,2,415.19999998808,0.2222222222222222,2,object_10,1,2326,0,0,2,library_8,2,memory-2step-stake-s,685,4700497,0.0-19.0-0.1-0.186,A3CGQOJC28OVGN,3YGE63DIOBDQKTHDUYZ9OUNPB7QW00,3TMSXRD2XAGTD10PGJ8BRJ2MG0KW18,5,6
187,1,object_08,object_01,915.80000001192,2,1,331.29999998212,0.2222222222222222,2,object_10,5,2336,0,1,2,desert_2,2,memory-2step-stake-s,686,4708251,0.0-19.0-0.1-0.187,A3CGQOJC28OVGN,3YGE63DIOBDQKTHDUYZ9OUNPB7QW00,3TMSXRD2XAGTD10PGJ8BRJ2MG0KW18,2,1
188,1,object_08,object_01,589.09999999404,1,2,356.69999998808,0.1111111111111111,1,object_02,5,2341,0,1,4,desert_1,2,memory-2step-stake-s,687,4715931,0.0-19.0-0.1-0.188,A3CGQOJC28OVGN,3YGE63DIOBDQKTHDUYZ9OUNPB7QW00,3TMSXRD2XAGTD10PGJ8BRJ2MG0KW18,2,1
189,2,object_04,object_05,721.19999998808,4,1,366.29999998212,0.4444444444444444,2,object_10,5,2361,0,2,4,forest_3,2,memory-2step-stake-s,688,4723934,0.0-19.0-0.1-0.189,A3CGQOJC28OVGN,3YGE63DIOBDQKTHDUYZ9OUNPB7QW00,3TMSXRD2XAGTD10PGJ8BRJ2MG0KW18,4,3
190,2,object_04,object_05,659.19999998808,4,1,797.90000000596,0.6666666666666666,2,object_10,5,2391,0,3,6,forest_3,2,memory-2step-stake-s,689,4732573,0.0-19.0-0.1-0.190,A3CGQOJC28OVGN,3YGE63DIOBDQKTHDUYZ9OUNPB7QW00,3TMSXRD2XAGTD10PGJ8BRJ2MG0KW18,4,3
191,3,object_09,object_06,713.0,5,1,409.80000001192,0.0,1,object_02,5,2391,0,0,6,library_8,2,memory-2step-stake-s,690,4740201,0.0-19.0-0.1-0.191,A3CGQOJC28OVGN,3YGE63DIOBDQKTHDUYZ9OUNPB7QW00,3TMSXRD2XAGTD10PGJ8BRJ2MG0KW18,5,6
192,2,object_04,object_05,721.5,4,1,772.59999999404,0.8888888888888888,2,object_10,5,2431,0,0,8,forest_3,2,memory-2step-stake-s,691,4749021,0.0-19.0-0.1-0.192,A3CGQOJC28OVGN,3YGE63DIOBDQKTHDUYZ9OUNPB7QW00,3TMSXRD2XAGTD10PGJ8BRJ2MG0KW18,4,3
193,2,object_05,object_04,768.60000002384,4,2,481.5,0.8888888888888888,2,object_10,1,2439,0,2,8,forest_5,2,memory-2step-stake-s,692,4757537,0.0-19.0-0.1-0.193,A3CGQOJC28OVGN,3YGE63DIOBDQKTHDUYZ9OUNPB7QW00,3TMSXRD2XAGTD10PGJ8BRJ2MG0KW18,3,4
194,2,object_05,object_04,-1.0,-1,-1,-1.0,0.0,-,0,5,2439,0,1,8,forest_1,2,memory-2step-stake-s,693,4764050,0.0-19.0-0.1-0.194,A3CGQOJC28OVGN,3YGE63DIOBDQKTHDUYZ9OUNPB7QW00,3TMSXRD2XAGTD10PGJ8BRJ2MG0KW18,3,4
195,3,object_06,object_09,943.69999998808,6,1,432.0,0.7777777777777778,2,object_10,5,2474,0,1,7,library_5,2,memory-2step-stake-s,694,4772426,0.0-19.0-0.1-0.195,A3CGQOJC28OVGN,3YGE63DIOBDQKTHDUYZ9OUNPB7QW00,3TMSXRD2XAGTD10PGJ8BRJ2MG0KW18,6,5
196,1,object_01,object_08,779.80000001192,2,2,380.79999998212,0.7777777777777778,2,object_10,5,2509,0,1,7,desert_2,2,memory-2step-stake-s,695,4780748,0.0-19.0-0.1-0.196,A3CGQOJC28OVGN,3YGE63DIOBDQKTHDUYZ9OUNPB7QW00,3TMSXRD2XAGTD10PGJ8BRJ2MG0KW18,1,2
197,2,object_05,object_04,634.09999999404,4,2,398.40000000596,0.8888888888888888,2,object_10,1,2517,0,2,8,forest_3,2,memory-2step-stake-s,696,4789192,0.0-19.0-0.1-0.197,A3CGQOJC28OVGN,3YGE63DIOBDQKTHDUYZ9OUNPB7QW00,3TMSXRD2XAGTD10PGJ8BRJ2MG0KW18,3,4
198,1,object_08,object_01,804.59999999404,2,1,364.0,0.7777777777777778,2,object_10,5,2552,0,3,7,desert_7,2,memory-2step-stake-s,697,4797494,0.0-19.0-0.1-0.198,A3CGQOJC28OVGN,3YGE63DIOBDQKTHDUYZ9OUNPB7QW00,3TMSXRD2XAGTD10PGJ8BRJ2MG0KW18,2,1
199,4,object_07,object_03,829.29999998212,8,2,515.59999999404,0.6666666666666666,2,object_10,5,2582,0,4,6,restaurant_2,2,memory-2step-stake-s,698,4805858,0.0-19.0-0.1-0.199,A3CGQOJC28OVGN,3YGE63DIOBDQKTHDUYZ9OUNPB7QW00,3TMSXRD2XAGTD10PGJ8BRJ2MG0KW18,7,8
200,2,object_04,object_05,754.09999999404,4,1,8.5999999940395,0.6666666666666666,2,object_10,5,2612,0,6,6,forest_5,2,memory-2step-stake-s,699,4813707,0.0-19.0-0.1-0.200,A3CGQOJC28OVGN,3YGE63DIOBDQKTHDUYZ9OUNPB7QW00,3TMSXRD2XAGTD10PGJ8BRJ2MG0KW18,4,3
201,3,object_06,object_09,717.30000001192,6,1,383.0,0.4444444444444444,2,object_10,1,2616,0,8,4,library_8,2,memory-2step-stake-s,700,4821722,0.0-19.0-0.1-0.201,A3CGQOJC28OVGN,3YGE63DIOBDQKTHDUYZ9OUNPB7QW00,3TMSXRD2XAGTD10PGJ8BRJ2MG0KW18,6,5
202,1,object_08,object_01,812.09999999404,2,1,565.09999999404,0.7777777777777778,2,object_10,1,2623,0,8,7,desert_2,2,memory-2step-stake-s,701,4830237,0.0-19.0-0.1-0.202,A3CGQOJC28OVGN,3YGE63DIOBDQKTHDUYZ9OUNPB7QW00,3TMSXRD2XAGTD10PGJ8BRJ2MG0KW18,2,1
203,3,object_09,object_06,839.40000000596,6,2,631.5,0.5555555555555556,2,object_10,1,2628,0,8,5,library_2,2,memory-2step-stake-s,702,4838607,0.0-19.0-0.1-0.203,A3CGQOJC28OVGN,3YGE63DIOBDQKTHDUYZ9OUNPB7QW00,3TMSXRD2XAGTD10PGJ8BRJ2MG0KW18,5,6
204,2,object_05,object_04,560.60000002384,4,2,1214.3000000119,0.4444444444444444,2,object_10,1,2632,0,9,4,forest_7,2,memory-2step-stake-s,703,4847456,0.0-19.0-0.1-0.204,A3CGQOJC28OVGN,3YGE63DIOBDQKTHDUYZ9OUNPB7QW00,3TMSXRD2XAGTD10PGJ8BRJ2MG0KW18,3,4
205,1,object_08,object_01,629.0,2,1,441.40000000596,0.3333333333333333,2,object_10,1,2635,0,6,3,desert_5,2,memory-2step-stake-s,704,4855439,0.0-19.0-0.1-0.205,A3CGQOJC28OVGN,3YGE63DIOBDQKTHDUYZ9OUNPB7QW00,3TMSXRD2XAGTD10PGJ8BRJ2MG0KW18,2,1
206,1,object_08,object_01,687.60000002384,1,2,347.5,1.0,1,object_02,5,2680,0,9,2,desert_1,2,memory-2step-stake-s,705,4863938,0.0-19.0-0.1-0.206,A3CGQOJC28OVGN,3YGE63DIOBDQKTHDUYZ9OUNPB7QW00,3TMSXRD2XAGTD10PGJ8BRJ2MG0KW18,2,1
207,3,object_09,object_06,670.30000001192,5,1,350.39999997616,0.6666666666666666,1,object_02,1,2686,0,6,6,library_8,2,memory-2step-stake-s,706,4872125,0.0-19.0-0.1-0.207,A3CGQOJC28OVGN,3YGE63DIOBDQKTHDUYZ9OUNPB7QW00,3TMSXRD2XAGTD10PGJ8BRJ2MG0KW18,5,6
208,3,object_06,object_09,516.09999999404,5,2,387.29999998212,0.8888888888888888,1,object_02,1,2694,0,8,6,library_2,2,memory-2step-stake-s,707,4880556,0.0-19.0-0.1-0.208,A3CGQOJC28OVGN,3YGE63DIOBDQKTHDUYZ9OUNPB7QW00,3TMSXRD2XAGTD10PGJ8BRJ2MG0KW18,6,5
209,4,object_07,object_03,868.90000000596,7,1,389.80000001192,0.8888888888888888,1,object_02,1,2702,0,8,5,restaurant_2,2,memory-2step-stake-s,708,4888997,0.0-19.0-0.1-0.209,A3CGQOJC28OVGN,3YGE63DIOBDQKTHDUYZ9OUNPB7QW00,3TMSXRD2XAGTD10PGJ8BRJ2MG0KW18,7,8
210,3,object_06,object_09,531.0,5,2,415.90000000596,1.0,1,object_02,1,2711,0,9,5,library_6,2,memory-2step-stake-s,709,4897565,0.0-19.0-0.1-0.210,A3CGQOJC28OVGN,3YGE63DIOBDQKTHDUYZ9OUNPB7QW00,3TMSXRD2XAGTD10PGJ8BRJ2MG0KW18,6,5
211,2,object_04,object_05,556.69999998808,4,1,524.5,0.3333333333333333,2,object_10,5,2726,0,9,3,forest_3,2,memory-2step-stake-s,710,4905626,0.0-19.0-0.1-0.211,A3CGQOJC28OVGN,3YGE63DIOBDQKTHDUYZ9OUNPB7QW00,3TMSXRD2XAGTD10PGJ8BRJ2MG0KW18,4,3
212,2,object_05,object_04,653.40000000596,3,1,543.0,0.8888888888888888,1,object_02,1,2734,0,8,4,forest_1,2,memory-2step-stake-s,711,4914221,0.0-19.0-0.1-0.212,A3CGQOJC28OVGN,3YGE63DIOBDQKTHDUYZ9OUNPB7QW00,3TMSXRD2XAGTD10PGJ8BRJ2MG0KW18,3,4
213,3,object_06,object_09,427.30000001192,5,2,506.40000000596,0.5555555555555556,1,object_02,1,2739,0,5,7,library_2,2,memory-2step-stake-s,712,4922465,0.0-19.0-0.1-0.213,A3CGQOJC28OVGN,3YGE63DIOBDQKTHDUYZ9OUNPB7QW00,3TMSXRD2XAGTD10PGJ8BRJ2MG0KW18,6,5
214,2,object_04,object_05,633.0,3,2,568.40000000596,0.8888888888888888,1,object_02,1,2747,0,8,8,forest_1,2,memory-2step-stake-s,713,4931088,0.0-19.0-0.1-0.214,A3CGQOJC28OVGN,3YGE63DIOBDQKTHDUYZ9OUNPB7QW00,3TMSXRD2XAGTD10PGJ8BRJ2MG0KW18,4,3
215,1,object_01,object_08,854.40000000596,1,1,452.59999999404,0.8888888888888888,1,object_02,5,2787,0,8,9,desert_7,2,memory-2step-stake-s,714,4939586,0.0-19.0-0.1-0.215,A3CGQOJC28OVGN,3YGE63DIOBDQKTHDUYZ9OUNPB7QW00,3TMSXRD2XAGTD10PGJ8BRJ2MG0KW18,1,2
216,4,object_03,object_07,917.5,7,2,361.90000000596,0.5555555555555556,1,object_02,1,2792,0,5,9,restaurant_1,2,memory-2step-stake-s,715,4947696,0.0-19.0-0.1-0.216,A3CGQOJC28OVGN,3YGE63DIOBDQKTHDUYZ9OUNPB7QW00,3TMSXRD2XAGTD10PGJ8BRJ2MG0KW18,8,7
217,3,object_06,object_09,726.69999998808,5,2,380.59999999404,0.7777777777777778,1,object_02,1,2799,0,7,8,library_6,2,memory-2step-stake-s,716,4956022,0.0-19.0-0.1-0.217,A3CGQOJC28OVGN,3YGE63DIOBDQKTHDUYZ9OUNPB7QW00,3TMSXRD2XAGTD10PGJ8BRJ2MG0KW18,6,5
218,3,object_06,object_09,467.79999998212,5,2,580.20000001788,1.0,1,object_02,1,2808,0,9,8,library_8,2,memory-2step-stake-s,717,4964764,0.0-19.0-0.1-0.218,A3CGQOJC28OVGN,3YGE63DIOBDQKTHDUYZ9OUNPB7QW00,3TMSXRD2XAGTD10PGJ8BRJ2MG0KW18,6,5
219,2,object_05,object_04,579.70000001788,3,1,610.09999999404,0.7777777777777778,1,object_02,5,2843,0,7,8,forest_1,2,memory-2step-stake-s,718,4973312,0.0-19.0-0.1-0.219,A3CGQOJC28OVGN,3YGE63DIOBDQKTHDUYZ9OUNPB7QW00,3TMSXRD2XAGTD10PGJ8BRJ2MG0KW18,3,4
220,2,object_05,object_04,541.0,3,1,505.70000001788,0.7777777777777778,1,object_02,5,2878,0,7,9,forest_7,2,memory-2step-stake-s,719,4981770,0.0-19.0-0.1-0.220,A3CGQOJC28OVGN,3YGE63DIOBDQKTHDUYZ9OUNPB7QW00,3TMSXRD2XAGTD10PGJ8BRJ2MG0KW18,3,4
221,3,object_09,object_06,710.0,6,2,715.30000001192,0.7777777777777778,2,object_10,1,2885,0,7,7,library_2,2,memory-2step-stake-s,720,4990441,0.0-19.0-0.1-0.221,A3CGQOJC28OVGN,3YGE63DIOBDQKTHDUYZ9OUNPB7QW00,3TMSXRD2XAGTD10PGJ8BRJ2MG0KW18,5,6
222,3,object_06,object_09,649.59999999404,6,1,506.69999998808,0.7777777777777778,2,object_10,5,2920,0,5,7,library_8,2,memory-2step-stake-s,721,4998889,0.0-19.0-0.1-0.222,A3CGQOJC28OVGN,3YGE63DIOBDQKTHDUYZ9OUNPB7QW00,3TMSXRD2XAGTD10PGJ8BRJ2MG0KW18,6,5
223,2,object_04,object_05,642.09999999404,3,2,783.0,0.4444444444444444,1,object_02,5,2940,0,4,5,forest_5,2,memory-2step-stake-s,722,5007316,0.0-19.0-0.1-0.223,A3CGQOJC28OVGN,3YGE63DIOBDQKTHDUYZ9OUNPB7QW00,3TMSXRD2XAGTD10PGJ8BRJ2MG0KW18,4,3
224,2,object_04,object_05,597.90000000596,4,1,587.90000000596,0.7777777777777778,2,object_10,5,2975,0,7,7,forest_1,2,memory-2step-stake-s,723,5015850,0.0-19.0-0.1-0.224,A3CGQOJC28OVGN,3YGE63DIOBDQKTHDUYZ9OUNPB7QW00,3TMSXRD2XAGTD10PGJ8BRJ2MG0KW18,4,3
225,4,object_07,object_03,717.69999998808,8,2,331.20000001788,0.7777777777777778,2,object_10,5,3010,0,5,7,restaurant_1,2,memory-2step-stake-s,724,5024137,0.0-19.0-0.1-0.225,A3CGQOJC28OVGN,3YGE63DIOBDQKTHDUYZ9OUNPB7QW00,3TMSXRD2XAGTD10PGJ8BRJ2MG0KW18,7,8
226,1,object_08,object_01,775.0,2,1,-1.0,0.0,2,object_10,5,3010,0,5,6,desert_7,2,memory-2step-stake-s,725,5032673,0.0-19.0-0.1-0.226,A3CGQOJC28OVGN,3YGE63DIOBDQKTHDUYZ9OUNPB7QW00,3TMSXRD2XAGTD10PGJ8BRJ2MG0KW18,2,1
227,3,object_09,object_06,845.0,6,2,372.09999999404,0.5555555555555556,2,object_10,1,3015,0,5,5,library_6,2,memory-2step-stake-s,726,5040785,0.0-19.0-0.1-0.227,A3CGQOJC28OVGN,3YGE63DIOBDQKTHDUYZ9OUNPB7QW00,3TMSXRD2XAGTD10PGJ8BRJ2MG0KW18,5,6
228,3,object_06,object_09,671.30000001192,6,1,373.5,0.6666666666666666,2,object_10,1,3021,0,3,6,library_5,2,memory-2step-stake-s,727,5049001,0.0-19.0-0.1-0.228,A3CGQOJC28OVGN,3YGE63DIOBDQKTHDUYZ9OUNPB7QW00,3TMSXRD2XAGTD10PGJ8BRJ2MG0KW18,6,5
229,3,object_09,object_06,667.40000000596,5,1,176.29999998212,0.4444444444444444,1,object_02,1,3025,0,4,4,library_6,2,memory-2step-stake-s,728,5056825,0.0-19.0-0.1-0.229,A3CGQOJC28OVGN,3YGE63DIOBDQKTHDUYZ9OUNPB7QW00,3TMSXRD2XAGTD10PGJ8BRJ2MG0KW18,5,6
230,4,object_03,object_07,690.79999998212,8,1,377.90000000596,0.4444444444444444,2,object_10,1,3029,0,3,4,restaurant_4,2,memory-2step-stake-s,729,5064847,0.0-19.0-0.1-0.230,A3CGQOJC28OVGN,3YGE63DIOBDQKTHDUYZ9OUNPB7QW00,3TMSXRD2XAGTD10PGJ8BRJ2MG0KW18,8,7
231,1,object_01,object_08,364.80000001192,1,1,127.70000001788,0.4444444444444444,1,object_02,1,3033,0,4,1,desert_7,2,memory-2step-stake-s,730,5072626,0.0-19.0-0.1-0.231,A3CGQOJC28OVGN,3YGE63DIOBDQKTHDUYZ9OUNPB7QW00,3TMSXRD2XAGTD10PGJ8BRJ2MG0KW18,1,2
232,2,object_05,object_04,871.60000002384,4,2,458.90000000596,0.2222222222222222,2,object_10,5,3043,0,6,2,forest_7,2,memory-2step-stake-s,731,5080530,0.0-19.0-0.1-0.232,A3CGQOJC28OVGN,3YGE63DIOBDQKTHDUYZ9OUNPB7QW00,3TMSXRD2XAGTD10PGJ8BRJ2MG0KW18,3,4
233,4,object_03,object_07,778.30000001192,8,1,340.59999999404,0.1111111111111111,2,object_10,1,3044,0,8,1,restaurant_4,2,memory-2step-stake-s,732,5088217,0.0-19.0-0.1-0.233,A3CGQOJC28OVGN,3YGE63DIOBDQKTHDUYZ9OUNPB7QW00,3TMSXRD2XAGTD10PGJ8BRJ2MG0KW18,8,7
234,1,object_01,object_08,1125.2999999821,1,1,533.69999998808,0.7777777777777778,1,object_02,5,3079,0,7,2,desert_7,2,memory-2step-stake-s,733,5096713,0.0-19.0-0.1-0.234,A3CGQOJC28OVGN,3YGE63DIOBDQKTHDUYZ9OUNPB7QW00,3TMSXRD2XAGTD10PGJ8BRJ2MG0KW18,1,2
235,4,object_03,object_07,750.5,7,2,362.09999999404,0.4444444444444444,1,object_02,1,3083,0,4,1,restaurant_5,2,memory-2step-stake-s,734,5104738,0.0-19.0-0.1-0.235,A3CGQOJC28OVGN,3YGE63DIOBDQKTHDUYZ9OUNPB7QW00,3TMSXRD2XAGTD10PGJ8BRJ2MG0KW18,8,7
236,1,object_01,object_08,971.09999999404,1,1,370.70000001788,0.3333333333333333,1,object_02,5,3098,0,3,2,desert_5,2,memory-2step-stake-s,735,5112671,0.0-19.0-0.1-0.236,A3CGQOJC28OVGN,3YGE63DIOBDQKTHDUYZ9OUNPB7QW00,3TMSXRD2XAGTD10PGJ8BRJ2MG0KW18,1,2
237,4,object_07,object_03,801.5,7,1,583.09999999404,0.2222222222222222,1,object_02,5,3108,0,2,1,restaurant_5,2,memory-2step-stake-s,736,5120709,0.0-19.0-0.1-0.237,A3CGQOJC28OVGN,3YGE63DIOBDQKTHDUYZ9OUNPB7QW00,3TMSXRD2XAGTD10PGJ8BRJ2MG0KW18,7,8
238,1,object_08,object_01,728.5,2,1,424.09999999404,0.1111111111111111,2,object_10,5,3113,0,2,1,desert_7,2,memory-2step-stake-s,737,5128481,0.0-19.0-0.1-0.238,A3CGQOJC28OVGN,3YGE63DIOBDQKTHDUYZ9OUNPB7QW00,3TMSXRD2XAGTD10PGJ8BRJ2MG0KW18,2,1
239,3,object_06,object_09,976.60000002384,6,1,287.20000001788,0.2222222222222222,2,object_10,1,3115,0,5,2,library_2,2,memory-2step-stake-s,738,5136213,0.0-19.0-0.1-0.239,A3CGQOJC28OVGN,3YGE63DIOBDQKTHDUYZ9OUNPB7QW00,3TMSXRD2XAGTD10PGJ8BRJ2MG0KW18,6,5
240,2,object_05,object_04,569.5,3,1,20.09999999404,0.6666666666666666,1,object_02,1,3121,0,6,5,forest_7,2,memory-2step-stake-s,739,5144101,0.0-19.0-0.1-0.240,A3CGQOJC28OVGN,3YGE63DIOBDQKTHDUYZ9OUNPB7QW00,3TMSXRD2XAGTD10PGJ8BRJ2MG0KW18,3,4
241,2,object_04,object_05,591.90000000596,3,2,287.29999998212,0.7777777777777778,1,object_02,5,3156,0,7,6,forest_7,2,memory-2step-stake-s,740,5152364,0.0-19.0-0.1-0.241,A3CGQOJC28OVGN,3YGE63DIOBDQKTHDUYZ9OUNPB7QW00,3TMSXRD2XAGTD10PGJ8BRJ2MG0KW18,4,3
242,1,object_08,object_01,819.70000001788,1,2,236.09999999404,0.6666666666666666,1,object_02,5,3186,0,6,4,desert_2,2,memory-2step-stake-s,741,5160465,0.0-19.0-0.1-0.242,A3CGQOJC28OVGN,3YGE63DIOBDQKTHDUYZ9OUNPB7QW00,3TMSXRD2XAGTD10PGJ8BRJ2MG0KW18,2,1
243,4,object_03,object_07,846.0,7,2,483.70000001788,0.4444444444444444,1,object_02,1,3190,0,4,3,restaurant_5,2,memory-2step-stake-s,742,5168586,0.0-19.0-0.1-0.243,A3CGQOJC28OVGN,3YGE63DIOBDQKTHDUYZ9OUNPB7QW00,3TMSXRD2XAGTD10PGJ8BRJ2MG0KW18,8,7
244,4,object_03,object_07,894.70000001788,7,2,-1.0,0.0,1,object_02,1,3190,0,5,2,restaurant_2,2,memory-2step-stake-s,743,5177112,0.0-19.0-0.1-0.244,A3CGQOJC28OVGN,3YGE63DIOBDQKTHDUYZ9OUNPB7QW00,3TMSXRD2XAGTD10PGJ8BRJ2MG0KW18,8,7
245,4,object_03,object_07,596.90000000596,7,2,584.60000002384,0.5555555555555556,1,object_02,1,3195,0,5,2,restaurant_5,2,memory-2step-stake-s,744,5185428,0.0-19.0-0.1-0.245,A3CGQOJC28OVGN,3YGE63DIOBDQKTHDUYZ9OUNPB7QW00,3TMSXRD2XAGTD10PGJ8BRJ2MG0KW18,8,7
246,3,object_09,object_06,685.79999998212,6,2,896.5,0.1111111111111111,2,object_10,1,3196,0,6,1,library_6,2,memory-2step-stake-s,745,5193651,0.0-19.0-0.1-0.246,A3CGQOJC28OVGN,3YGE63DIOBDQKTHDUYZ9OUNPB7QW00,3TMSXRD2XAGTD10PGJ8BRJ2MG0KW18,5,6
247,2,object_04,object_05,927.69999998808,3,2,428.30000001192,0.7777777777777778,1,object_02,5,3231,0,7,3,forest_7,2,memory-2step-stake-s,746,5202013,0.0-19.0-0.1-0.247,A3CGQOJC28OVGN,3YGE63DIOBDQKTHDUYZ9OUNPB7QW00,3TMSXRD2XAGTD10PGJ8BRJ2MG0KW18,4,3
248,4,object_07,object_03,773.30000001192,7,1,560.40000000596,0.8888888888888888,1,object_02,1,3239,0,8,0,restaurant_4,2,memory-2step-stake-s,747,5210611,0.0-19.0-0.1-0.248,A3CGQOJC28OVGN,3YGE63DIOBDQKTHDUYZ9OUNPB7QW00,3TMSXRD2XAGTD10PGJ8BRJ2MG0KW18,7,8
249,1,object_01,object_08,286.79999998212,2,2,688.20000001788,0.4444444444444444,2,object_10,5,3259,0,7,4,desert_7,2,memory-2step-stake-s,748,5218927,0.0-19.0-0.1-0.249,A3CGQOJC28OVGN,3YGE63DIOBDQKTHDUYZ9OUNPB7QW00,3TMSXRD2XAGTD10PGJ8BRJ2MG0KW18,1,2
250,2,object_05,object_04,904.79999998212,4,2,542.60000002384,0.6666666666666666,2,object_10,5,3289,0,7,6,forest_5,2,memory-2step-stake-s,749,5227307,0.0-19.0-0.1-0.250,A3CGQOJC28OVGN,3YGE63DIOBDQKTHDUYZ9OUNPB7QW00,3TMSXRD2XAGTD10PGJ8BRJ2MG0KW18,3,4
251,4,object_03,object_07,790.30000001192,8,1,534.20000001788,0.8888888888888888,2,object_10,5,3329,0,6,8,restaurant_1,2,memory-2step-stake-s,750,5235893,0.0-19.0-0.1-0.251,A3CGQOJC28OVGN,3YGE63DIOBDQKTHDUYZ9OUNPB7QW00,3TMSXRD2XAGTD10PGJ8BRJ2MG0KW18,8,7
252,1,object_08,object_01,675.30000001192,2,1,302.70000001788,0.8888888888888888,2,object_10,5,3369,0,6,8,desert_2,2,memory-2step-stake-s,751,5244246,0.0-19.0-0.1-0.252,A3CGQOJC28OVGN,3YGE63DIOBDQKTHDUYZ9OUNPB7QW00,3TMSXRD2XAGTD10PGJ8BRJ2MG0KW18,2,1
253,2,object_05,object_04,879.59999999404,4,2,516.80000001192,0.8888888888888888,2,object_10,5,3409,0,8,8,forest_7,2,memory-2step-stake-s,752,5252809,0.0-19.0-0.1-0.253,A3CGQOJC28OVGN,3YGE63DIOBDQKTHDUYZ9OUNPB7QW00,3TMSXRD2XAGTD10PGJ8BRJ2MG0KW18,3,4
254,2,object_05,object_04,958.40000000596,4,2,-1.0,0.0,2,object_10,1,3409,0,8,6,forest_5,2,memory-2step-stake-s,753,5261333,0.0-19.0-0.1-0.254,A3CGQOJC28OVGN,3YGE63DIOBDQKTHDUYZ9OUNPB7QW00,3TMSXRD2XAGTD10PGJ8BRJ2MG0KW18,3,4
255,4,object_03,object_07,-1.0,-1,-1,-1.0,0.0,-,0,1,3409,0,7,7,restaurant_2,2,memory-2step-stake-s,754,5267858,0.0-19.0-0.1-0.255,A3CGQOJC28OVGN,3YGE63DIOBDQKTHDUYZ9OUNPB7QW00,3TMSXRD2XAGTD10PGJ8BRJ2MG0KW18,8,7
