,state1,stim_left,stim_right,rt_1,choice1,response1,rt_2,points,state2,stim_state2,stake,score,practice,rews1,rews2,background,high_arm,trial_type,trial_index,time_elapsed,internal_node_id,subid,hitid,assignmentid,stim_left_num,stim_right_num
0,4,object_04,object_07,932.37500000035,7,1,584.98000000149,0.7777777777777778,1,object_10,5,35,0,7,2,restaurant_3,1,memory-2step-stake-s,496,790002,0.0-19.0-0.0-0.0,ALCPF5NANBDSZ,3QX22DUVPRXA8IOFTTHB0PBO5I3MV1,38JBBYETQSQGO0BHI1X73B2PDA54E9,7,8
1,2,object_05,object_09,763.61999999965,4,2,584.80000000051,0.0,2,object_01,1,35,0,7,0,forest_8,1,memory-2step-stake-s,497,797795,0.0-19.0-0.0-0.1,ALCPF5NANBDSZ,3QX22DUVPRXA8IOFTTHB0PBO5I3MV1,38JBBYETQSQGO0BHI1X73B2PDA54E9,3,4
2,1,object_06,object_02,434.70499999961,2,1,879.77500000119,0.1111111111111111,2,object_01,1,36,0,8,1,desert_2,1,memory-2step-stake-s,498,805984,0.0-19.0-0.0-0.2,ALCPF5NANBDSZ,3QX22DUVPRXA8IOFTTHB0PBO5I3MV1,38JBBYETQSQGO0BHI1X73B2PDA54E9,2,1
3,1,object_06,object_02,597.23499999929,2,1,585.84499999962,0.0,2,object_01,1,36,0,7,0,desert_5,1,memory-2step-stake-s,499,813779,0.0-19.0-0.0-0.3,ALCPF5NANBDSZ,3QX22DUVPRXA8IOFTTHB0PBO5I3MV1,38JBBYETQSQGO0BHI1X73B2PDA54E9,2,1
4,3,object_08,object_03,634.95999999938,5,2,543.85000000009,0.7777777777777778,1,object_10,5,71,0,7,0,library_3,1,memory-2step-stake-s,500,822235,0.0-19.0-0.0-0.4,ALCPF5NANBDSZ,3QX22DUVPRXA8IOFTTHB0PBO5I3MV1,38JBBYETQSQGO0BHI1X73B2PDA54E9,6,5
5,3,object_08,object_03,658.625,6,1,791.95000000077,0.2222222222222222,2,object_01,5,81,0,6,2,library_4,1,memory-2step-stake-s,501,830437,0.0-19.0-0.0-0.5,ALCPF5NANBDSZ,3QX22DUVPRXA8IOFTTHB0PBO5I3MV1,38JBBYETQSQGO0BHI1X73B2PDA54E9,6,5
6,3,object_03,object_08,688.73999999964,6,2,598.0349999991,0.2222222222222222,2,object_01,5,91,0,5,2,library_8,1,memory-2step-stake-s,502,838444,0.0-19.0-0.0-0.6,ALCPF5NANBDSZ,3QX22DUVPRXA8IOFTTHB0PBO5I3MV1,38JBBYETQSQGO0BHI1X73B2PDA54E9,5,6
7,1,object_02,object_06,953.81000000087,1,1,727.02000000025,0.4444444444444444,1,object_10,1,95,0,4,7,desert_2,1,memory-2step-stake-s,503,846780,0.0-19.0-0.0-0.7,ALCPF5NANBDSZ,3QX22DUVPRXA8IOFTTHB0PBO5I3MV1,38JBBYETQSQGO0BHI1X73B2PDA54E9,1,2
8,2,object_09,object_05,618.22500000021,4,1,463.90000000072,0.5555555555555556,2,object_01,1,100,0,4,5,forest_6,1,memory-2step-stake-s,504,854953,0.0-19.0-0.0-0.8,ALCPF5NANBDSZ,3QX22DUVPRXA8IOFTTHB0PBO5I3MV1,38JBBYETQSQGO0BHI1X73B2PDA54E9,4,3
9,1,object_02,object_06,501.82999999926,2,2,370.25,0.5555555555555556,2,object_01,1,105,0,2,5,desert_3,1,memory-2step-stake-s,505,863034,0.0-19.0-0.0-0.9,ALCPF5NANBDSZ,3QX22DUVPRXA8IOFTTHB0PBO5I3MV1,38JBBYETQSQGO0BHI1X73B2PDA54E9,1,2
10,4,object_04,object_07,829.0199999992,8,2,1242.5199999998,0.1111111111111111,2,object_01,5,110,0,1,1,restaurant_7,1,memory-2step-stake-s,506,871583,0.0-19.0-0.0-0.10,ALCPF5NANBDSZ,3QX22DUVPRXA8IOFTTHB0PBO5I3MV1,38JBBYETQSQGO0BHI1X73B2PDA54E9,7,8
11,4,object_04,object_07,568.04499999993,7,1,44.695000000414,0.2222222222222222,1,object_10,1,112,0,2,4,restaurant_3,1,memory-2step-stake-s,507,879036,0.0-19.0-0.0-0.11,ALCPF5NANBDSZ,3QX22DUVPRXA8IOFTTHB0PBO5I3MV1,38JBBYETQSQGO0BHI1X73B2PDA54E9,7,8
12,2,object_05,object_09,298.96999999986,3,1,463.50000000163,0.2222222222222222,1,object_10,1,114,0,2,3,forest_5,1,memory-2step-stake-s,508,886908,0.0-19.0-0.0-0.12,ALCPF5NANBDSZ,3QX22DUVPRXA8IOFTTHB0PBO5I3MV1,38JBBYETQSQGO0BHI1X73B2PDA54E9,3,4
13,1,object_06,object_02,562.68000000098,1,2,303.49500000011,0.4444444444444444,1,object_10,1,118,0,4,2,desert_5,1,memory-2step-stake-s,509,894821,0.0-19.0-0.0-0.13,ALCPF5NANBDSZ,3QX22DUVPRXA8IOFTTHB0PBO5I3MV1,38JBBYETQSQGO0BHI1X73B2PDA54E9,2,1
14,2,object_05,object_09,682.62999999931,3,1,511.62999999907,0.5555555555555556,1,object_10,1,123,0,5,1,forest_8,1,memory-2step-stake-s,510,903041,0.0-19.0-0.0-0.14,ALCPF5NANBDSZ,3QX22DUVPRXA8IOFTTHB0PBO5I3MV1,38JBBYETQSQGO0BHI1X73B2PDA54E9,3,4
15,1,object_02,object_06,662.40000000107,1,1,347.14999999967,0.7777777777777778,1,object_10,1,130,0,7,0,desert_3,1,memory-2step-stake-s,511,911298,0.0-19.0-0.0-0.15,ALCPF5NANBDSZ,3QX22DUVPRXA8IOFTTHB0PBO5I3MV1,38JBBYETQSQGO0BHI1X73B2PDA54E9,1,2
16,1,object_02,object_06,652.76999999874,1,1,473.05000000051,0.4444444444444444,1,object_10,1,134,0,4,0,desert_3,1,memory-2step-stake-s,512,919380,0.0-19.0-0.0-0.16,ALCPF5NANBDSZ,3QX22DUVPRXA8IOFTTHB0PBO5I3MV1,38JBBYETQSQGO0BHI1X73B2PDA54E9,1,2
17,3,object_08,object_03,257.96500000067,5,2,526.42999999993,0.4444444444444444,1,object_10,5,154,0,4,3,library_8,1,memory-2step-stake-s,513,927516,0.0-19.0-0.0-0.17,ALCPF5NANBDSZ,3QX22DUVPRXA8IOFTTHB0PBO5I3MV1,38JBBYETQSQGO0BHI1X73B2PDA54E9,6,5
18,4,object_07,object_04,466.61999999918,8,1,479.96500000043,0.4444444444444444,2,object_01,5,174,0,5,4,restaurant_1,1,memory-2step-stake-s,514,935606,0.0-19.0-0.0-0.18,ALCPF5NANBDSZ,3QX22DUVPRXA8IOFTTHB0PBO5I3MV1,38JBBYETQSQGO0BHI1X73B2PDA54E9,8,7
19,2,object_05,object_09,585.00999999885,4,2,310.625,0.2222222222222222,2,object_01,1,176,0,6,2,forest_2,1,memory-2step-stake-s,515,943323,0.0-19.0-0.0-0.19,ALCPF5NANBDSZ,3QX22DUVPRXA8IOFTTHB0PBO5I3MV1,38JBBYETQSQGO0BHI1X73B2PDA54E9,3,4
20,2,object_05,object_09,147.4949999993,3,1,600.92499999888,0.7777777777777778,1,object_10,1,183,0,7,1,forest_6,1,memory-2step-stake-s,516,951834,0.0-19.0-0.0-0.20,ALCPF5NANBDSZ,3QX22DUVPRXA8IOFTTHB0PBO5I3MV1,38JBBYETQSQGO0BHI1X73B2PDA54E9,3,4
21,1,object_06,object_02,596.87999999907,1,2,689.72500000009,0.5555555555555556,1,object_10,1,188,0,5,3,desert_2,1,memory-2step-stake-s,517,960234,0.0-19.0-0.0-0.21,ALCPF5NANBDSZ,3QX22DUVPRXA8IOFTTHB0PBO5I3MV1,38JBBYETQSQGO0BHI1X73B2PDA54E9,2,1
22,1,object_02,object_06,164.5950000002,1,1,73.115000001155,0.6666666666666666,1,object_10,1,194,0,6,2,desert_5,1,memory-2step-stake-s,518,968117,0.0-19.0-0.0-0.22,ALCPF5NANBDSZ,3QX22DUVPRXA8IOFTTHB0PBO5I3MV1,38JBBYETQSQGO0BHI1X73B2PDA54E9,1,2
23,3,object_08,object_03,505.54500000004,6,1,486.84999999939,0.4444444444444444,2,object_01,5,214,0,6,4,library_8,1,memory-2step-stake-s,519,976213,0.0-19.0-0.0-0.23,ALCPF5NANBDSZ,3QX22DUVPRXA8IOFTTHB0PBO5I3MV1,38JBBYETQSQGO0BHI1X73B2PDA54E9,6,5
24,3,object_08,object_03,482.37499999965,6,1,520.48500000092,0.3333333333333333,2,object_01,1,217,0,6,3,library_3,1,memory-2step-stake-s,520,984241,0.0-19.0-0.0-0.24,ALCPF5NANBDSZ,3QX22DUVPRXA8IOFTTHB0PBO5I3MV1,38JBBYETQSQGO0BHI1X73B2PDA54E9,6,5
25,1,object_02,object_06,862.36000000092,1,1,611.53500000003,0.7777777777777778,1,object_10,1,224,0,7,3,desert_7,1,memory-2step-stake-s,521,992762,0.0-19.0-0.0-0.25,ALCPF5NANBDSZ,3QX22DUVPRXA8IOFTTHB0PBO5I3MV1,38JBBYETQSQGO0BHI1X73B2PDA54E9,1,2
26,2,object_09,object_05,325.10999999975,4,1,450.71999999892,0.2222222222222222,2,object_01,1,226,0,9,2,forest_8,1,memory-2step-stake-s,522,1000621,0.0-19.0-0.0-0.26,ALCPF5NANBDSZ,3QX22DUVPRXA8IOFTTHB0PBO5I3MV1,38JBBYETQSQGO0BHI1X73B2PDA54E9,4,3
27,2,object_05,object_09,346.29999999923,4,2,367.74499999953,0.3333333333333333,2,object_01,1,229,0,4,3,forest_6,1,memory-2step-stake-s,523,1008498,0.0-19.0-0.0-0.27,ALCPF5NANBDSZ,3QX22DUVPRXA8IOFTTHB0PBO5I3MV1,38JBBYETQSQGO0BHI1X73B2PDA54E9,3,4
28,3,object_03,object_08,317.5200000006,5,1,386.29500000027,0.5555555555555556,1,object_10,5,254,0,5,3,library_4,1,memory-2step-stake-s,524,1016592,0.0-19.0-0.0-0.28,ALCPF5NANBDSZ,3QX22DUVPRXA8IOFTTHB0PBO5I3MV1,38JBBYETQSQGO0BHI1X73B2PDA54E9,5,6
29,2,object_09,object_05,591.24499999965,3,2,388.1600000005,0.8888888888888888,1,object_10,5,294,0,8,4,forest_5,1,memory-2step-stake-s,525,1024991,0.0-19.0-0.0-0.29,ALCPF5NANBDSZ,3QX22DUVPRXA8IOFTTHB0PBO5I3MV1,38JBBYETQSQGO0BHI1X73B2PDA54E9,4,3
30,3,object_08,object_03,447.92000000051,6,1,325.05999999924,0.2222222222222222,2,object_01,5,304,0,7,2,library_2,1,memory-2step-stake-s,526,1032724,0.0-19.0-0.0-0.30,ALCPF5NANBDSZ,3QX22DUVPRXA8IOFTTHB0PBO5I3MV1,38JBBYETQSQGO0BHI1X73B2PDA54E9,6,5
31,3,object_03,object_08,859.51500000001,5,1,536.14999999991,0.7777777777777778,1,object_10,5,339,0,7,4,library_8,1,memory-2step-stake-s,527,1041171,0.0-19.0-0.0-0.31,ALCPF5NANBDSZ,3QX22DUVPRXA8IOFTTHB0PBO5I3MV1,38JBBYETQSQGO0BHI1X73B2PDA54E9,5,6
32,4,object_04,object_07,500.13500000024,8,2,449.5699999989,0.4444444444444444,2,object_01,5,359,0,5,4,restaurant_7,1,memory-2step-stake-s,528,1049229,0.0-19.0-0.0-0.32,ALCPF5NANBDSZ,3QX22DUVPRXA8IOFTTHB0PBO5I3MV1,38JBBYETQSQGO0BHI1X73B2PDA54E9,7,8
33,4,object_04,object_07,722.51499999966,8,2,471.93499999959,0.1111111111111111,2,object_01,5,364,0,6,1,restaurant_3,1,memory-2step-stake-s,529,1057008,0.0-19.0-0.0-0.33,ALCPF5NANBDSZ,3QX22DUVPRXA8IOFTTHB0PBO5I3MV1,38JBBYETQSQGO0BHI1X73B2PDA54E9,7,8
34,1,object_06,object_02,902.56000000052,1,2,411.27500000037,0.6666666666666666,1,object_10,1,370,0,6,1,desert_3,1,memory-2step-stake-s,530,1065229,0.0-19.0-0.0-0.34,ALCPF5NANBDSZ,3QX22DUVPRXA8IOFTTHB0PBO5I3MV1,38JBBYETQSQGO0BHI1X73B2PDA54E9,2,1
35,1,object_06,object_02,793.08999999915,1,2,614.14499999955,0.6666666666666666,1,object_10,5,400,0,6,1,desert_2,1,memory-2step-stake-s,531,1073654,0.0-19.0-0.0-0.35,ALCPF5NANBDSZ,3QX22DUVPRXA8IOFTTHB0PBO5I3MV1,38JBBYETQSQGO0BHI1X73B2PDA54E9,2,1
36,4,object_07,object_04,-1.0,-1,-1,-1.0,0.0,-,0,5,400,0,6,2,restaurant_5,1,memory-2step-stake-s,532,1080159,0.0-19.0-0.0-0.36,ALCPF5NANBDSZ,3QX22DUVPRXA8IOFTTHB0PBO5I3MV1,38JBBYETQSQGO0BHI1X73B2PDA54E9,8,7
37,1,object_06,object_02,495.78500000085,1,2,396.57000000076,0.4444444444444444,1,object_10,1,404,0,4,2,desert_7,1,memory-2step-stake-s,533,1088165,0.0-19.0-0.0-0.37,ALCPF5NANBDSZ,3QX22DUVPRXA8IOFTTHB0PBO5I3MV1,38JBBYETQSQGO0BHI1X73B2PDA54E9,2,1
38,1,object_02,object_06,482.80999999959,1,1,415.28499999898,0.2222222222222222,1,object_10,1,406,0,2,3,desert_5,1,memory-2step-stake-s,534,1095989,0.0-19.0-0.0-0.38,ALCPF5NANBDSZ,3QX22DUVPRXA8IOFTTHB0PBO5I3MV1,38JBBYETQSQGO0BHI1X73B2PDA54E9,1,2
39,2,object_05,object_09,818.81500000064,4,2,583.30000000028,0.3333333333333333,2,object_01,5,421,0,2,3,forest_2,1,memory-2step-stake-s,535,1104081,0.0-19.0-0.0-0.39,ALCPF5NANBDSZ,3QX22DUVPRXA8IOFTTHB0PBO5I3MV1,38JBBYETQSQGO0BHI1X73B2PDA54E9,3,4
40,1,object_06,object_02,574.22500000033,1,2,363.22499999916,0.1111111111111111,1,object_10,1,422,0,1,1,desert_2,1,memory-2step-stake-s,536,1111752,0.0-19.0-0.0-0.40,ALCPF5NANBDSZ,3QX22DUVPRXA8IOFTTHB0PBO5I3MV1,38JBBYETQSQGO0BHI1X73B2PDA54E9,2,1
41,1,object_02,object_06,399.25000000047,1,1,452.47999999998,0.3333333333333333,1,object_10,1,425,0,3,3,desert_3,1,memory-2step-stake-s,537,1119712,0.0-19.0-0.0-0.41,ALCPF5NANBDSZ,3QX22DUVPRXA8IOFTTHB0PBO5I3MV1,38JBBYETQSQGO0BHI1X73B2PDA54E9,1,2
42,3,object_03,object_08,526.96000000113,6,2,243.12000000081,0.2222222222222222,2,object_01,5,435,0,3,2,library_2,1,memory-2step-stake-s,538,1127364,0.0-19.0-0.0-0.42,ALCPF5NANBDSZ,3QX22DUVPRXA8IOFTTHB0PBO5I3MV1,38JBBYETQSQGO0BHI1X73B2PDA54E9,5,6
43,4,object_07,object_04,707.82499999972,8,1,616.89000000129,0.1111111111111111,2,object_01,1,436,0,2,1,restaurant_7,1,memory-2step-stake-s,539,1135289,0.0-19.0-0.0-0.43,ALCPF5NANBDSZ,3QX22DUVPRXA8IOFTTHB0PBO5I3MV1,38JBBYETQSQGO0BHI1X73B2PDA54E9,8,7
44,1,object_06,object_02,501.94000000018,1,2,530.65500000049,0.0,1,object_10,1,436,0,0,2,desert_3,1,memory-2step-stake-s,540,1143027,0.0-19.0-0.0-0.44,ALCPF5NANBDSZ,3QX22DUVPRXA8IOFTTHB0PBO5I3MV1,38JBBYETQSQGO0BHI1X73B2PDA54E9,2,1
45,3,object_03,object_08,275.98000000045,5,1,440.65000000037,0.2222222222222222,1,object_10,5,446,0,2,0,library_4,1,memory-2step-stake-s,541,1150876,0.0-19.0-0.0-0.45,ALCPF5NANBDSZ,3QX22DUVPRXA8IOFTTHB0PBO5I3MV1,38JBBYETQSQGO0BHI1X73B2PDA54E9,5,6
46,3,object_08,object_03,666.75499999826,6,1,679.13500000047,0.1111111111111111,2,object_01,5,451,0,0,1,library_8,1,memory-2step-stake-s,542,1158865,0.0-19.0-0.0-0.46,ALCPF5NANBDSZ,3QX22DUVPRXA8IOFTTHB0PBO5I3MV1,38JBBYETQSQGO0BHI1X73B2PDA54E9,6,5
47,4,object_04,object_07,494.52500000014,8,2,428.20000000019,0.1111111111111111,2,object_01,5,456,0,2,1,restaurant_5,1,memory-2step-stake-s,543,1166600,0.0-19.0-0.0-0.47,ALCPF5NANBDSZ,3QX22DUVPRXA8IOFTTHB0PBO5I3MV1,38JBBYETQSQGO0BHI1X73B2PDA54E9,7,8
48,3,object_03,object_08,518.53999999911,5,1,323.44500000007,0.0,1,object_10,5,456,0,0,3,library_4,1,memory-2step-stake-s,544,1174131,0.0-19.0-0.0-0.48,ALCPF5NANBDSZ,3QX22DUVPRXA8IOFTTHB0PBO5I3MV1,38JBBYETQSQGO0BHI1X73B2PDA54E9,5,6
49,4,object_07,object_04,239.95000000112,7,2,396.0550000011,0.1111111111111111,1,object_10,1,457,0,1,3,restaurant_5,1,memory-2step-stake-s,545,1181840,0.0-19.0-0.0-0.49,ALCPF5NANBDSZ,3QX22DUVPRXA8IOFTTHB0PBO5I3MV1,38JBBYETQSQGO0BHI1X73B2PDA54E9,8,7
50,1,object_06,object_02,263.89000000013,2,1,388.37500000047,0.1111111111111111,2,object_01,1,458,0,1,1,desert_3,1,memory-2step-stake-s,546,1189537,0.0-19.0-0.0-0.50,ALCPF5NANBDSZ,3QX22DUVPRXA8IOFTTHB0PBO5I3MV1,38JBBYETQSQGO0BHI1X73B2PDA54E9,2,1
51,3,object_03,object_08,758.49000000022,5,1,563.56500000041,0.1111111111111111,1,object_10,5,463,0,1,2,library_8,1,memory-2step-stake-s,547,1197407,0.0-19.0-0.0-0.51,ALCPF5NANBDSZ,3QX22DUVPRXA8IOFTTHB0PBO5I3MV1,38JBBYETQSQGO0BHI1X73B2PDA54E9,5,6
52,2,object_09,object_05,271.38000000012,3,2,356.83999999869,0.1111111111111111,1,object_10,1,464,0,1,0,forest_2,1,memory-2step-stake-s,548,1205072,0.0-19.0-0.0-0.52,ALCPF5NANBDSZ,3QX22DUVPRXA8IOFTTHB0PBO5I3MV1,38JBBYETQSQGO0BHI1X73B2PDA54E9,4,3
53,4,object_04,object_07,295.49500000034,7,1,324.83999999939,0.2222222222222222,1,object_10,1,466,0,2,4,restaurant_5,1,memory-2step-stake-s,549,1212805,0.0-19.0-0.0-0.53,ALCPF5NANBDSZ,3QX22DUVPRXA8IOFTTHB0PBO5I3MV1,38JBBYETQSQGO0BHI1X73B2PDA54E9,7,8
54,2,object_05,object_09,578.64999999944,4,2,535.59499999927,0.5555555555555556,2,object_01,1,471,0,0,5,forest_5,1,memory-2step-stake-s,550,1221049,0.0-19.0-0.0-0.54,ALCPF5NANBDSZ,3QX22DUVPRXA8IOFTTHB0PBO5I3MV1,38JBBYETQSQGO0BHI1X73B2PDA54E9,3,4
55,2,object_09,object_05,534.34499999997,4,1,370.42500000098,0.7777777777777778,2,object_01,1,478,0,2,7,forest_5,1,memory-2step-stake-s,551,1229331,0.0-19.0-0.0-0.55,ALCPF5NANBDSZ,3QX22DUVPRXA8IOFTTHB0PBO5I3MV1,38JBBYETQSQGO0BHI1X73B2PDA54E9,4,3
56,4,object_04,object_07,620.5150000006,8,2,425.77999999956,1.0,2,object_01,1,487,0,6,9,restaurant_1,1,memory-2step-stake-s,552,1237867,0.0-19.0-0.0-0.56,ALCPF5NANBDSZ,3QX22DUVPRXA8IOFTTHB0PBO5I3MV1,38JBBYETQSQGO0BHI1X73B2PDA54E9,7,8
57,4,object_04,object_07,684.1549999991,7,1,473.45000000135,0.7777777777777778,1,object_10,1,494,0,7,6,restaurant_3,1,memory-2step-stake-s,553,1246251,0.0-19.0-0.0-0.57,ALCPF5NANBDSZ,3QX22DUVPRXA8IOFTTHB0PBO5I3MV1,38JBBYETQSQGO0BHI1X73B2PDA54E9,7,8
58,4,object_04,object_07,852.34999999916,8,2,273.25499999989,0.5555555555555556,2,object_01,5,519,0,8,5,restaurant_1,1,memory-2step-stake-s,554,1254233,0.0-19.0-0.0-0.58,ALCPF5NANBDSZ,3QX22DUVPRXA8IOFTTHB0PBO5I3MV1,38JBBYETQSQGO0BHI1X73B2PDA54E9,7,8
59,3,object_03,object_08,549.91999999946,5,1,378.81999999983,0.7777777777777778,1,object_10,5,554,0,7,9,library_2,1,memory-2step-stake-s,555,1262522,0.0-19.0-0.0-0.59,ALCPF5NANBDSZ,3QX22DUVPRXA8IOFTTHB0PBO5I3MV1,38JBBYETQSQGO0BHI1X73B2PDA54E9,5,6
60,3,object_03,object_08,637.93500000075,5,1,514.65499999886,1.0,1,object_10,5,599,0,9,8,library_4,1,memory-2step-stake-s,556,1271147,0.0-19.0-0.0-0.60,ALCPF5NANBDSZ,3QX22DUVPRXA8IOFTTHB0PBO5I3MV1,38JBBYETQSQGO0BHI1X73B2PDA54E9,5,6
61,4,object_04,object_07,621.38000000059,8,2,506.71499999962,0.5555555555555556,2,object_01,5,624,0,9,5,restaurant_3,1,memory-2step-stake-s,557,1279362,0.0-19.0-0.0-0.61,ALCPF5NANBDSZ,3QX22DUVPRXA8IOFTTHB0PBO5I3MV1,38JBBYETQSQGO0BHI1X73B2PDA54E9,7,8
62,3,object_03,object_08,317.32000000007,5,1,362.88000000059,0.5555555555555556,1,object_10,5,649,0,5,3,library_3,1,memory-2step-stake-s,558,1287434,0.0-19.0-0.0-0.62,ALCPF5NANBDSZ,3QX22DUVPRXA8IOFTTHB0PBO5I3MV1,38JBBYETQSQGO0BHI1X73B2PDA54E9,5,6
63,1,object_02,object_06,548.61999999965,1,1,409.30000000098,0.4444444444444444,1,object_10,1,653,0,4,4,desert_2,1,memory-2step-stake-s,559,1295453,0.0-19.0-0.0-0.63,ALCPF5NANBDSZ,3QX22DUVPRXA8IOFTTHB0PBO5I3MV1,38JBBYETQSQGO0BHI1X73B2PDA54E9,1,2
64,3,object_03,object_08,314.34500000067,6,2,350.78000000073,0.3333333333333333,2,object_01,5,668,0,4,3,library_3,1,memory-2step-stake-s,560,1303312,0.0-19.0-0.0-0.64,ALCPF5NANBDSZ,3QX22DUVPRXA8IOFTTHB0PBO5I3MV1,38JBBYETQSQGO0BHI1X73B2PDA54E9,5,6
65,2,object_05,object_09,230.96000000066,3,1,363.92999999947,0.4444444444444444,1,object_10,1,672,0,4,5,forest_2,1,memory-2step-stake-s,561,1311285,0.0-19.0-0.0-0.65,ALCPF5NANBDSZ,3QX22DUVPRXA8IOFTTHB0PBO5I3MV1,38JBBYETQSQGO0BHI1X73B2PDA54E9,3,4
66,1,object_02,object_06,290.54000000004,2,2,511.95499999984,0.3333333333333333,2,object_01,1,675,0,1,3,desert_5,1,memory-2step-stake-s,562,1319305,0.0-19.0-0.0-0.66,ALCPF5NANBDSZ,3QX22DUVPRXA8IOFTTHB0PBO5I3MV1,38JBBYETQSQGO0BHI1X73B2PDA54E9,1,2
67,2,object_09,object_05,589.6100000008,3,2,475.27500000061,0.2222222222222222,1,object_10,1,677,0,2,3,forest_2,1,memory-2step-stake-s,563,1327188,0.0-19.0-0.0-0.67,ALCPF5NANBDSZ,3QX22DUVPRXA8IOFTTHB0PBO5I3MV1,38JBBYETQSQGO0BHI1X73B2PDA54E9,4,3
68,4,object_07,object_04,315.38000000012,7,2,416.36499999906,0.3333333333333333,1,object_10,5,692,0,3,1,restaurant_5,1,memory-2step-stake-s,564,1335113,0.0-19.0-0.0-0.68,ALCPF5NANBDSZ,3QX22DUVPRXA8IOFTTHB0PBO5I3MV1,38JBBYETQSQGO0BHI1X73B2PDA54E9,8,7
69,2,object_05,object_09,638.35500000091,3,1,491.74500000128,0.3333333333333333,1,object_10,1,695,0,3,1,forest_6,1,memory-2step-stake-s,565,1343113,0.0-19.0-0.0-0.69,ALCPF5NANBDSZ,3QX22DUVPRXA8IOFTTHB0PBO5I3MV1,38JBBYETQSQGO0BHI1X73B2PDA54E9,3,4
70,3,object_03,object_08,517.92999999993,5,1,666.73000000091,0.6666666666666666,1,object_10,5,725,0,6,1,library_3,1,memory-2step-stake-s,566,1351590,0.0-19.0-0.0-0.70,ALCPF5NANBDSZ,3QX22DUVPRXA8IOFTTHB0PBO5I3MV1,38JBBYETQSQGO0BHI1X73B2PDA54E9,5,6
71,4,object_04,object_07,353.7200000009,7,1,582.44500000007,0.4444444444444444,1,object_10,5,745,0,4,3,restaurant_1,1,memory-2step-stake-s,567,1359782,0.0-19.0-0.0-0.71,ALCPF5NANBDSZ,3QX22DUVPRXA8IOFTTHB0PBO5I3MV1,38JBBYETQSQGO0BHI1X73B2PDA54E9,7,8
72,1,object_06,object_02,689.27499999874,2,1,838.68999999878,0.0,2,object_01,1,745,0,6,0,desert_5,1,memory-2step-stake-s,568,1367828,0.0-19.0-0.0-0.72,ALCPF5NANBDSZ,3QX22DUVPRXA8IOFTTHB0PBO5I3MV1,38JBBYETQSQGO0BHI1X73B2PDA54E9,2,1
73,1,object_06,object_02,563.06000000029,1,2,640.94000000111,0.8888888888888888,1,object_10,1,753,0,8,1,desert_7,1,memory-2step-stake-s,569,1376479,0.0-19.0-0.0-0.73,ALCPF5NANBDSZ,3QX22DUVPRXA8IOFTTHB0PBO5I3MV1,38JBBYETQSQGO0BHI1X73B2PDA54E9,2,1
74,1,object_02,object_06,856.49000000022,1,1,373.20999999973,0.8888888888888888,1,object_10,1,761,0,8,2,desert_7,1,memory-2step-stake-s,570,1384863,0.0-19.0-0.0-0.74,ALCPF5NANBDSZ,3QX22DUVPRXA8IOFTTHB0PBO5I3MV1,38JBBYETQSQGO0BHI1X73B2PDA54E9,1,2
75,4,object_04,object_07,392.18499999889,8,2,446.01000000141,0.1111111111111111,2,object_01,5,766,0,8,1,restaurant_5,1,memory-2step-stake-s,571,1392616,0.0-19.0-0.0-0.75,ALCPF5NANBDSZ,3QX22DUVPRXA8IOFTTHB0PBO5I3MV1,38JBBYETQSQGO0BHI1X73B2PDA54E9,7,8
76,3,object_08,object_03,542.87000000104,6,1,371.83499999996,0.3333333333333333,2,object_01,5,781,0,6,3,library_8,1,memory-2step-stake-s,572,1400497,0.0-19.0-0.0-0.76,ALCPF5NANBDSZ,3QX22DUVPRXA8IOFTTHB0PBO5I3MV1,38JBBYETQSQGO0BHI1X73B2PDA54E9,6,5
77,4,object_04,object_07,326.12499999977,8,2,412.23499999987,0.1111111111111111,2,object_01,5,786,0,6,1,restaurant_1,1,memory-2step-stake-s,573,1408216,0.0-19.0-0.0-0.77,ALCPF5NANBDSZ,3QX22DUVPRXA8IOFTTHB0PBO5I3MV1,38JBBYETQSQGO0BHI1X73B2PDA54E9,7,8
78,4,object_07,object_04,639.59000000078,8,1,-1.0,0.0,2,object_01,1,786,0,7,1,restaurant_5,1,memory-2step-stake-s,574,1416722,0.0-19.0-0.0-0.78,ALCPF5NANBDSZ,3QX22DUVPRXA8IOFTTHB0PBO5I3MV1,38JBBYETQSQGO0BHI1X73B2PDA54E9,8,7
79,4,object_07,object_04,269.18999999901,7,2,394.75999999931,0.8888888888888888,1,object_10,5,826,0,8,0,restaurant_1,1,memory-2step-stake-s,575,1425126,0.0-19.0-0.0-0.79,ALCPF5NANBDSZ,3QX22DUVPRXA8IOFTTHB0PBO5I3MV1,38JBBYETQSQGO0BHI1X73B2PDA54E9,8,7
80,3,object_03,object_08,193.3200000003,5,1,62.635000000242,0.6666666666666666,1,object_10,5,856,0,6,1,library_2,1,memory-2step-stake-s,576,1432998,0.0-19.0-0.0-0.80,ALCPF5NANBDSZ,3QX22DUVPRXA8IOFTTHB0PBO5I3MV1,38JBBYETQSQGO0BHI1X73B2PDA54E9,5,6
81,1,object_06,object_02,513.51000000071,2,1,-1.0,0.0,2,object_01,1,856,0,7,2,desert_5,1,memory-2step-stake-s,577,1441505,0.0-19.0-0.0-0.81,ALCPF5NANBDSZ,3QX22DUVPRXA8IOFTTHB0PBO5I3MV1,38JBBYETQSQGO0BHI1X73B2PDA54E9,2,1
82,3,object_03,object_08,598.32999999891,5,1,115.64999999967,0.8888888888888888,1,object_10,5,896,0,8,8,library_2,1,memory-2step-stake-s,578,1449631,0.0-19.0-0.0-0.82,ALCPF5NANBDSZ,3QX22DUVPRXA8IOFTTHB0PBO5I3MV1,38JBBYETQSQGO0BHI1X73B2PDA54E9,5,6
83,3,object_03,object_08,240.1399999999,6,2,93.120000001276,0.6666666666666666,2,object_01,5,926,0,9,6,library_4,1,memory-2step-stake-s,579,1457533,0.0-19.0-0.0-0.83,ALCPF5NANBDSZ,3QX22DUVPRXA8IOFTTHB0PBO5I3MV1,38JBBYETQSQGO0BHI1X73B2PDA54E9,5,6
84,4,object_07,object_04,274.75500000035,8,1,175.46500000032,0.1111111111111111,2,object_01,5,931,0,7,1,restaurant_7,1,memory-2step-stake-s,580,1465016,0.0-19.0-0.0-0.84,ALCPF5NANBDSZ,3QX22DUVPRXA8IOFTTHB0PBO5I3MV1,38JBBYETQSQGO0BHI1X73B2PDA54E9,8,7
85,3,object_03,object_08,135.27500000037,6,2,692.82000000007,0.2222222222222222,2,object_01,5,941,0,6,2,library_4,1,memory-2step-stake-s,581,1473116,0.0-19.0-0.0-0.85,ALCPF5NANBDSZ,3QX22DUVPRXA8IOFTTHB0PBO5I3MV1,38JBBYETQSQGO0BHI1X73B2PDA54E9,5,6
86,1,object_02,object_06,475.14000000036,1,1,424.4999999993,0.3333333333333333,1,object_10,1,944,0,3,2,desert_3,1,memory-2step-stake-s,582,1481048,0.0-19.0-0.0-0.86,ALCPF5NANBDSZ,3QX22DUVPRXA8IOFTTHB0PBO5I3MV1,38JBBYETQSQGO0BHI1X73B2PDA54E9,1,2
87,2,object_05,object_09,591.35000000056,4,2,188.4700000009,0.3333333333333333,2,object_01,1,947,0,4,3,forest_8,1,memory-2step-stake-s,583,1488744,0.0-19.0-0.0-0.87,ALCPF5NANBDSZ,3QX22DUVPRXA8IOFTTHB0PBO5I3MV1,38JBBYETQSQGO0BHI1X73B2PDA54E9,3,4
88,1,object_06,object_02,119.17499999981,1,2,684.74000000046,0.4444444444444444,1,object_10,1,951,0,4,5,desert_3,1,memory-2step-stake-s,584,1497037,0.0-19.0-0.0-0.88,ALCPF5NANBDSZ,3QX22DUVPRXA8IOFTTHB0PBO5I3MV1,38JBBYETQSQGO0BHI1X73B2PDA54E9,2,1
89,2,object_05,object_09,458.05999999889,3,1,271.68499999982,0.3333333333333333,1,object_10,5,966,0,3,6,forest_5,1,memory-2step-stake-s,585,1504816,0.0-19.0-0.0-0.89,ALCPF5NANBDSZ,3QX22DUVPRXA8IOFTTHB0PBO5I3MV1,38JBBYETQSQGO0BHI1X73B2PDA54E9,3,4
90,2,object_09,object_05,398.87000000104,3,2,371.26500000153,0.3333333333333333,1,object_10,1,969,0,3,7,forest_2,1,memory-2step-stake-s,586,1512697,0.0-19.0-0.0-0.90,ALCPF5NANBDSZ,3QX22DUVPRXA8IOFTTHB0PBO5I3MV1,38JBBYETQSQGO0BHI1X73B2PDA54E9,4,3
91,4,object_07,object_04,206.51999999979,8,1,59.260000000009,0.8888888888888888,2,object_01,5,1009,0,5,8,restaurant_3,1,memory-2step-stake-s,587,1520767,0.0-19.0-0.0-0.91,ALCPF5NANBDSZ,3QX22DUVPRXA8IOFTTHB0PBO5I3MV1,38JBBYETQSQGO0BHI1X73B2PDA54E9,8,7
92,2,object_05,object_09,272.56999999913,4,2,325.93499999889,0.8888888888888888,2,object_01,1,1017,0,5,8,forest_5,1,memory-2step-stake-s,588,1529103,0.0-19.0-0.0-0.92,ALCPF5NANBDSZ,3QX22DUVPRXA8IOFTTHB0PBO5I3MV1,38JBBYETQSQGO0BHI1X73B2PDA54E9,3,4
93,3,object_03,object_08,176.24000000069,5,1,973.20000000019,1.0,1,object_10,5,1062,0,9,8,library_8,1,memory-2step-stake-s,589,1538188,0.0-19.0-0.0-0.93,ALCPF5NANBDSZ,3QX22DUVPRXA8IOFTTHB0PBO5I3MV1,38JBBYETQSQGO0BHI1X73B2PDA54E9,5,6
94,4,object_04,object_07,34.569999999832,8,2,712.3900000006,0.7777777777777778,2,object_01,5,1097,0,8,7,restaurant_3,1,memory-2step-stake-s,590,1546811,0.0-19.0-0.0-0.94,ALCPF5NANBDSZ,3QX22DUVPRXA8IOFTTHB0PBO5I3MV1,38JBBYETQSQGO0BHI1X73B2PDA54E9,7,8
95,4,object_07,object_04,451.99499999941,8,1,225.30000000005,0.6666666666666666,2,object_01,5,1127,0,5,6,restaurant_5,1,memory-2step-stake-s,591,1554845,0.0-19.0-0.0-0.95,ALCPF5NANBDSZ,3QX22DUVPRXA8IOFTTHB0PBO5I3MV1,38JBBYETQSQGO0BHI1X73B2PDA54E9,8,7
96,1,object_06,object_02,482.51999999955,1,2,167.27499999991,0.4444444444444444,1,object_10,1,1131,0,4,8,desert_2,1,memory-2step-stake-s,592,1562622,0.0-19.0-0.0-0.96,ALCPF5NANBDSZ,3QX22DUVPRXA8IOFTTHB0PBO5I3MV1,38JBBYETQSQGO0BHI1X73B2PDA54E9,2,1
97,2,object_09,object_05,584.86500000092,4,1,589.64500000002,0.8888888888888888,2,object_01,1,1139,0,3,8,forest_2,1,memory-2step-stake-s,593,1571223,0.0-19.0-0.0-0.97,ALCPF5NANBDSZ,3QX22DUVPRXA8IOFTTHB0PBO5I3MV1,38JBBYETQSQGO0BHI1X73B2PDA54E9,4,3
98,3,object_08,object_03,352.74500000011,5,2,390.08000000124,0.3333333333333333,1,object_10,1,1142,0,3,9,library_8,1,memory-2step-stake-s,594,1579121,0.0-19.0-0.0-0.98,ALCPF5NANBDSZ,3QX22DUVPRXA8IOFTTHB0PBO5I3MV1,38JBBYETQSQGO0BHI1X73B2PDA54E9,6,5
99,3,object_03,object_08,173.8600000008,5,1,419.18500000075,0.3333333333333333,1,object_10,5,1157,0,3,8,library_2,1,memory-2step-stake-s,595,1587049,0.0-19.0-0.0-0.99,ALCPF5NANBDSZ,3QX22DUVPRXA8IOFTTHB0PBO5I3MV1,38JBBYETQSQGO0BHI1X73B2PDA54E9,5,6
100,1,object_06,object_02,294.52500000107,1,2,403.39999999921,0.5555555555555556,1,object_10,1,1162,0,5,5,desert_2,1,memory-2step-stake-s,596,1595161,0.0-19.0-0.0-0.100,ALCPF5NANBDSZ,3QX22DUVPRXA8IOFTTHB0PBO5I3MV1,38JBBYETQSQGO0BHI1X73B2PDA54E9,2,1
101,3,object_08,object_03,541.65999999898,6,1,266.92500000005,0.7777777777777778,2,object_01,5,1197,0,5,7,library_2,1,memory-2step-stake-s,597,1603339,0.0-19.0-0.0-0.101,ALCPF5NANBDSZ,3QX22DUVPRXA8IOFTTHB0PBO5I3MV1,38JBBYETQSQGO0BHI1X73B2PDA54E9,6,5
102,2,object_05,object_09,516.35999999964,4,2,345.62000000011,0.8888888888888888,2,object_01,5,1237,0,8,8,forest_2,1,memory-2step-stake-s,598,1611695,0.0-19.0-0.0-0.102,ALCPF5NANBDSZ,3QX22DUVPRXA8IOFTTHB0PBO5I3MV1,38JBBYETQSQGO0BHI1X73B2PDA54E9,3,4
103,3,object_03,object_08,391.93499999959,5,1,612.71999999904,0.8888888888888888,1,object_10,5,1277,0,8,8,library_8,1,memory-2step-stake-s,599,1620318,0.0-19.0-0.0-0.103,ALCPF5NANBDSZ,3QX22DUVPRXA8IOFTTHB0PBO5I3MV1,38JBBYETQSQGO0BHI1X73B2PDA54E9,5,6
104,1,object_02,object_06,73.759999999311,2,2,358.93999999831,0.8888888888888888,2,object_01,1,1285,0,9,8,desert_7,1,memory-2step-stake-s,600,1628687,0.0-19.0-0.0-0.104,ALCPF5NANBDSZ,3QX22DUVPRXA8IOFTTHB0PBO5I3MV1,38JBBYETQSQGO0BHI1X73B2PDA54E9,1,2
105,4,object_07,object_04,527.21500000008,8,1,357.04999999865,0.8888888888888888,2,object_01,5,1325,0,0,8,restaurant_1,1,memory-2step-stake-s,601,1637055,0.0-19.0-0.0-0.105,ALCPF5NANBDSZ,3QX22DUVPRXA8IOFTTHB0PBO5I3MV1,38JBBYETQSQGO0BHI1X73B2PDA54E9,8,7
106,1,object_02,object_06,671.77000000072,1,1,412.92000000086,0.2222222222222222,1,object_10,5,1335,0,2,6,desert_3,1,memory-2step-stake-s,602,1644876,0.0-19.0-0.0-0.106,ALCPF5NANBDSZ,3QX22DUVPRXA8IOFTTHB0PBO5I3MV1,38JBBYETQSQGO0BHI1X73B2PDA54E9,1,2
107,3,object_03,object_08,347.1650000012,6,2,624.96499999892,0.4444444444444444,2,object_01,5,1355,0,2,4,library_8,1,memory-2step-stake-s,603,1653108,0.0-19.0-0.0-0.107,ALCPF5NANBDSZ,3QX22DUVPRXA8IOFTTHB0PBO5I3MV1,38JBBYETQSQGO0BHI1X73B2PDA54E9,5,6
108,4,object_04,object_07,458.48499999917,8,2,136.44999999995,0.6666666666666666,2,object_01,5,1385,0,0,6,restaurant_7,1,memory-2step-stake-s,604,1661054,0.0-19.0-0.0-0.108,ALCPF5NANBDSZ,3QX22DUVPRXA8IOFTTHB0PBO5I3MV1,38JBBYETQSQGO0BHI1X73B2PDA54E9,7,8
109,2,object_05,object_09,665.62499999953,4,2,374.77500000014,0.3333333333333333,2,object_01,1,1388,0,1,3,forest_5,1,memory-2step-stake-s,605,1668937,0.0-19.0-0.0-0.109,ALCPF5NANBDSZ,3QX22DUVPRXA8IOFTTHB0PBO5I3MV1,38JBBYETQSQGO0BHI1X73B2PDA54E9,3,4
110,1,object_02,object_06,366.92499999842,1,1,635.73999999976,0.1111111111111111,1,object_10,1,1389,0,1,2,desert_3,1,memory-2step-stake-s,606,1676881,0.0-19.0-0.0-0.110,ALCPF5NANBDSZ,3QX22DUVPRXA8IOFTTHB0PBO5I3MV1,38JBBYETQSQGO0BHI1X73B2PDA54E9,1,2
111,3,object_03,object_08,229.68999999994,6,2,570.91000000038,0.3333333333333333,2,object_01,5,1404,0,1,3,library_3,1,memory-2step-stake-s,607,1684960,0.0-19.0-0.0-0.111,ALCPF5NANBDSZ,3QX22DUVPRXA8IOFTTHB0PBO5I3MV1,38JBBYETQSQGO0BHI1X73B2PDA54E9,5,6
112,2,object_09,object_05,262.93500000052,4,1,291.47500000009,0.0,2,object_01,1,1404,0,3,0,forest_8,1,memory-2step-stake-s,608,1692459,0.0-19.0-0.0-0.112,ALCPF5NANBDSZ,3QX22DUVPRXA8IOFTTHB0PBO5I3MV1,38JBBYETQSQGO0BHI1X73B2PDA54E9,4,3
113,3,object_08,object_03,252.19499999913,5,2,481.9449999996,0.3333333333333333,1,object_10,1,1407,0,3,0,library_3,1,memory-2step-stake-s,609,1700448,0.0-19.0-0.0-0.113,ALCPF5NANBDSZ,3QX22DUVPRXA8IOFTTHB0PBO5I3MV1,38JBBYETQSQGO0BHI1X73B2PDA54E9,6,5
114,4,object_04,object_07,774.88499999885,8,2,612.53000000026,0.5555555555555556,2,object_01,5,1432,0,4,5,restaurant_7,1,memory-2step-stake-s,610,1708770,0.0-19.0-0.0-0.114,ALCPF5NANBDSZ,3QX22DUVPRXA8IOFTTHB0PBO5I3MV1,38JBBYETQSQGO0BHI1X73B2PDA54E9,7,8
115,2,object_05,object_09,653.29500000016,4,2,-1.0,0.0,2,object_01,1,1432,0,2,6,forest_6,1,memory-2step-stake-s,611,1717277,0.0-19.0-0.0-0.115,ALCPF5NANBDSZ,3QX22DUVPRXA8IOFTTHB0PBO5I3MV1,38JBBYETQSQGO0BHI1X73B2PDA54E9,3,4
116,2,object_05,object_09,521.40499999956,4,2,366.46999999904,0.5555555555555556,2,object_01,1,1437,0,3,5,forest_8,1,memory-2step-stake-s,612,1725355,0.0-19.0-0.0-0.116,ALCPF5NANBDSZ,3QX22DUVPRXA8IOFTTHB0PBO5I3MV1,38JBBYETQSQGO0BHI1X73B2PDA54E9,3,4
117,2,object_09,object_05,284.61499999859,3,2,353.04499999993,0.2222222222222222,1,object_10,5,1447,0,2,5,forest_6,1,memory-2step-stake-s,613,1733116,0.0-19.0-0.0-0.117,ALCPF5NANBDSZ,3QX22DUVPRXA8IOFTTHB0PBO5I3MV1,38JBBYETQSQGO0BHI1X73B2PDA54E9,4,3
118,4,object_04,object_07,435.47999999998,8,2,400.73999999929,0.6666666666666666,2,object_01,5,1477,0,3,6,restaurant_5,1,memory-2step-stake-s,614,1741325,0.0-19.0-0.0-0.118,ALCPF5NANBDSZ,3QX22DUVPRXA8IOFTTHB0PBO5I3MV1,38JBBYETQSQGO0BHI1X73B2PDA54E9,7,8
119,4,object_04,object_07,410.64999999991,8,2,422.95500000007,0.8888888888888888,2,object_01,5,1517,0,3,8,restaurant_3,1,memory-2step-stake-s,615,1749758,0.0-19.0-0.0-0.119,ALCPF5NANBDSZ,3QX22DUVPRXA8IOFTTHB0PBO5I3MV1,38JBBYETQSQGO0BHI1X73B2PDA54E9,7,8
120,4,object_04,object_07,360.72500000056,8,2,734.054999999,0.7777777777777778,2,object_01,5,1552,0,4,7,restaurant_3,1,memory-2step-stake-s,616,1758402,0.0-19.0-0.0-0.120,ALCPF5NANBDSZ,3QX22DUVPRXA8IOFTTHB0PBO5I3MV1,38JBBYETQSQGO0BHI1X73B2PDA54E9,7,8
121,2,object_09,object_05,469.04000000004,4,1,506.41999999969,0.8888888888888888,2,object_01,1,1560,0,5,8,forest_8,1,memory-2step-stake-s,617,1766918,0.0-19.0-0.0-0.121,ALCPF5NANBDSZ,3QX22DUVPRXA8IOFTTHB0PBO5I3MV1,38JBBYETQSQGO0BHI1X73B2PDA54E9,4,3
122,2,object_09,object_05,536.7200000002,3,2,548.46499999985,0.6666666666666666,1,object_10,1,1566,0,6,9,forest_5,1,memory-2step-stake-s,618,1775277,0.0-19.0-0.0-0.122,ALCPF5NANBDSZ,3QX22DUVPRXA8IOFTTHB0PBO5I3MV1,38JBBYETQSQGO0BHI1X73B2PDA54E9,4,3
123,1,object_02,object_06,265.98999999999,1,1,326.50499999896,0.2222222222222222,1,object_10,1,1568,0,2,9,desert_2,1,memory-2step-stake-s,619,1783013,0.0-19.0-0.0-0.123,ALCPF5NANBDSZ,3QX22DUVPRXA8IOFTTHB0PBO5I3MV1,38JBBYETQSQGO0BHI1X73B2PDA54E9,1,2
124,2,object_09,object_05,474.41500000074,3,2,551.33000000007,0.2222222222222222,1,object_10,5,1578,0,2,6,forest_2,1,memory-2step-stake-s,620,1790972,0.0-19.0-0.0-0.124,ALCPF5NANBDSZ,3QX22DUVPRXA8IOFTTHB0PBO5I3MV1,38JBBYETQSQGO0BHI1X73B2PDA54E9,4,3
125,4,object_07,object_04,123.05499999993,7,2,393.3899999992,0.1111111111111111,1,object_10,5,1583,0,1,5,restaurant_3,1,memory-2step-stake-s,621,1798672,0.0-19.0-0.0-0.125,ALCPF5NANBDSZ,3QX22DUVPRXA8IOFTTHB0PBO5I3MV1,38JBBYETQSQGO0BHI1X73B2PDA54E9,8,7
126,3,object_03,object_08,510.65500000003,6,2,500.24499999941,0.4444444444444444,2,object_01,5,1603,0,4,4,library_3,1,memory-2step-stake-s,622,1806781,0.0-19.0-0.0-0.126,ALCPF5NANBDSZ,3QX22DUVPRXA8IOFTTHB0PBO5I3MV1,38JBBYETQSQGO0BHI1X73B2PDA54E9,5,6
127,3,object_08,object_03,402.07499999995,6,1,735.65500000026,0.6666666666666666,2,object_01,5,1633,0,5,6,library_3,1,memory-2step-stake-s,623,1815325,0.0-19.0-0.0-0.127,ALCPF5NANBDSZ,3QX22DUVPRXA8IOFTTHB0PBO5I3MV1,38JBBYETQSQGO0BHI1X73B2PDA54E9,6,5
128,4,object_07,object_04,599.96999999927,7,2,468.81500000018,0.6666666666666666,1,object_10,5,1663,0,6,5,restaurant_5,1,memory-2step-stake-s,625,1894055,0.0-19.0-0.1-0.128,ALCPF5NANBDSZ,3QX22DUVPRXA8IOFTTHB0PBO5I3MV1,38JBBYETQSQGO0BHI1X73B2PDA54E9,8,7
129,2,object_05,object_09,281.1100000001,3,1,462.05499999993,0.3333333333333333,1,object_10,1,1666,0,3,6,forest_8,1,memory-2step-stake-s,626,1902024,0.0-19.0-0.1-0.129,ALCPF5NANBDSZ,3QX22DUVPRXA8IOFTTHB0PBO5I3MV1,38JBBYETQSQGO0BHI1X73B2PDA54E9,3,4
130,4,object_04,object_07,102.50500000082,8,2,572.1250000007,0.8888888888888888,2,object_01,1,1674,0,0,8,restaurant_1,1,memory-2step-stake-s,627,1910606,0.0-19.0-0.1-0.130,ALCPF5NANBDSZ,3QX22DUVPRXA8IOFTTHB0PBO5I3MV1,38JBBYETQSQGO0BHI1X73B2PDA54E9,7,8
131,2,object_05,object_09,448.26500000083,3,1,757.28499999968,0.1111111111111111,1,object_10,5,1679,0,1,7,forest_5,1,memory-2step-stake-s,628,1918671,0.0-19.0-0.1-0.131,ALCPF5NANBDSZ,3QX22DUVPRXA8IOFTTHB0PBO5I3MV1,38JBBYETQSQGO0BHI1X73B2PDA54E9,3,4
132,4,object_04,object_07,383.92000000039,8,2,388.570000001,0.8888888888888888,2,object_01,5,1719,0,2,8,restaurant_7,1,memory-2step-stake-s,629,1927070,0.0-19.0-0.1-0.132,ALCPF5NANBDSZ,3QX22DUVPRXA8IOFTTHB0PBO5I3MV1,38JBBYETQSQGO0BHI1X73B2PDA54E9,7,8
133,3,object_03,object_08,304.1249999986,5,1,310.55000000028,0.5555555555555556,1,object_10,5,1744,0,5,9,library_3,1,memory-2step-stake-s,630,1935090,0.0-19.0-0.1-0.133,ALCPF5NANBDSZ,3QX22DUVPRXA8IOFTTHB0PBO5I3MV1,38JBBYETQSQGO0BHI1X73B2PDA54E9,5,6
134,1,object_02,object_06,300.8750000007,2,2,305.96499999939,0.8888888888888888,2,object_01,1,1752,0,7,8,desert_2,1,memory-2step-stake-s,631,1943407,0.0-19.0-0.1-0.134,ALCPF5NANBDSZ,3QX22DUVPRXA8IOFTTHB0PBO5I3MV1,38JBBYETQSQGO0BHI1X73B2PDA54E9,1,2
135,2,object_05,object_09,520.03500000131,3,1,429.92500000028,0.6666666666666666,1,object_10,5,1782,0,6,7,forest_6,1,memory-2step-stake-s,632,1951646,0.0-19.0-0.1-0.135,ALCPF5NANBDSZ,3QX22DUVPRXA8IOFTTHB0PBO5I3MV1,38JBBYETQSQGO0BHI1X73B2PDA54E9,3,4
136,2,object_09,object_05,352.47999999952,3,2,597.84000000032,0.4444444444444444,1,object_10,1,1786,0,4,7,forest_5,1,memory-2step-stake-s,633,1959853,0.0-19.0-0.1-0.136,ALCPF5NANBDSZ,3QX22DUVPRXA8IOFTTHB0PBO5I3MV1,38JBBYETQSQGO0BHI1X73B2PDA54E9,4,3
137,2,object_05,object_09,289.49500000104,3,1,438.84000000078,0.5555555555555556,1,object_10,5,1811,0,5,8,forest_8,1,memory-2step-stake-s,634,1968001,0.0-19.0-0.1-0.137,ALCPF5NANBDSZ,3QX22DUVPRXA8IOFTTHB0PBO5I3MV1,38JBBYETQSQGO0BHI1X73B2PDA54E9,3,4
138,4,object_07,object_04,261.57000000076,8,1,395.21000000066,0.6666666666666666,2,object_01,1,1817,0,6,6,restaurant_1,1,memory-2step-stake-s,635,1976206,0.0-19.0-0.1-0.138,ALCPF5NANBDSZ,3QX22DUVPRXA8IOFTTHB0PBO5I3MV1,38JBBYETQSQGO0BHI1X73B2PDA54E9,8,7
139,3,object_08,object_03,272.54499999993,5,2,390.02500000061,0.6666666666666666,1,object_10,5,1847,0,6,6,library_8,1,memory-2step-stake-s,636,1984408,0.0-19.0-0.1-0.139,ALCPF5NANBDSZ,3QX22DUVPRXA8IOFTTHB0PBO5I3MV1,38JBBYETQSQGO0BHI1X73B2PDA54E9,6,5
140,1,object_06,object_02,326.22500000079,2,1,340.16999999969,0.3333333333333333,2,object_01,1,1850,0,5,3,desert_7,1,memory-2step-stake-s,637,1992257,0.0-19.0-0.1-0.140,ALCPF5NANBDSZ,3QX22DUVPRXA8IOFTTHB0PBO5I3MV1,38JBBYETQSQGO0BHI1X73B2PDA54E9,2,1
141,4,object_04,object_07,237.97999999975,8,2,344.98999999976,0.5555555555555556,2,object_01,5,1875,0,8,5,restaurant_3,1,memory-2step-stake-s,638,2000314,0.0-19.0-0.1-0.141,ALCPF5NANBDSZ,3QX22DUVPRXA8IOFTTHB0PBO5I3MV1,38JBBYETQSQGO0BHI1X73B2PDA54E9,7,8
142,2,object_05,object_09,277.4700000009,3,1,299.18999999971,0.5555555555555556,1,object_10,1,1880,0,5,5,forest_8,1,memory-2step-stake-s,639,2008322,0.0-19.0-0.1-0.142,ALCPF5NANBDSZ,3QX22DUVPRXA8IOFTTHB0PBO5I3MV1,38JBBYETQSQGO0BHI1X73B2PDA54E9,3,4
143,1,object_02,object_06,253.18999999948,2,2,466.52000000002,0.6666666666666666,2,object_01,1,1886,0,6,6,desert_5,1,memory-2step-stake-s,640,2016598,0.0-19.0-0.1-0.143,ALCPF5NANBDSZ,3QX22DUVPRXA8IOFTTHB0PBO5I3MV1,38JBBYETQSQGO0BHI1X73B2PDA54E9,1,2
144,2,object_09,object_05,256.82500000042,4,1,333.71500000055,0.3333333333333333,2,object_01,1,1889,0,5,3,forest_2,1,memory-2step-stake-s,641,2024440,0.0-19.0-0.1-0.144,ALCPF5NANBDSZ,3QX22DUVPRXA8IOFTTHB0PBO5I3MV1,38JBBYETQSQGO0BHI1X73B2PDA54E9,4,3
145,1,object_06,object_02,486.98999999929,1,2,331.95499999984,0.6666666666666666,1,object_10,5,1919,0,6,7,desert_3,1,memory-2step-stake-s,642,2032582,0.0-19.0-0.1-0.145,ALCPF5NANBDSZ,3QX22DUVPRXA8IOFTTHB0PBO5I3MV1,38JBBYETQSQGO0BHI1X73B2PDA54E9,2,1
146,1,object_06,object_02,448.72000000044,1,2,421.41000000085,0.5555555555555556,1,object_10,1,1924,0,5,8,desert_5,1,memory-2step-stake-s,643,2040714,0.0-19.0-0.1-0.146,ALCPF5NANBDSZ,3QX22DUVPRXA8IOFTTHB0PBO5I3MV1,38JBBYETQSQGO0BHI1X73B2PDA54E9,2,1
147,3,object_03,object_08,333.07000000053,5,1,450.70999999903,0.7777777777777778,1,object_10,5,1959,0,7,8,library_4,1,memory-2step-stake-s,644,2049074,0.0-19.0-0.1-0.147,ALCPF5NANBDSZ,3QX22DUVPRXA8IOFTTHB0PBO5I3MV1,38JBBYETQSQGO0BHI1X73B2PDA54E9,5,6
148,2,object_05,object_09,253.35499999905,4,2,394.94000000018,0.8888888888888888,2,object_01,5,1999,0,6,8,forest_6,1,memory-2step-stake-s,645,2057479,0.0-19.0-0.1-0.148,ALCPF5NANBDSZ,3QX22DUVPRXA8IOFTTHB0PBO5I3MV1,38JBBYETQSQGO0BHI1X73B2PDA54E9,3,4
149,3,object_08,object_03,272.41499999934,6,1,317.46999999997,0.7777777777777778,2,object_01,5,2034,0,6,7,library_4,1,memory-2step-stake-s,646,2065706,0.0-19.0-0.1-0.149,ALCPF5NANBDSZ,3QX22DUVPRXA8IOFTTHB0PBO5I3MV1,38JBBYETQSQGO0BHI1X73B2PDA54E9,6,5
150,1,object_02,object_06,325.63999999897,2,2,434.804999999,0.4444444444444444,2,object_01,1,2038,0,3,4,desert_5,1,memory-2step-stake-s,647,2073748,0.0-19.0-0.1-0.150,ALCPF5NANBDSZ,3QX22DUVPRXA8IOFTTHB0PBO5I3MV1,38JBBYETQSQGO0BHI1X73B2PDA54E9,1,2
151,1,object_02,object_06,258.78000000003,1,1,311.55000000028,0.3333333333333333,1,object_10,1,2041,0,3,2,desert_2,1,memory-2step-stake-s,648,2081572,0.0-19.0-0.1-0.151,ALCPF5NANBDSZ,3QX22DUVPRXA8IOFTTHB0PBO5I3MV1,38JBBYETQSQGO0BHI1X73B2PDA54E9,1,2
152,2,object_09,object_05,19.210000000196,3,2,433.15500000049,0.4444444444444444,1,object_10,1,2045,0,4,2,forest_5,1,memory-2step-stake-s,649,2089613,0.0-19.0-0.1-0.152,ALCPF5NANBDSZ,3QX22DUVPRXA8IOFTTHB0PBO5I3MV1,38JBBYETQSQGO0BHI1X73B2PDA54E9,4,3
153,4,object_07,object_04,361.8749999986,8,1,319.12999999989,0.2222222222222222,2,object_01,5,2055,0,5,2,restaurant_7,1,memory-2step-stake-s,650,2097340,0.0-19.0-0.1-0.153,ALCPF5NANBDSZ,3QX22DUVPRXA8IOFTTHB0PBO5I3MV1,38JBBYETQSQGO0BHI1X73B2PDA54E9,8,7
154,3,object_03,object_08,442.83999999939,6,2,335.50499999896,0.2222222222222222,2,object_01,5,2065,0,8,2,library_2,1,memory-2step-stake-s,651,2105084,0.0-19.0-0.1-0.154,ALCPF5NANBDSZ,3QX22DUVPRXA8IOFTTHB0PBO5I3MV1,38JBBYETQSQGO0BHI1X73B2PDA54E9,5,6
155,1,object_06,object_02,618.76000000117,1,2,695.65000000177,0.6666666666666666,1,object_10,5,2095,0,6,2,desert_7,1,memory-2step-stake-s,652,2113591,0.0-19.0-0.1-0.155,ALCPF5NANBDSZ,3QX22DUVPRXA8IOFTTHB0PBO5I3MV1,38JBBYETQSQGO0BHI1X73B2PDA54E9,2,1
156,3,object_08,object_03,264.72499999916,6,1,589.8049999997,0.1111111111111111,2,object_01,5,2100,0,5,1,library_3,1,memory-2step-stake-s,653,2121488,0.0-19.0-0.1-0.156,ALCPF5NANBDSZ,3QX22DUVPRXA8IOFTTHB0PBO5I3MV1,38JBBYETQSQGO0BHI1X73B2PDA54E9,6,5
157,1,object_06,object_02,159.24499999871,1,2,380.13000000129,0.7777777777777778,1,object_10,1,2107,0,7,2,desert_5,1,memory-2step-stake-s,654,2129777,0.0-19.0-0.1-0.157,ALCPF5NANBDSZ,3QX22DUVPRXA8IOFTTHB0PBO5I3MV1,38JBBYETQSQGO0BHI1X73B2PDA54E9,2,1
158,2,object_09,object_05,221.0549999997,3,2,434.75500000035,0.8888888888888888,1,object_10,1,2115,0,8,2,forest_6,1,memory-2step-stake-s,655,2138222,0.0-19.0-0.1-0.158,ALCPF5NANBDSZ,3QX22DUVPRXA8IOFTTHB0PBO5I3MV1,38JBBYETQSQGO0BHI1X73B2PDA54E9,4,3
159,1,object_06,object_02,329.40000000084,2,1,390.75000000047,0.1111111111111111,2,object_01,1,2116,0,7,1,desert_7,1,memory-2step-stake-s,656,2145920,0.0-19.0-0.1-0.159,ALCPF5NANBDSZ,3QX22DUVPRXA8IOFTTHB0PBO5I3MV1,38JBBYETQSQGO0BHI1X73B2PDA54E9,2,1
160,4,object_04,object_07,22.619999999646,8,2,435.96500000078,0.2222222222222222,2,object_01,5,2126,0,7,2,restaurant_1,1,memory-2step-stake-s,657,2153764,0.0-19.0-0.1-0.160,ALCPF5NANBDSZ,3QX22DUVPRXA8IOFTTHB0PBO5I3MV1,38JBBYETQSQGO0BHI1X73B2PDA54E9,7,8
161,2,object_05,object_09,195.41000000061,3,1,375.89499999909,0.8888888888888888,1,object_10,1,2134,0,8,2,forest_8,1,memory-2step-stake-s,658,2162150,0.0-19.0-0.1-0.161,ALCPF5NANBDSZ,3QX22DUVPRXA8IOFTTHB0PBO5I3MV1,38JBBYETQSQGO0BHI1X73B2PDA54E9,3,4
162,2,object_09,object_05,465.39000000106,4,1,351.27499999944,0.1111111111111111,2,object_01,1,2135,0,4,1,forest_5,1,memory-2step-stake-s,659,2169808,0.0-19.0-0.1-0.162,ALCPF5NANBDSZ,3QX22DUVPRXA8IOFTTHB0PBO5I3MV1,38JBBYETQSQGO0BHI1X73B2PDA54E9,4,3
163,3,object_03,object_08,534.84000000032,6,2,411.49000000022,0.1111111111111111,2,object_01,5,2140,0,6,1,library_2,1,memory-2step-stake-s,660,2177527,0.0-19.0-0.1-0.163,ALCPF5NANBDSZ,3QX22DUVPRXA8IOFTTHB0PBO5I3MV1,38JBBYETQSQGO0BHI1X73B2PDA54E9,5,6
164,3,object_08,object_03,295.875,6,1,380.15999999875,0.1111111111111111,2,object_01,5,2145,0,3,1,library_2,1,memory-2step-stake-s,661,2185215,0.0-19.0-0.1-0.164,ALCPF5NANBDSZ,3QX22DUVPRXA8IOFTTHB0PBO5I3MV1,38JBBYETQSQGO0BHI1X73B2PDA54E9,6,5
165,4,object_04,object_07,591.89000000153,8,2,348.29499999993,0.1111111111111111,2,object_01,1,2146,0,1,1,restaurant_7,1,memory-2step-stake-s,662,2192871,0.0-19.0-0.1-0.165,ALCPF5NANBDSZ,3QX22DUVPRXA8IOFTTHB0PBO5I3MV1,38JBBYETQSQGO0BHI1X73B2PDA54E9,7,8
166,2,object_05,object_09,775.98000000045,3,1,348.1549999998,0.2222222222222222,1,object_10,1,2148,0,2,2,forest_6,1,memory-2step-stake-s,663,2200628,0.0-19.0-0.1-0.166,ALCPF5NANBDSZ,3QX22DUVPRXA8IOFTTHB0PBO5I3MV1,38JBBYETQSQGO0BHI1X73B2PDA54E9,3,4
167,3,object_08,object_03,291.23000000091,5,2,336.83999999985,0.3333333333333333,1,object_10,5,2163,0,3,1,library_8,1,memory-2step-stake-s,664,2208472,0.0-19.0-0.1-0.167,ALCPF5NANBDSZ,3QX22DUVPRXA8IOFTTHB0PBO5I3MV1,38JBBYETQSQGO0BHI1X73B2PDA54E9,6,5
168,1,object_06,object_02,518.96500000078,2,1,363.55999999959,0.3333333333333333,2,object_01,1,2166,0,4,3,desert_7,1,memory-2step-stake-s,665,2216344,0.0-19.0-0.1-0.168,ALCPF5NANBDSZ,3QX22DUVPRXA8IOFTTHB0PBO5I3MV1,38JBBYETQSQGO0BHI1X73B2PDA54E9,2,1
169,4,object_07,object_04,367.14500000002,7,2,1469.5550000016,0.1111111111111111,1,object_10,5,2171,0,1,8,restaurant_5,1,memory-2step-stake-s,666,2225120,0.0-19.0-0.1-0.169,ALCPF5NANBDSZ,3QX22DUVPRXA8IOFTTHB0PBO5I3MV1,38JBBYETQSQGO0BHI1X73B2PDA54E9,8,7
170,1,object_02,object_06,294.97999999858,1,1,387.35500000091,0.2222222222222222,1,object_10,1,2173,0,2,9,desert_7,1,memory-2step-stake-s,667,2232915,0.0-19.0-0.1-0.170,ALCPF5NANBDSZ,3QX22DUVPRXA8IOFTTHB0PBO5I3MV1,38JBBYETQSQGO0BHI1X73B2PDA54E9,1,2
171,2,object_09,object_05,219.43500000052,3,2,304.85999999987,0.5555555555555556,1,object_10,1,2178,0,5,7,forest_2,1,memory-2step-stake-s,668,2240929,0.0-19.0-0.1-0.171,ALCPF5NANBDSZ,3QX22DUVPRXA8IOFTTHB0PBO5I3MV1,38JBBYETQSQGO0BHI1X73B2PDA54E9,4,3
172,1,object_06,object_02,549.95000000065,1,2,315.0299999998,0.6666666666666666,1,object_10,5,2208,0,6,8,desert_2,1,memory-2step-stake-s,669,2249054,0.0-19.0-0.1-0.172,ALCPF5NANBDSZ,3QX22DUVPRXA8IOFTTHB0PBO5I3MV1,38JBBYETQSQGO0BHI1X73B2PDA54E9,2,1
173,2,object_05,object_09,536.42500000028,3,1,469.8900000006,0.7777777777777778,1,object_10,5,2243,0,7,6,forest_2,1,memory-2step-stake-s,670,2257434,0.0-19.0-0.1-0.173,ALCPF5NANBDSZ,3QX22DUVPRXA8IOFTTHB0PBO5I3MV1,38JBBYETQSQGO0BHI1X73B2PDA54E9,3,4
174,4,object_04,object_07,461.44500000076,8,2,330.89000000106,0.6666666666666666,2,object_01,5,2273,0,8,6,restaurant_1,1,memory-2step-stake-s,671,2265574,0.0-19.0-0.1-0.174,ALCPF5NANBDSZ,3QX22DUVPRXA8IOFTTHB0PBO5I3MV1,38JBBYETQSQGO0BHI1X73B2PDA54E9,7,8
175,3,object_03,object_08,440.75,6,2,285.50499999989,0.5555555555555556,2,object_01,5,2298,0,8,5,library_8,1,memory-2step-stake-s,672,2273569,0.0-19.0-0.1-0.175,ALCPF5NANBDSZ,3QX22DUVPRXA8IOFTTHB0PBO5I3MV1,38JBBYETQSQGO0BHI1X73B2PDA54E9,5,6
176,1,object_02,object_06,246.07000000123,1,1,378.50000000047,0.5555555555555556,1,object_10,1,2303,0,5,7,desert_3,1,memory-2step-stake-s,673,2281657,0.0-19.0-0.1-0.176,ALCPF5NANBDSZ,3QX22DUVPRXA8IOFTTHB0PBO5I3MV1,38JBBYETQSQGO0BHI1X73B2PDA54E9,1,2
177,1,object_02,object_06,13.199999999255,2,2,323.1099999994,0.7777777777777778,2,object_01,1,2310,0,6,7,desert_7,1,memory-2step-stake-s,674,2289890,0.0-19.0-0.1-0.177,ALCPF5NANBDSZ,3QX22DUVPRXA8IOFTTHB0PBO5I3MV1,38JBBYETQSQGO0BHI1X73B2PDA54E9,1,2
178,3,object_03,object_08,396.49500000104,5,1,305.85499999858,0.5555555555555556,1,object_10,5,2335,0,5,5,library_4,1,memory-2step-stake-s,675,2297906,0.0-19.0-0.1-0.178,ALCPF5NANBDSZ,3QX22DUVPRXA8IOFTTHB0PBO5I3MV1,38JBBYETQSQGO0BHI1X73B2PDA54E9,5,6
179,3,object_03,object_08,293.24000000069,6,2,458.54499999946,0.4444444444444444,2,object_01,5,2355,0,7,4,library_2,1,memory-2step-stake-s,676,2305972,0.0-19.0-0.1-0.179,ALCPF5NANBDSZ,3QX22DUVPRXA8IOFTTHB0PBO5I3MV1,38JBBYETQSQGO0BHI1X73B2PDA54E9,5,6
180,3,object_03,object_08,122.48499999987,5,1,456.14000000013,0.6666666666666666,1,object_10,5,2385,0,6,2,library_3,1,memory-2step-stake-s,677,2314238,0.0-19.0-0.1-0.180,ALCPF5NANBDSZ,3QX22DUVPRXA8IOFTTHB0PBO5I3MV1,38JBBYETQSQGO0BHI1X73B2PDA54E9,5,6
181,4,object_04,object_07,224.43000000017,7,1,285.98500000034,0.6666666666666666,1,object_10,1,2391,0,6,1,restaurant_1,1,memory-2step-stake-s,678,2322333,0.0-19.0-0.1-0.181,ALCPF5NANBDSZ,3QX22DUVPRXA8IOFTTHB0PBO5I3MV1,38JBBYETQSQGO0BHI1X73B2PDA54E9,7,8
182,4,object_07,object_04,737.78999999957,8,1,310.67500000028,0.2222222222222222,2,object_01,5,2401,0,7,2,restaurant_5,1,memory-2step-stake-s,679,2330052,0.0-19.0-0.1-0.182,ALCPF5NANBDSZ,3QX22DUVPRXA8IOFTTHB0PBO5I3MV1,38JBBYETQSQGO0BHI1X73B2PDA54E9,8,7
183,1,object_06,object_02,426.1399999992,1,2,287.42499999842,0.6666666666666666,1,object_10,5,2431,0,6,3,desert_5,1,memory-2step-stake-s,680,2338149,0.0-19.0-0.1-0.183,ALCPF5NANBDSZ,3QX22DUVPRXA8IOFTTHB0PBO5I3MV1,38JBBYETQSQGO0BHI1X73B2PDA54E9,2,1
184,4,object_04,object_07,386.14999999851,8,2,287.34000000078,0.4444444444444444,2,object_01,5,2451,0,8,4,restaurant_7,1,memory-2step-stake-s,681,2346044,0.0-19.0-0.1-0.184,ALCPF5NANBDSZ,3QX22DUVPRXA8IOFTTHB0PBO5I3MV1,38JBBYETQSQGO0BHI1X73B2PDA54E9,7,8
185,2,object_05,object_09,546.8049999997,4,2,247.99000000022,0.7777777777777778,2,object_01,5,2486,0,9,7,forest_6,1,memory-2step-stake-s,682,2354202,0.0-19.0-0.1-0.185,ALCPF5NANBDSZ,3QX22DUVPRXA8IOFTTHB0PBO5I3MV1,38JBBYETQSQGO0BHI1X73B2PDA54E9,3,4
186,2,object_09,object_05,597.0400000005,4,1,338.43499999959,0.8888888888888888,2,object_01,1,2494,0,7,8,forest_2,1,memory-2step-stake-s,683,2362550,0.0-19.0-0.1-0.186,ALCPF5NANBDSZ,3QX22DUVPRXA8IOFTTHB0PBO5I3MV1,38JBBYETQSQGO0BHI1X73B2PDA54E9,4,3
187,2,object_09,object_05,273.07499999925,3,2,311.08999999939,0.5555555555555556,1,object_10,1,2499,0,5,7,forest_6,1,memory-2step-stake-s,684,2370568,0.0-19.0-0.1-0.187,ALCPF5NANBDSZ,3QX22DUVPRXA8IOFTTHB0PBO5I3MV1,38JBBYETQSQGO0BHI1X73B2PDA54E9,4,3
188,2,object_05,object_09,310.25999999978,3,1,308.00500000082,0.5555555555555556,1,object_10,5,2524,0,5,6,forest_6,1,memory-2step-stake-s,685,2378585,0.0-19.0-0.1-0.188,ALCPF5NANBDSZ,3QX22DUVPRXA8IOFTTHB0PBO5I3MV1,38JBBYETQSQGO0BHI1X73B2PDA54E9,3,4
189,1,object_02,object_06,269.5699999989,2,2,385.92500000028,0.7777777777777778,2,object_01,1,2531,0,8,7,desert_7,1,memory-2step-stake-s,686,2386882,0.0-19.0-0.1-0.189,ALCPF5NANBDSZ,3QX22DUVPRXA8IOFTTHB0PBO5I3MV1,38JBBYETQSQGO0BHI1X73B2PDA54E9,1,2
190,1,object_02,object_06,300.45999999857,2,2,297.7649999992,0.6666666666666666,2,object_01,1,2537,0,9,6,desert_3,1,memory-2step-stake-s,687,2394989,0.0-19.0-0.1-0.190,ALCPF5NANBDSZ,3QX22DUVPRXA8IOFTTHB0PBO5I3MV1,38JBBYETQSQGO0BHI1X73B2PDA54E9,1,2
191,2,object_09,object_05,273.58999999892,4,1,302.98000000045,0.2222222222222222,2,object_01,1,2539,0,9,2,forest_5,1,memory-2step-stake-s,688,2402700,0.0-19.0-0.1-0.191,ALCPF5NANBDSZ,3QX22DUVPRXA8IOFTTHB0PBO5I3MV1,38JBBYETQSQGO0BHI1X73B2PDA54E9,4,3
192,4,object_04,object_07,274.29499999946,8,2,343.68500000006,0.0,2,object_01,5,2539,0,8,0,restaurant_7,1,memory-2step-stake-s,689,2410251,0.0-19.0-0.1-0.192,ALCPF5NANBDSZ,3QX22DUVPRXA8IOFTTHB0PBO5I3MV1,38JBBYETQSQGO0BHI1X73B2PDA54E9,7,8
193,1,object_02,object_06,380.29999999888,1,1,321.45499999961,1.0,1,object_10,1,2548,0,9,2,desert_3,1,memory-2step-stake-s,690,2418682,0.0-19.0-0.1-0.193,ALCPF5NANBDSZ,3QX22DUVPRXA8IOFTTHB0PBO5I3MV1,38JBBYETQSQGO0BHI1X73B2PDA54E9,1,2
194,2,object_05,object_09,508.86999999965,4,2,458.12499999953,0.4444444444444444,2,object_01,1,2552,0,8,4,forest_6,1,memory-2step-stake-s,691,2426749,0.0-19.0-0.1-0.194,ALCPF5NANBDSZ,3QX22DUVPRXA8IOFTTHB0PBO5I3MV1,38JBBYETQSQGO0BHI1X73B2PDA54E9,3,4
195,4,object_07,object_04,441.76999999955,8,1,358.84499999881,0.2222222222222222,2,object_01,5,2562,0,9,2,restaurant_7,1,memory-2step-stake-s,692,2434515,0.0-19.0-0.1-0.195,ALCPF5NANBDSZ,3QX22DUVPRXA8IOFTTHB0PBO5I3MV1,38JBBYETQSQGO0BHI1X73B2PDA54E9,8,7
196,3,object_03,object_08,291.47500000009,6,2,200.96499999985,0.3333333333333333,2,object_01,5,2577,0,7,3,library_2,1,memory-2step-stake-s,693,2442224,0.0-19.0-0.1-0.196,ALCPF5NANBDSZ,3QX22DUVPRXA8IOFTTHB0PBO5I3MV1,38JBBYETQSQGO0BHI1X73B2PDA54E9,5,6
197,3,object_03,object_08,286.49500000058,5,1,372.88500000071,0.6666666666666666,1,object_10,5,2607,0,6,2,library_2,1,memory-2step-stake-s,694,2450405,0.0-19.0-0.1-0.197,ALCPF5NANBDSZ,3QX22DUVPRXA8IOFTTHB0PBO5I3MV1,38JBBYETQSQGO0BHI1X73B2PDA54E9,5,6
198,3,object_03,object_08,329.51500000106,6,2,406.77999999933,0.1111111111111111,2,object_01,1,2608,0,7,1,library_4,1,memory-2step-stake-s,695,2458120,0.0-19.0-0.1-0.198,ALCPF5NANBDSZ,3QX22DUVPRXA8IOFTTHB0PBO5I3MV1,38JBBYETQSQGO0BHI1X73B2PDA54E9,5,6
199,1,object_02,object_06,335.25499999989,1,1,396.39000000013,0.7777777777777778,1,object_10,1,2615,0,7,2,desert_3,1,memory-2step-stake-s,696,2466425,0.0-19.0-0.1-0.199,ALCPF5NANBDSZ,3QX22DUVPRXA8IOFTTHB0PBO5I3MV1,38JBBYETQSQGO0BHI1X73B2PDA54E9,1,2
200,2,object_05,object_09,286.1100000008,4,2,323.96999999927,0.2222222222222222,2,object_01,1,2617,0,8,2,forest_2,1,memory-2step-stake-s,697,2474156,0.0-19.0-0.1-0.200,ALCPF5NANBDSZ,3QX22DUVPRXA8IOFTTHB0PBO5I3MV1,38JBBYETQSQGO0BHI1X73B2PDA54E9,3,4
201,2,object_05,object_09,242.57500000065,3,1,271.74000000022,0.7777777777777778,1,object_10,5,2652,0,7,2,forest_8,1,memory-2step-stake-s,698,2482339,0.0-19.0-0.1-0.201,ALCPF5NANBDSZ,3QX22DUVPRXA8IOFTTHB0PBO5I3MV1,38JBBYETQSQGO0BHI1X73B2PDA54E9,3,4
202,1,object_06,object_02,554.89999999944,1,2,527.50000000047,1.0,1,object_10,5,2697,0,9,3,desert_5,1,memory-2step-stake-s,699,2490978,0.0-19.0-0.1-0.202,ALCPF5NANBDSZ,3QX22DUVPRXA8IOFTTHB0PBO5I3MV1,38JBBYETQSQGO0BHI1X73B2PDA54E9,2,1
203,4,object_07,object_04,452.7099999995,8,1,450.08500000043,0.3333333333333333,2,object_01,5,2712,0,7,3,restaurant_1,1,memory-2step-stake-s,700,2498936,0.0-19.0-0.1-0.203,ALCPF5NANBDSZ,3QX22DUVPRXA8IOFTTHB0PBO5I3MV1,38JBBYETQSQGO0BHI1X73B2PDA54E9,8,7
204,2,object_09,object_05,270.73000000045,3,2,10.775000000373,0.4444444444444444,1,object_10,1,2716,0,4,1,forest_6,1,memory-2step-stake-s,701,2506556,0.0-19.0-0.1-0.204,ALCPF5NANBDSZ,3QX22DUVPRXA8IOFTTHB0PBO5I3MV1,38JBBYETQSQGO0BHI1X73B2PDA54E9,4,3
205,1,object_06,object_02,91.01500000013,2,1,296.52000000002,0.0,2,object_01,1,2716,0,5,0,desert_2,1,memory-2step-stake-s,702,2514059,0.0-19.0-0.1-0.205,ALCPF5NANBDSZ,3QX22DUVPRXA8IOFTTHB0PBO5I3MV1,38JBBYETQSQGO0BHI1X73B2PDA54E9,2,1
206,2,object_05,object_09,259.8049999997,4,2,304.06499999994,0.5555555555555556,2,object_01,1,2721,0,5,5,forest_5,1,memory-2step-stake-s,703,2522073,0.0-19.0-0.1-0.206,ALCPF5NANBDSZ,3QX22DUVPRXA8IOFTTHB0PBO5I3MV1,38JBBYETQSQGO0BHI1X73B2PDA54E9,3,4
207,3,object_08,object_03,478.01000000071,6,1,387.6400000006,0.6666666666666666,2,object_01,5,2751,0,5,6,library_4,1,memory-2step-stake-s,704,2530269,0.0-19.0-0.1-0.207,ALCPF5NANBDSZ,3QX22DUVPRXA8IOFTTHB0PBO5I3MV1,38JBBYETQSQGO0BHI1X73B2PDA54E9,6,5
208,2,object_09,object_05,434.15999999875,3,2,446.85499999998,0.3333333333333333,1,object_10,1,2754,0,3,6,forest_2,1,memory-2step-stake-s,705,2538224,0.0-19.0-0.1-0.208,ALCPF5NANBDSZ,3QX22DUVPRXA8IOFTTHB0PBO5I3MV1,38JBBYETQSQGO0BHI1X73B2PDA54E9,4,3
209,3,object_03,object_08,238.48999999976,5,1,332.2200000002,0.2222222222222222,1,object_10,5,2764,0,2,3,library_3,1,memory-2step-stake-s,706,2545964,0.0-19.0-0.1-0.209,ALCPF5NANBDSZ,3QX22DUVPRXA8IOFTTHB0PBO5I3MV1,38JBBYETQSQGO0BHI1X73B2PDA54E9,5,6
210,3,object_08,object_03,257.91000000061,5,2,1150.7450000006,0.1111111111111111,1,object_10,5,2769,0,1,1,library_4,1,memory-2step-stake-s,707,2554422,0.0-19.0-0.1-0.210,ALCPF5NANBDSZ,3QX22DUVPRXA8IOFTTHB0PBO5I3MV1,38JBBYETQSQGO0BHI1X73B2PDA54E9,6,5
211,4,object_04,object_07,479.81500000088,8,2,637.19000000134,0.3333333333333333,2,object_01,1,2772,0,2,3,restaurant_1,1,memory-2step-stake-s,708,2562568,0.0-19.0-0.1-0.211,ALCPF5NANBDSZ,3QX22DUVPRXA8IOFTTHB0PBO5I3MV1,38JBBYETQSQGO0BHI1X73B2PDA54E9,7,8
212,1,object_02,object_06,302.55000000028,1,1,379.80500000063,0.1111111111111111,1,object_10,1,2773,0,1,6,desert_2,1,memory-2step-stake-s,709,2570255,0.0-19.0-0.1-0.212,ALCPF5NANBDSZ,3QX22DUVPRXA8IOFTTHB0PBO5I3MV1,38JBBYETQSQGO0BHI1X73B2PDA54E9,1,2
213,4,object_07,object_04,263.0150000006,7,2,476.64499999862,0.2222222222222222,1,object_10,5,2783,0,2,6,restaurant_7,1,memory-2step-stake-s,710,2578139,0.0-19.0-0.1-0.213,ALCPF5NANBDSZ,3QX22DUVPRXA8IOFTTHB0PBO5I3MV1,38JBBYETQSQGO0BHI1X73B2PDA54E9,8,7
214,1,object_02,object_06,298.74000000022,1,1,376.12000000104,0.0,1,object_10,1,2783,0,0,5,desert_7,1,memory-2step-stake-s,711,2585722,0.0-19.0-0.1-0.214,ALCPF5NANBDSZ,3QX22DUVPRXA8IOFTTHB0PBO5I3MV1,38JBBYETQSQGO0BHI1X73B2PDA54E9,1,2
215,3,object_03,object_08,459.89500000002,6,2,1000.4549999991,0.7777777777777778,2,object_01,5,2818,0,1,7,library_2,1,memory-2step-stake-s,712,2594634,0.0-19.0-0.1-0.215,ALCPF5NANBDSZ,3QX22DUVPRXA8IOFTTHB0PBO5I3MV1,38JBBYETQSQGO0BHI1X73B2PDA54E9,5,6
216,2,object_09,object_05,283.53000000073,4,1,377.27500000084,0.7777777777777778,2,object_01,1,2825,0,2,7,forest_8,1,memory-2step-stake-s,713,2602921,0.0-19.0-0.1-0.216,ALCPF5NANBDSZ,3QX22DUVPRXA8IOFTTHB0PBO5I3MV1,38JBBYETQSQGO0BHI1X73B2PDA54E9,4,3
217,4,object_04,object_07,277.08499999996,8,2,290.79500000086,0.4444444444444444,2,object_01,5,2845,0,0,4,restaurant_3,1,memory-2step-stake-s,714,2610821,0.0-19.0-0.1-0.217,ALCPF5NANBDSZ,3QX22DUVPRXA8IOFTTHB0PBO5I3MV1,38JBBYETQSQGO0BHI1X73B2PDA54E9,7,8
218,1,object_06,object_02,225.33000000101,2,1,286.88499999978,0.6666666666666666,2,object_01,1,2851,0,1,6,desert_5,1,memory-2step-stake-s,715,2618916,0.0-19.0-0.1-0.218,ALCPF5NANBDSZ,3QX22DUVPRXA8IOFTTHB0PBO5I3MV1,38JBBYETQSQGO0BHI1X73B2PDA54E9,2,1
219,2,object_05,object_09,346.07500000158,4,2,312.3750000014,0.5555555555555556,2,object_01,1,2856,0,1,5,forest_8,1,memory-2step-stake-s,716,2626936,0.0-19.0-0.1-0.219,ALCPF5NANBDSZ,3QX22DUVPRXA8IOFTTHB0PBO5I3MV1,38JBBYETQSQGO0BHI1X73B2PDA54E9,3,4
220,3,object_03,object_08,277.3049999997,5,1,370.88000000035,0.1111111111111111,1,object_10,5,2861,0,1,7,library_4,1,memory-2step-stake-s,717,2634614,0.0-19.0-0.1-0.220,ALCPF5NANBDSZ,3QX22DUVPRXA8IOFTTHB0PBO5I3MV1,38JBBYETQSQGO0BHI1X73B2PDA54E9,5,6
221,4,object_04,object_07,287.90999999922,8,2,356.2799999998,1.0,2,object_01,5,2906,0,1,9,restaurant_3,1,memory-2step-stake-s,718,2643082,0.0-19.0-0.1-0.221,ALCPF5NANBDSZ,3QX22DUVPRXA8IOFTTHB0PBO5I3MV1,38JBBYETQSQGO0BHI1X73B2PDA54E9,7,8
222,2,object_05,object_09,267.67499999888,3,1,305.06500000041,0.3333333333333333,1,object_10,1,2909,0,3,8,forest_5,1,memory-2step-stake-s,719,2650897,0.0-19.0-0.1-0.222,ALCPF5NANBDSZ,3QX22DUVPRXA8IOFTTHB0PBO5I3MV1,38JBBYETQSQGO0BHI1X73B2PDA54E9,3,4
223,1,object_06,object_02,237.39999999991,1,2,362.21999999881,0.1111111111111111,1,object_10,5,2914,0,1,5,desert_5,1,memory-2step-stake-s,720,2658567,0.0-19.0-0.1-0.223,ALCPF5NANBDSZ,3QX22DUVPRXA8IOFTTHB0PBO5I3MV1,38JBBYETQSQGO0BHI1X73B2PDA54E9,2,1
224,3,object_08,object_03,382.91000000015,6,1,651.47000000067,0.8888888888888888,2,object_01,5,2954,0,3,8,library_4,1,memory-2step-stake-s,721,2667229,0.0-19.0-0.1-0.224,ALCPF5NANBDSZ,3QX22DUVPRXA8IOFTTHB0PBO5I3MV1,38JBBYETQSQGO0BHI1X73B2PDA54E9,6,5
225,4,object_07,object_04,641.28999999957,8,1,446.65999999968,0.8888888888888888,2,object_01,5,2994,0,7,8,restaurant_1,1,memory-2step-stake-s,722,2675685,0.0-19.0-0.1-0.225,ALCPF5NANBDSZ,3QX22DUVPRXA8IOFTTHB0PBO5I3MV1,38JBBYETQSQGO0BHI1X73B2PDA54E9,8,7
226,4,object_07,object_04,239.75499999849,7,2,380.42499999935,0.6666666666666666,1,object_10,5,3024,0,6,6,restaurant_3,1,memory-2step-stake-s,723,2683875,0.0-19.0-0.1-0.226,ALCPF5NANBDSZ,3QX22DUVPRXA8IOFTTHB0PBO5I3MV1,38JBBYETQSQGO0BHI1X73B2PDA54E9,8,7
227,2,object_09,object_05,394.0700000003,4,1,487.33999999939,0.8888888888888888,2,object_01,5,3064,0,4,8,forest_5,1,memory-2step-stake-s,724,2692373,0.0-19.0-0.1-0.227,ALCPF5NANBDSZ,3QX22DUVPRXA8IOFTTHB0PBO5I3MV1,38JBBYETQSQGO0BHI1X73B2PDA54E9,4,3
228,2,object_05,object_09,289.13499999931,4,2,342.74499999965,0.7777777777777778,2,object_01,1,3071,0,4,7,forest_8,1,memory-2step-stake-s,725,2700624,0.0-19.0-0.1-0.228,ALCPF5NANBDSZ,3QX22DUVPRXA8IOFTTHB0PBO5I3MV1,38JBBYETQSQGO0BHI1X73B2PDA54E9,3,4
229,4,object_04,object_07,68.254999998491,7,1,305.30000000028,0.3333333333333333,1,object_10,5,3086,0,3,6,restaurant_7,1,memory-2step-stake-s,726,2708438,0.0-19.0-0.1-0.229,ALCPF5NANBDSZ,3QX22DUVPRXA8IOFTTHB0PBO5I3MV1,38JBBYETQSQGO0BHI1X73B2PDA54E9,7,8
230,1,object_06,object_02,263.9049999998,1,2,387.6250000014,0.4444444444444444,1,object_10,1,3090,0,4,7,desert_7,1,memory-2step-stake-s,727,2716435,0.0-19.0-0.1-0.230,ALCPF5NANBDSZ,3QX22DUVPRXA8IOFTTHB0PBO5I3MV1,38JBBYETQSQGO0BHI1X73B2PDA54E9,2,1
231,1,object_06,object_02,361.39000000013,2,1,350.96499999939,1.0,2,object_01,1,3099,0,2,9,desert_2,1,memory-2step-stake-s,728,2724897,0.0-19.0-0.1-0.231,ALCPF5NANBDSZ,3QX22DUVPRXA8IOFTTHB0PBO5I3MV1,38JBBYETQSQGO0BHI1X73B2PDA54E9,2,1
232,4,object_04,object_07,123.41999999993,8,2,320.70000000019,1.0,2,object_01,5,3144,0,2,9,restaurant_3,1,memory-2step-stake-s,729,2733330,0.0-19.0-0.1-0.232,ALCPF5NANBDSZ,3QX22DUVPRXA8IOFTTHB0PBO5I3MV1,38JBBYETQSQGO0BHI1X73B2PDA54E9,7,8
233,3,object_03,object_08,291.45500000054,6,2,272.47999999952,0.8888888888888888,2,object_01,1,3152,0,4,8,library_4,1,memory-2step-stake-s,730,2741612,0.0-19.0-0.1-0.233,ALCPF5NANBDSZ,3QX22DUVPRXA8IOFTTHB0PBO5I3MV1,38JBBYETQSQGO0BHI1X73B2PDA54E9,5,6
234,4,object_04,object_07,281.26499999966,7,1,230.21499999985,0.5555555555555556,1,object_10,5,3177,0,5,9,restaurant_5,1,memory-2step-stake-s,731,2749552,0.0-19.0-0.1-0.234,ALCPF5NANBDSZ,3QX22DUVPRXA8IOFTTHB0PBO5I3MV1,38JBBYETQSQGO0BHI1X73B2PDA54E9,7,8
235,2,object_09,object_05,284.89500000048,3,2,273.82500000019,0.3333333333333333,1,object_10,1,3180,0,3,8,forest_2,1,memory-2step-stake-s,732,2757335,0.0-19.0-0.1-0.235,ALCPF5NANBDSZ,3QX22DUVPRXA8IOFTTHB0PBO5I3MV1,38JBBYETQSQGO0BHI1X73B2PDA54E9,4,3
236,3,object_03,object_08,310.21999999927,5,1,251.31499999948,0.2222222222222222,1,object_10,5,3190,0,2,8,library_3,1,memory-2step-stake-s,733,2764995,0.0-19.0-0.1-0.236,ALCPF5NANBDSZ,3QX22DUVPRXA8IOFTTHB0PBO5I3MV1,38JBBYETQSQGO0BHI1X73B2PDA54E9,5,6
237,4,object_04,object_07,234.24999999953,8,2,327.41500000004,0.7777777777777778,2,object_01,5,3225,0,3,7,restaurant_5,1,memory-2step-stake-s,734,2773232,0.0-19.0-0.1-0.237,ALCPF5NANBDSZ,3QX22DUVPRXA8IOFTTHB0PBO5I3MV1,38JBBYETQSQGO0BHI1X73B2PDA54E9,7,8
238,1,object_02,object_06,93.185000000056,2,2,297.96500000171,1.0,2,object_01,1,3234,0,2,9,desert_7,1,memory-2step-stake-s,735,2781641,0.0-19.0-0.1-0.238,ALCPF5NANBDSZ,3QX22DUVPRXA8IOFTTHB0PBO5I3MV1,38JBBYETQSQGO0BHI1X73B2PDA54E9,1,2
239,4,object_04,object_07,700.43500000052,8,2,274.14499999955,0.6666666666666666,2,object_01,5,3264,0,1,6,restaurant_7,1,memory-2step-stake-s,736,2789724,0.0-19.0-0.1-0.239,ALCPF5NANBDSZ,3QX22DUVPRXA8IOFTTHB0PBO5I3MV1,38JBBYETQSQGO0BHI1X73B2PDA54E9,7,8
240,4,object_07,object_04,448.93000000017,8,1,294.20999999857,0.5555555555555556,2,object_01,5,3289,0,2,5,restaurant_5,1,memory-2step-stake-s,737,2797727,0.0-19.0-0.1-0.240,ALCPF5NANBDSZ,3QX22DUVPRXA8IOFTTHB0PBO5I3MV1,38JBBYETQSQGO0BHI1X73B2PDA54E9,8,7
241,4,object_07,object_04,462.32499999879,8,1,339.50999999978,0.6666666666666666,2,object_01,5,3319,0,3,6,restaurant_3,1,memory-2step-stake-s,738,2805875,0.0-19.0-0.1-0.241,ALCPF5NANBDSZ,3QX22DUVPRXA8IOFTTHB0PBO5I3MV1,38JBBYETQSQGO0BHI1X73B2PDA54E9,8,7
242,3,object_03,object_08,241.72499999963,5,1,246.47500000009,0.3333333333333333,1,object_10,5,3334,0,3,7,library_2,1,memory-2step-stake-s,739,2813630,0.0-19.0-0.1-0.242,ALCPF5NANBDSZ,3QX22DUVPRXA8IOFTTHB0PBO5I3MV1,38JBBYETQSQGO0BHI1X73B2PDA54E9,5,6
243,1,object_06,object_02,582.59999999963,1,2,251.86500000022,0.0,1,object_10,1,3334,0,0,9,desert_7,1,memory-2step-stake-s,740,2821089,0.0-19.0-0.1-0.243,ALCPF5NANBDSZ,3QX22DUVPRXA8IOFTTHB0PBO5I3MV1,38JBBYETQSQGO0BHI1X73B2PDA54E9,2,1
244,4,object_04,object_07,451.90999999968,8,2,400.44999999925,0.6666666666666666,2,object_01,5,3364,0,4,6,restaurant_5,1,memory-2step-stake-s,741,2829299,0.0-19.0-0.1-0.244,ALCPF5NANBDSZ,3QX22DUVPRXA8IOFTTHB0PBO5I3MV1,38JBBYETQSQGO0BHI1X73B2PDA54E9,7,8
245,3,object_03,object_08,442.09000000032,6,2,287.14500000002,1.0,2,object_01,5,3409,0,6,9,library_8,1,memory-2step-stake-s,742,2837697,0.0-19.0-0.1-0.245,ALCPF5NANBDSZ,3QX22DUVPRXA8IOFTTHB0PBO5I3MV1,38JBBYETQSQGO0BHI1X73B2PDA54E9,5,6
246,1,object_06,object_02,388.14500000048,1,2,345.32500000019,1.0,1,object_10,1,3418,0,9,7,desert_5,1,memory-2step-stake-s,743,2846152,0.0-19.0-0.1-0.246,ALCPF5NANBDSZ,3QX22DUVPRXA8IOFTTHB0PBO5I3MV1,38JBBYETQSQGO0BHI1X73B2PDA54E9,2,1
247,4,object_07,object_04,396.52500000037,8,1,313.67500000121,0.6666666666666666,2,object_01,5,3448,0,8,6,restaurant_7,1,memory-2step-stake-s,744,2854275,0.0-19.0-0.1-0.247,ALCPF5NANBDSZ,3QX22DUVPRXA8IOFTTHB0PBO5I3MV1,38JBBYETQSQGO0BHI1X73B2PDA54E9,8,7
248,3,object_03,object_08,49.91999999946,6,2,286.96499999939,0.5555555555555556,2,object_01,5,3473,0,5,5,library_2,1,memory-2step-stake-s,745,2862270,0.0-19.0-0.1-0.248,ALCPF5NANBDSZ,3QX22DUVPRXA8IOFTTHB0PBO5I3MV1,38JBBYETQSQGO0BHI1X73B2PDA54E9,5,6
249,2,object_09,object_05,382.6500000013,4,1,403.77000000048,0.6666666666666666,2,object_01,1,3479,0,5,6,forest_8,1,memory-2step-stake-s,746,2870483,0.0-19.0-0.1-0.249,ALCPF5NANBDSZ,3QX22DUVPRXA8IOFTTHB0PBO5I3MV1,38JBBYETQSQGO0BHI1X73B2PDA54E9,4,3
250,3,object_03,object_08,402.06000000052,6,2,407.3749999986,0.8888888888888888,2,object_01,5,3519,0,3,8,library_8,1,memory-2step-stake-s,747,2878899,0.0-19.0-0.1-0.250,ALCPF5NANBDSZ,3QX22DUVPRXA8IOFTTHB0PBO5I3MV1,38JBBYETQSQGO0BHI1X73B2PDA54E9,5,6
251,3,object_03,object_08,441.94999999879,6,2,318.59500000067,0.6666666666666666,2,object_01,5,3549,0,6,6,library_3,1,memory-2step-stake-s,748,2887028,0.0-19.0-0.1-0.251,ALCPF5NANBDSZ,3QX22DUVPRXA8IOFTTHB0PBO5I3MV1,38JBBYETQSQGO0BHI1X73B2PDA54E9,5,6
252,1,object_06,object_02,208.46499999985,1,2,309.72500000102,0.4444444444444444,1,object_10,1,3553,0,4,7,desert_2,1,memory-2step-stake-s,749,2894946,0.0-19.0-0.1-0.252,ALCPF5NANBDSZ,3QX22DUVPRXA8IOFTTHB0PBO5I3MV1,38JBBYETQSQGO0BHI1X73B2PDA54E9,2,1
253,2,object_05,object_09,273.78000000166,3,1,359.05499999877,0.6666666666666666,1,object_10,1,3559,0,6,5,forest_6,1,memory-2step-stake-s,750,2903115,0.0-19.0-0.1-0.253,ALCPF5NANBDSZ,3QX22DUVPRXA8IOFTTHB0PBO5I3MV1,38JBBYETQSQGO0BHI1X73B2PDA54E9,3,4
254,3,object_08,object_03,225.70999999903,5,2,550.90500000026,0.6666666666666666,1,object_10,5,3589,0,6,4,library_3,1,memory-2step-stake-s,751,2911475,0.0-19.0-0.1-0.254,ALCPF5NANBDSZ,3QX22DUVPRXA8IOFTTHB0PBO5I3MV1,38JBBYETQSQGO0BHI1X73B2PDA54E9,6,5
255,4,object_07,object_04,233.15000000037,8,1,254.68000000017,0.4444444444444444,2,object_01,5,3609,0,9,4,restaurant_1,1,memory-2step-stake-s,752,2919338,0.0-19.0-0.1-0.255,ALCPF5NANBDSZ,3QX22DUVPRXA8IOFTTHB0PBO5I3MV1,38JBBYETQSQGO0BHI1X73B2PDA54E9,8,7
