,state1,stim_left,stim_right,rt_1,choice1,response1,rt_2,points,state2,stim_state2,stake,score,practice,rews1,rews2,background,high_arm,trial_type,trial_index,time_elapsed,internal_node_id,subid,hitid,assignmentid,stim_left_num,stim_right_num
0,3,object_06,object_05,961.59999999404,5,1,1123.0,0.6666666666666666,1,object_02,1,6,0,6,1,library_8,2,memory-2step-stake-s,496,1044798,0.0-19.0-0.0-0.0,A3DUL880Y08G95,3VGZ74AYUJWEHZMTR9OBXS32OP2GCF,3VE8AYVF8QD9DFYFPF7Q253URV68FO,5,6
1,1,object_03,object_01,892.69999998808,1,2,1074.7999999821,0.6666666666666666,1,object_02,1,12,0,6,1,desert_1,2,memory-2step-stake-s,497,1053706,0.0-19.0-0.0-0.1,A3DUL880Y08G95,3VGZ74AYUJWEHZMTR9OBXS32OP2GCF,3VE8AYVF8QD9DFYFPF7Q253URV68FO,2,1
2,4,object_10,object_04,1126.6000000238,7,2,744.5,0.7777777777777778,1,object_02,1,19,0,7,5,restaurant_8,2,memory-2step-stake-s,498,1062387,0.0-19.0-0.0-0.2,A3DUL880Y08G95,3VGZ74AYUJWEHZMTR9OBXS32OP2GCF,3VE8AYVF8QD9DFYFPF7Q253URV68FO,8,7
3,4,object_10,object_04,-1.0,-1,-1,-1.0,0.0,-,0,5,19,0,7,5,restaurant_7,2,memory-2step-stake-s,499,1068912,0.0-19.0-0.0-0.3,A3DUL880Y08G95,3VGZ74AYUJWEHZMTR9OBXS32OP2GCF,3VE8AYVF8QD9DFYFPF7Q253URV68FO,8,7
4,3,object_05,object_06,791.19999998808,6,1,722.5,1.0,2,object_08,1,28,0,7,9,library_6,2,memory-2step-stake-s,500,1077775,0.0-19.0-0.0-0.4,A3DUL880Y08G95,3VGZ74AYUJWEHZMTR9OBXS32OP2GCF,3VE8AYVF8QD9DFYFPF7Q253URV68FO,6,5
5,1,object_03,object_01,898.0,1,2,605.90000000596,0.5555555555555556,1,object_02,5,53,0,5,6,desert_2,2,memory-2step-stake-s,501,1086118,0.0-19.0-0.0-0.5,A3DUL880Y08G95,3VGZ74AYUJWEHZMTR9OBXS32OP2GCF,3VE8AYVF8QD9DFYFPF7Q253URV68FO,2,1
6,2,object_09,object_07,1095.900000006,3,2,557.5,0.6666666666666666,1,object_02,5,83,0,6,6,forest_6,2,memory-2step-stake-s,502,1094517,0.0-19.0-0.0-0.6,A3DUL880Y08G95,3VGZ74AYUJWEHZMTR9OBXS32OP2GCF,3VE8AYVF8QD9DFYFPF7Q253URV68FO,4,3
7,2,object_09,object_07,1052.6999999881,4,1,592.19999998808,0.4444444444444444,2,object_08,1,87,0,5,4,forest_1,2,memory-2step-stake-s,503,1102754,0.0-19.0-0.0-0.7,A3DUL880Y08G95,3VGZ74AYUJWEHZMTR9OBXS32OP2GCF,3VE8AYVF8QD9DFYFPF7Q253URV68FO,4,3
8,3,object_06,object_05,1025.5,6,2,754.90000000596,0.1111111111111111,2,object_08,1,88,0,1,1,library_3,2,memory-2step-stake-s,504,1110834,0.0-19.0-0.0-0.8,A3DUL880Y08G95,3VGZ74AYUJWEHZMTR9OBXS32OP2GCF,3VE8AYVF8QD9DFYFPF7Q253URV68FO,5,6
9,2,object_07,object_09,992.29999998212,3,1,1407.3999999762,0.0,1,object_02,5,88,0,0,0,forest_3,2,memory-2step-stake-s,505,1119470,0.0-19.0-0.0-0.9,A3DUL880Y08G95,3VGZ74AYUJWEHZMTR9OBXS32OP2GCF,3VE8AYVF8QD9DFYFPF7Q253URV68FO,3,4
10,2,object_09,object_07,1135.400000006,4,1,579.20000001788,0.3333333333333333,2,object_08,5,103,0,0,3,forest_2,2,memory-2step-stake-s,506,1127576,0.0-19.0-0.0-0.10,A3DUL880Y08G95,3VGZ74AYUJWEHZMTR9OBXS32OP2GCF,3VE8AYVF8QD9DFYFPF7Q253URV68FO,4,3
11,4,object_04,object_10,1029.7000000179,8,2,679.69999998808,0.4444444444444444,2,object_08,1,107,0,1,4,restaurant_2,2,memory-2step-stake-s,507,1135891,0.0-19.0-0.0-0.11,A3DUL880Y08G95,3VGZ74AYUJWEHZMTR9OBXS32OP2GCF,3VE8AYVF8QD9DFYFPF7Q253URV68FO,7,8
12,1,object_01,object_03,1037.0,2,2,603.60000002384,0.4444444444444444,2,object_08,5,127,0,0,4,desert_7,2,memory-2step-stake-s,508,1144125,0.0-19.0-0.0-0.12,A3DUL880Y08G95,3VGZ74AYUJWEHZMTR9OBXS32OP2GCF,3VE8AYVF8QD9DFYFPF7Q253URV68FO,1,2
13,4,object_04,object_10,1127.8000000119,7,1,607.90000000596,0.1111111111111111,1,object_02,1,128,0,1,2,restaurant_7,2,memory-2step-stake-s,509,1152062,0.0-19.0-0.0-0.13,A3DUL880Y08G95,3VGZ74AYUJWEHZMTR9OBXS32OP2GCF,3VE8AYVF8QD9DFYFPF7Q253URV68FO,7,8
14,3,object_06,object_05,1122.6999999881,6,2,599.5,0.1111111111111111,2,object_08,1,129,0,2,1,library_5,2,memory-2step-stake-s,510,1159992,0.0-19.0-0.0-0.14,A3DUL880Y08G95,3VGZ74AYUJWEHZMTR9OBXS32OP2GCF,3VE8AYVF8QD9DFYFPF7Q253URV68FO,5,6
15,1,object_03,object_01,1080.6000000238,1,2,633.60000002384,0.0,1,object_02,5,129,0,0,1,desert_7,2,memory-2step-stake-s,511,1167856,0.0-19.0-0.0-0.15,A3DUL880Y08G95,3VGZ74AYUJWEHZMTR9OBXS32OP2GCF,3VE8AYVF8QD9DFYFPF7Q253URV68FO,2,1
16,3,object_05,object_06,1003.6999999881,6,1,724.19999998808,0.2222222222222222,2,object_08,5,139,0,1,2,library_6,2,memory-2step-stake-s,512,1176008,0.0-19.0-0.0-0.16,A3DUL880Y08G95,3VGZ74AYUJWEHZMTR9OBXS32OP2GCF,3VE8AYVF8QD9DFYFPF7Q253URV68FO,6,5
17,1,object_01,object_03,-1.0,-1,-1,-1.0,0.0,-,0,5,139,0,2,4,desert_7,2,memory-2step-stake-s,513,1182526,0.0-19.0-0.0-0.17,A3DUL880Y08G95,3VGZ74AYUJWEHZMTR9OBXS32OP2GCF,3VE8AYVF8QD9DFYFPF7Q253URV68FO,1,2
18,2,object_07,object_09,708.40000000596,3,1,535.79999998212,0.2222222222222222,1,object_02,5,149,0,2,5,forest_2,2,memory-2step-stake-s,514,1190499,0.0-19.0-0.0-0.18,A3DUL880Y08G95,3VGZ74AYUJWEHZMTR9OBXS32OP2GCF,3VE8AYVF8QD9DFYFPF7Q253URV68FO,3,4
19,3,object_05,object_06,693.69999998808,5,2,817.29999998212,0.3333333333333333,1,object_02,1,152,0,3,4,library_8,2,memory-2step-stake-s,515,1198851,0.0-19.0-0.0-0.19,A3DUL880Y08G95,3VGZ74AYUJWEHZMTR9OBXS32OP2GCF,3VE8AYVF8QD9DFYFPF7Q253URV68FO,6,5
20,2,object_07,object_09,684.5,3,1,700.90000000596,0.1111111111111111,1,object_02,5,157,0,1,9,forest_6,2,memory-2step-stake-s,516,1206883,0.0-19.0-0.0-0.20,A3DUL880Y08G95,3VGZ74AYUJWEHZMTR9OBXS32OP2GCF,3VE8AYVF8QD9DFYFPF7Q253URV68FO,3,4
21,4,object_10,object_04,761.79999998212,7,2,521.10000002384,0.2222222222222222,1,object_02,1,159,0,2,8,restaurant_5,2,memory-2step-stake-s,517,1214830,0.0-19.0-0.0-0.21,A3DUL880Y08G95,3VGZ74AYUJWEHZMTR9OBXS32OP2GCF,3VE8AYVF8QD9DFYFPF7Q253URV68FO,8,7
22,1,object_03,object_01,1083.3999999762,2,1,542.39999997616,1.0,2,object_08,5,204,0,3,9,desert_7,2,memory-2step-stake-s,518,1223518,0.0-19.0-0.0-0.22,A3DUL880Y08G95,3VGZ74AYUJWEHZMTR9OBXS32OP2GCF,3VE8AYVF8QD9DFYFPF7Q253URV68FO,2,1
23,1,object_03,object_01,1158.3999999762,2,1,533.29999998212,0.5555555555555556,2,object_08,5,229,0,3,5,desert_5,2,memory-2step-stake-s,519,1231788,0.0-19.0-0.0-0.23,A3DUL880Y08G95,3VGZ74AYUJWEHZMTR9OBXS32OP2GCF,3VE8AYVF8QD9DFYFPF7Q253URV68FO,2,1
24,3,object_06,object_05,1295.3999999762,5,1,606.09999999404,0.4444444444444444,1,object_02,1,233,0,4,5,library_6,2,memory-2step-stake-s,520,1240024,0.0-19.0-0.0-0.24,A3DUL880Y08G95,3VGZ74AYUJWEHZMTR9OBXS32OP2GCF,3VE8AYVF8QD9DFYFPF7Q253URV68FO,5,6
25,1,object_01,object_03,920.5,2,2,545.89999997616,0.7777777777777778,2,object_08,5,268,0,3,7,desert_5,2,memory-2step-stake-s,521,1248502,0.0-19.0-0.0-0.25,A3DUL880Y08G95,3VGZ74AYUJWEHZMTR9OBXS32OP2GCF,3VE8AYVF8QD9DFYFPF7Q253URV68FO,1,2
26,4,object_10,object_04,1221.8000000119,7,2,580.5,0.4444444444444444,1,object_02,1,272,0,4,8,restaurant_7,2,memory-2step-stake-s,522,1256712,0.0-19.0-0.0-0.26,A3DUL880Y08G95,3VGZ74AYUJWEHZMTR9OBXS32OP2GCF,3VE8AYVF8QD9DFYFPF7Q253URV68FO,8,7
27,3,object_05,object_06,858.5,6,1,641.20000001788,0.5555555555555556,2,object_08,5,297,0,7,5,library_5,2,memory-2step-stake-s,523,1265087,0.0-19.0-0.0-0.27,A3DUL880Y08G95,3VGZ74AYUJWEHZMTR9OBXS32OP2GCF,3VE8AYVF8QD9DFYFPF7Q253URV68FO,6,5
28,2,object_07,object_09,987.80000001192,3,1,779.19999998808,0.8888888888888888,1,object_02,5,337,0,8,5,forest_1,2,memory-2step-stake-s,524,1273915,0.0-19.0-0.0-0.28,A3DUL880Y08G95,3VGZ74AYUJWEHZMTR9OBXS32OP2GCF,3VE8AYVF8QD9DFYFPF7Q253URV68FO,3,4
29,4,object_04,object_10,896.90000000596,7,1,536.0,0.8888888888888888,1,object_02,1,345,0,8,1,restaurant_5,2,memory-2step-stake-s,525,1282504,0.0-19.0-0.0-0.29,A3DUL880Y08G95,3VGZ74AYUJWEHZMTR9OBXS32OP2GCF,3VE8AYVF8QD9DFYFPF7Q253URV68FO,7,8
30,2,object_07,object_09,1093.6999999881,3,1,648.19999998808,0.7777777777777778,1,object_02,5,380,0,7,0,forest_3,2,memory-2step-stake-s,526,1291098,0.0-19.0-0.0-0.30,A3DUL880Y08G95,3VGZ74AYUJWEHZMTR9OBXS32OP2GCF,3VE8AYVF8QD9DFYFPF7Q253URV68FO,3,4
31,2,object_09,object_07,1056.3000000119,3,2,480.89999997616,0.8888888888888888,1,object_02,5,420,0,8,0,forest_1,2,memory-2step-stake-s,527,1299630,0.0-19.0-0.0-0.31,A3DUL880Y08G95,3VGZ74AYUJWEHZMTR9OBXS32OP2GCF,3VE8AYVF8QD9DFYFPF7Q253URV68FO,4,3
32,3,object_05,object_06,771.69999998808,5,2,623.5,1.0,1,object_02,1,429,0,9,1,library_3,2,memory-2step-stake-s,528,1308403,0.0-19.0-0.0-0.32,A3DUL880Y08G95,3VGZ74AYUJWEHZMTR9OBXS32OP2GCF,3VE8AYVF8QD9DFYFPF7Q253URV68FO,6,5
33,1,object_01,object_03,935.5,2,2,542.0,0.3333333333333333,2,object_08,5,444,0,8,3,desert_1,2,memory-2step-stake-s,529,1316483,0.0-19.0-0.0-0.33,A3DUL880Y08G95,3VGZ74AYUJWEHZMTR9OBXS32OP2GCF,3VE8AYVF8QD9DFYFPF7Q253URV68FO,1,2
34,1,object_03,object_01,1207.900000006,1,2,644.30000001192,0.5555555555555556,1,object_02,5,469,0,5,1,desert_1,2,memory-2step-stake-s,530,1324878,0.0-19.0-0.0-0.34,A3DUL880Y08G95,3VGZ74AYUJWEHZMTR9OBXS32OP2GCF,3VE8AYVF8QD9DFYFPF7Q253URV68FO,2,1
35,4,object_04,object_10,1185.5,8,2,594.59999999404,0.4444444444444444,2,object_08,1,473,0,6,4,restaurant_2,2,memory-2step-stake-s,531,1333123,0.0-19.0-0.0-0.35,A3DUL880Y08G95,3VGZ74AYUJWEHZMTR9OBXS32OP2GCF,3VE8AYVF8QD9DFYFPF7Q253URV68FO,7,8
36,1,object_03,object_01,1081.6999999881,2,1,554.0,0.5555555555555556,2,object_08,5,498,0,8,5,desert_2,2,memory-2step-stake-s,532,1341414,0.0-19.0-0.0-0.36,A3DUL880Y08G95,3VGZ74AYUJWEHZMTR9OBXS32OP2GCF,3VE8AYVF8QD9DFYFPF7Q253URV68FO,2,1
37,3,object_06,object_05,894.19999998808,6,2,489.0,0.3333333333333333,2,object_08,1,501,0,8,3,library_3,2,memory-2step-stake-s,533,1349438,0.0-19.0-0.0-0.37,A3DUL880Y08G95,3VGZ74AYUJWEHZMTR9OBXS32OP2GCF,3VE8AYVF8QD9DFYFPF7Q253URV68FO,5,6
38,4,object_04,object_10,1081.5,7,1,558.89999997616,0.7777777777777778,1,object_02,1,508,0,7,4,restaurant_5,2,memory-2step-stake-s,534,1357936,0.0-19.0-0.0-0.38,A3DUL880Y08G95,3VGZ74AYUJWEHZMTR9OBXS32OP2GCF,3VE8AYVF8QD9DFYFPF7Q253URV68FO,7,8
39,3,object_05,object_06,1017.2000000179,6,1,704.5,0.4444444444444444,2,object_08,1,512,0,8,4,library_6,2,memory-2step-stake-s,535,1366280,0.0-19.0-0.0-0.39,A3DUL880Y08G95,3VGZ74AYUJWEHZMTR9OBXS32OP2GCF,3VE8AYVF8QD9DFYFPF7Q253URV68FO,6,5
40,2,object_07,object_09,1117.6000000238,3,1,593.09999999404,1.0,1,object_02,5,557,0,9,5,forest_2,2,memory-2step-stake-s,536,1375016,0.0-19.0-0.0-0.40,A3DUL880Y08G95,3VGZ74AYUJWEHZMTR9OBXS32OP2GCF,3VE8AYVF8QD9DFYFPF7Q253URV68FO,3,4
41,2,object_09,object_07,899.40000000596,3,2,555.59999999404,0.7777777777777778,1,object_02,5,592,0,7,4,forest_6,2,memory-2step-stake-s,537,1383509,0.0-19.0-0.0-0.41,A3DUL880Y08G95,3VGZ74AYUJWEHZMTR9OBXS32OP2GCF,3VE8AYVF8QD9DFYFPF7Q253URV68FO,4,3
42,1,object_03,object_01,1399.900000006,2,1,641.70000001788,0.3333333333333333,2,object_08,5,607,0,9,3,desert_5,2,memory-2step-stake-s,538,1391683,0.0-19.0-0.0-0.42,A3DUL880Y08G95,3VGZ74AYUJWEHZMTR9OBXS32OP2GCF,3VE8AYVF8QD9DFYFPF7Q253URV68FO,2,1
43,1,object_03,object_01,970.20000001788,1,2,448.20000001788,0.5555555555555556,1,object_02,5,632,0,5,0,desert_5,2,memory-2step-stake-s,539,1399864,0.0-19.0-0.0-0.43,A3DUL880Y08G95,3VGZ74AYUJWEHZMTR9OBXS32OP2GCF,3VE8AYVF8QD9DFYFPF7Q253URV68FO,2,1
44,2,object_09,object_07,827.79999998212,3,2,946.20000001788,0.4444444444444444,1,object_02,5,652,0,4,3,forest_3,2,memory-2step-stake-s,540,1408456,0.0-19.0-0.0-0.44,A3DUL880Y08G95,3VGZ74AYUJWEHZMTR9OBXS32OP2GCF,3VE8AYVF8QD9DFYFPF7Q253URV68FO,4,3
45,2,object_09,object_07,1083.8000000119,4,1,557.79999998212,0.3333333333333333,2,object_08,5,667,0,6,3,forest_6,2,memory-2step-stake-s,541,1416542,0.0-19.0-0.0-0.45,A3DUL880Y08G95,3VGZ74AYUJWEHZMTR9OBXS32OP2GCF,3VE8AYVF8QD9DFYFPF7Q253URV68FO,4,3
46,4,object_10,object_04,943.29999998212,8,1,781.5,0.2222222222222222,2,object_08,5,677,0,7,2,restaurant_7,2,memory-2step-stake-s,542,1424760,0.0-19.0-0.0-0.46,A3DUL880Y08G95,3VGZ74AYUJWEHZMTR9OBXS32OP2GCF,3VE8AYVF8QD9DFYFPF7Q253URV68FO,8,7
47,1,object_01,object_03,1130.400000006,1,1,209.09999999404,0.7777777777777778,1,object_02,5,712,0,7,0,desert_2,2,memory-2step-stake-s,543,1432920,0.0-19.0-0.0-0.47,A3DUL880Y08G95,3VGZ74AYUJWEHZMTR9OBXS32OP2GCF,3VE8AYVF8QD9DFYFPF7Q253URV68FO,1,2
48,1,object_03,object_01,1127.7999999821,2,1,599.69999998808,0.1111111111111111,2,object_08,5,717,0,5,1,desert_7,2,memory-2step-stake-s,544,1440851,0.0-19.0-0.0-0.48,A3DUL880Y08G95,3VGZ74AYUJWEHZMTR9OBXS32OP2GCF,3VE8AYVF8QD9DFYFPF7Q253URV68FO,2,1
49,3,object_06,object_05,1196.400000006,5,1,557.09999999404,0.5555555555555556,1,object_02,1,722,0,5,2,library_3,2,memory-2step-stake-s,545,1449150,0.0-19.0-0.0-0.49,A3DUL880Y08G95,3VGZ74AYUJWEHZMTR9OBXS32OP2GCF,3VE8AYVF8QD9DFYFPF7Q253URV68FO,5,6
50,4,object_04,object_10,1056.8000000119,7,1,566.80000001192,0.4444444444444444,1,object_02,1,726,0,4,3,restaurant_5,2,memory-2step-stake-s,546,1457356,0.0-19.0-0.0-0.50,A3DUL880Y08G95,3VGZ74AYUJWEHZMTR9OBXS32OP2GCF,3VE8AYVF8QD9DFYFPF7Q253URV68FO,7,8
51,4,object_04,object_10,-1.0,-1,-1,-1.0,0.0,-,0,5,726,0,4,4,restaurant_2,2,memory-2step-stake-s,547,1463875,0.0-19.0-0.0-0.51,A3DUL880Y08G95,3VGZ74AYUJWEHZMTR9OBXS32OP2GCF,3VE8AYVF8QD9DFYFPF7Q253URV68FO,7,8
52,3,object_05,object_06,874.29999998212,5,2,563.69999998808,0.5555555555555556,1,object_02,1,731,0,5,5,library_6,2,memory-2step-stake-s,548,1472169,0.0-19.0-0.0-0.52,A3DUL880Y08G95,3VGZ74AYUJWEHZMTR9OBXS32OP2GCF,3VE8AYVF8QD9DFYFPF7Q253URV68FO,6,5
53,3,object_06,object_05,622.79999998212,5,1,491.80000001192,0.8888888888888888,1,object_02,1,739,0,8,5,library_8,2,memory-2step-stake-s,549,1480707,0.0-19.0-0.0-0.53,A3DUL880Y08G95,3VGZ74AYUJWEHZMTR9OBXS32OP2GCF,3VE8AYVF8QD9DFYFPF7Q253URV68FO,5,6
54,1,object_01,object_03,1215.5,2,2,663.90000000596,0.7777777777777778,2,object_08,5,774,0,8,7,desert_1,2,memory-2step-stake-s,550,1489305,0.0-19.0-0.0-0.54,A3DUL880Y08G95,3VGZ74AYUJWEHZMTR9OBXS32OP2GCF,3VE8AYVF8QD9DFYFPF7Q253URV68FO,1,2
55,1,object_01,object_03,1105.1999999881,1,1,561.80000001192,0.8888888888888888,1,object_02,5,814,0,8,6,desert_5,2,memory-2step-stake-s,551,1497911,0.0-19.0-0.0-0.55,A3DUL880Y08G95,3VGZ74AYUJWEHZMTR9OBXS32OP2GCF,3VE8AYVF8QD9DFYFPF7Q253URV68FO,1,2
56,3,object_05,object_06,890.5,6,1,680.40000000596,0.6666666666666666,2,object_08,1,820,0,7,6,library_6,2,memory-2step-stake-s,552,1506425,0.0-19.0-0.0-0.56,A3DUL880Y08G95,3VGZ74AYUJWEHZMTR9OBXS32OP2GCF,3VE8AYVF8QD9DFYFPF7Q253URV68FO,6,5
57,1,object_03,object_01,817.09999999404,1,2,563.09999999404,0.7777777777777778,1,object_02,5,855,0,7,8,desert_1,2,memory-2step-stake-s,553,1514921,0.0-19.0-0.0-0.57,A3DUL880Y08G95,3VGZ74AYUJWEHZMTR9OBXS32OP2GCF,3VE8AYVF8QD9DFYFPF7Q253URV68FO,2,1
58,2,object_09,object_07,913.59999999404,3,2,582.19999998808,0.8888888888888888,1,object_02,5,895,0,8,9,forest_2,2,memory-2step-stake-s,554,1523552,0.0-19.0-0.0-0.58,A3DUL880Y08G95,3VGZ74AYUJWEHZMTR9OBXS32OP2GCF,3VE8AYVF8QD9DFYFPF7Q253URV68FO,4,3
59,4,object_04,object_10,1095.1999999881,7,1,551.5,0.8888888888888888,1,object_02,5,935,0,8,8,restaurant_2,2,memory-2step-stake-s,555,1532149,0.0-19.0-0.0-0.59,A3DUL880Y08G95,3VGZ74AYUJWEHZMTR9OBXS32OP2GCF,3VE8AYVF8QD9DFYFPF7Q253URV68FO,7,8
60,2,object_07,object_09,770.79999998212,3,1,660.69999998808,0.7777777777777778,1,object_02,1,942,0,7,5,forest_3,2,memory-2step-stake-s,556,1540755,0.0-19.0-0.0-0.60,A3DUL880Y08G95,3VGZ74AYUJWEHZMTR9OBXS32OP2GCF,3VE8AYVF8QD9DFYFPF7Q253URV68FO,3,4
61,3,object_05,object_06,792.69999998808,5,2,947.90000000596,1.0,1,object_02,1,951,0,9,6,library_3,2,memory-2step-stake-s,557,1549854,0.0-19.0-0.0-0.61,A3DUL880Y08G95,3VGZ74AYUJWEHZMTR9OBXS32OP2GCF,3VE8AYVF8QD9DFYFPF7Q253URV68FO,6,5
62,3,object_05,object_06,853.29999998212,6,1,583.20000001788,0.6666666666666666,2,object_08,1,957,0,9,6,library_3,2,memory-2step-stake-s,558,1558281,0.0-19.0-0.0-0.62,A3DUL880Y08G95,3VGZ74AYUJWEHZMTR9OBXS32OP2GCF,3VE8AYVF8QD9DFYFPF7Q253URV68FO,6,5
63,1,object_03,object_01,1037.1999999881,1,2,417.69999998808,0.7777777777777778,1,object_02,5,992,0,7,6,desert_5,2,memory-2step-stake-s,559,1566643,0.0-19.0-0.0-0.63,A3DUL880Y08G95,3VGZ74AYUJWEHZMTR9OBXS32OP2GCF,3VE8AYVF8QD9DFYFPF7Q253URV68FO,2,1
64,4,object_10,object_04,714.19999998808,8,1,476.89999997616,0.4444444444444444,2,object_08,1,996,0,7,4,restaurant_7,2,memory-2step-stake-s,560,1574755,0.0-19.0-0.0-0.64,A3DUL880Y08G95,3VGZ74AYUJWEHZMTR9OBXS32OP2GCF,3VE8AYVF8QD9DFYFPF7Q253URV68FO,8,7
65,1,object_03,object_01,1075.7000000179,1,2,388.59999999404,0.8888888888888888,1,object_02,5,1036,0,8,5,desert_1,2,memory-2step-stake-s,561,1583189,0.0-19.0-0.0-0.65,A3DUL880Y08G95,3VGZ74AYUJWEHZMTR9OBXS32OP2GCF,3VE8AYVF8QD9DFYFPF7Q253URV68FO,2,1
66,2,object_07,object_09,807.79999998212,3,1,580.39999997616,0.6666666666666666,1,object_02,5,1066,0,6,3,forest_6,2,memory-2step-stake-s,562,1591630,0.0-19.0-0.0-0.66,A3DUL880Y08G95,3VGZ74AYUJWEHZMTR9OBXS32OP2GCF,3VE8AYVF8QD9DFYFPF7Q253URV68FO,3,4
67,3,object_05,object_06,761.40000000596,5,2,594.20000001788,1.0,1,object_02,1,1075,0,9,3,library_6,2,memory-2step-stake-s,563,1600366,0.0-19.0-0.0-0.67,A3DUL880Y08G95,3VGZ74AYUJWEHZMTR9OBXS32OP2GCF,3VE8AYVF8QD9DFYFPF7Q253URV68FO,6,5
68,2,object_09,object_07,746.20000001788,3,2,465.30000001192,0.8888888888888888,1,object_02,5,1115,0,8,5,forest_6,2,memory-2step-stake-s,564,1608872,0.0-19.0-0.0-0.68,A3DUL880Y08G95,3VGZ74AYUJWEHZMTR9OBXS32OP2GCF,3VE8AYVF8QD9DFYFPF7Q253URV68FO,4,3
69,1,object_03,object_01,981.60000002384,1,2,1042.3000000119,1.0,1,object_02,5,1160,0,9,5,desert_5,2,memory-2step-stake-s,565,1618057,0.0-19.0-0.0-0.69,A3DUL880Y08G95,3VGZ74AYUJWEHZMTR9OBXS32OP2GCF,3VE8AYVF8QD9DFYFPF7Q253URV68FO,2,1
70,1,object_03,object_01,984.69999998808,1,2,702.69999998808,0.8888888888888888,1,object_02,5,1200,0,8,1,desert_1,2,memory-2step-stake-s,566,1626803,0.0-19.0-0.0-0.70,A3DUL880Y08G95,3VGZ74AYUJWEHZMTR9OBXS32OP2GCF,3VE8AYVF8QD9DFYFPF7Q253URV68FO,2,1
71,4,object_10,object_04,924.90000000596,7,2,504.80000001192,0.5555555555555556,1,object_02,1,1205,0,5,3,restaurant_5,2,memory-2step-stake-s,567,1635046,0.0-19.0-0.0-0.71,A3DUL880Y08G95,3VGZ74AYUJWEHZMTR9OBXS32OP2GCF,3VE8AYVF8QD9DFYFPF7Q253URV68FO,8,7
72,4,object_04,object_10,915.19999998808,7,1,607.09999999404,0.6666666666666666,1,object_02,1,1211,0,6,7,restaurant_2,2,memory-2step-stake-s,568,1643502,0.0-19.0-0.0-0.72,A3DUL880Y08G95,3VGZ74AYUJWEHZMTR9OBXS32OP2GCF,3VE8AYVF8QD9DFYFPF7Q253URV68FO,7,8
73,4,object_10,object_04,866.5,7,2,750.09999999404,0.7777777777777778,1,object_02,1,1218,0,7,7,restaurant_8,2,memory-2step-stake-s,569,1652196,0.0-19.0-0.0-0.73,A3DUL880Y08G95,3VGZ74AYUJWEHZMTR9OBXS32OP2GCF,3VE8AYVF8QD9DFYFPF7Q253URV68FO,8,7
74,2,object_07,object_09,1178.099999994,3,1,594.5,0.8888888888888888,1,object_02,5,1258,0,8,7,forest_2,2,memory-2step-stake-s,570,1660825,0.0-19.0-0.0-0.74,A3DUL880Y08G95,3VGZ74AYUJWEHZMTR9OBXS32OP2GCF,3VE8AYVF8QD9DFYFPF7Q253URV68FO,3,4
75,4,object_10,object_04,990.80000001192,7,2,459.29999998212,0.4444444444444444,1,object_02,5,1278,0,4,6,restaurant_2,2,memory-2step-stake-s,571,1668916,0.0-19.0-0.0-0.75,A3DUL880Y08G95,3VGZ74AYUJWEHZMTR9OBXS32OP2GCF,3VE8AYVF8QD9DFYFPF7Q253URV68FO,8,7
76,3,object_05,object_06,1449.3000000119,6,1,540.5,0.6666666666666666,2,object_08,1,1284,0,1,6,library_5,2,memory-2step-stake-s,572,1677295,0.0-19.0-0.0-0.76,A3DUL880Y08G95,3VGZ74AYUJWEHZMTR9OBXS32OP2GCF,3VE8AYVF8QD9DFYFPF7Q253URV68FO,6,5
77,1,object_01,object_03,-1.0,-1,-1,-1.0,0.0,-,0,5,1284,0,3,9,desert_7,2,memory-2step-stake-s,573,1683817,0.0-19.0-0.0-0.77,A3DUL880Y08G95,3VGZ74AYUJWEHZMTR9OBXS32OP2GCF,3VE8AYVF8QD9DFYFPF7Q253URV68FO,1,2
78,1,object_01,object_03,445.19999998808,1,1,502.5,0.2222222222222222,1,object_02,1,1286,0,2,7,desert_2,2,memory-2step-stake-s,574,1691758,0.0-19.0-0.0-0.78,A3DUL880Y08G95,3VGZ74AYUJWEHZMTR9OBXS32OP2GCF,3VE8AYVF8QD9DFYFPF7Q253URV68FO,1,2
79,4,object_04,object_10,756.69999998808,7,1,496.10000002384,0.1111111111111111,1,object_02,1,1287,0,1,8,restaurant_2,2,memory-2step-stake-s,575,1699592,0.0-19.0-0.0-0.79,A3DUL880Y08G95,3VGZ74AYUJWEHZMTR9OBXS32OP2GCF,3VE8AYVF8QD9DFYFPF7Q253URV68FO,7,8
80,2,object_09,object_07,831.90000000596,4,1,400.5,0.8888888888888888,2,object_08,1,1295,0,0,8,forest_3,2,memory-2step-stake-s,576,1708036,0.0-19.0-0.0-0.80,A3DUL880Y08G95,3VGZ74AYUJWEHZMTR9OBXS32OP2GCF,3VE8AYVF8QD9DFYFPF7Q253URV68FO,4,3
81,1,object_03,object_01,835.80000001192,2,1,369.80000001192,0.8888888888888888,2,object_08,5,1335,0,2,8,desert_7,2,memory-2step-stake-s,577,1716446,0.0-19.0-0.0-0.81,A3DUL880Y08G95,3VGZ74AYUJWEHZMTR9OBXS32OP2GCF,3VE8AYVF8QD9DFYFPF7Q253URV68FO,2,1
82,1,object_01,object_03,999.39999997616,2,2,474.89999997616,0.8888888888888888,2,object_08,1,1343,0,1,8,desert_5,2,memory-2step-stake-s,578,1724964,0.0-19.0-0.0-0.82,A3DUL880Y08G95,3VGZ74AYUJWEHZMTR9OBXS32OP2GCF,3VE8AYVF8QD9DFYFPF7Q253URV68FO,1,2
83,4,object_10,object_04,721.30000001192,8,1,377.30000001192,0.8888888888888888,2,object_08,1,1351,0,1,8,restaurant_8,2,memory-2step-stake-s,579,1733380,0.0-19.0-0.0-0.83,A3DUL880Y08G95,3VGZ74AYUJWEHZMTR9OBXS32OP2GCF,3VE8AYVF8QD9DFYFPF7Q253URV68FO,8,7
84,4,object_04,object_10,901.29999998212,7,1,490.70000001788,0.3333333333333333,1,object_02,1,1354,0,3,8,restaurant_8,2,memory-2step-stake-s,580,1741401,0.0-19.0-0.0-0.84,A3DUL880Y08G95,3VGZ74AYUJWEHZMTR9OBXS32OP2GCF,3VE8AYVF8QD9DFYFPF7Q253URV68FO,7,8
85,1,object_03,object_01,939.59999999404,2,1,541.70000001788,0.5555555555555556,2,object_08,5,1379,0,2,5,desert_7,2,memory-2step-stake-s,581,1749678,0.0-19.0-0.0-0.85,A3DUL880Y08G95,3VGZ74AYUJWEHZMTR9OBXS32OP2GCF,3VE8AYVF8QD9DFYFPF7Q253URV68FO,2,1
86,2,object_07,object_09,1024.900000006,4,2,421.09999999404,0.5555555555555556,2,object_08,1,1384,0,3,5,forest_3,2,memory-2step-stake-s,582,1757837,0.0-19.0-0.0-0.86,A3DUL880Y08G95,3VGZ74AYUJWEHZMTR9OBXS32OP2GCF,3VE8AYVF8QD9DFYFPF7Q253URV68FO,3,4
87,3,object_06,object_05,854.79999998212,6,2,525.90000000596,0.7777777777777778,2,object_08,1,1391,0,2,7,library_5,2,memory-2step-stake-s,583,1766308,0.0-19.0-0.0-0.87,A3DUL880Y08G95,3VGZ74AYUJWEHZMTR9OBXS32OP2GCF,3VE8AYVF8QD9DFYFPF7Q253URV68FO,5,6
88,4,object_10,object_04,1082.2999999821,8,1,605.0,0.6666666666666666,2,object_08,1,1397,0,7,6,restaurant_5,2,memory-2step-stake-s,584,1774751,0.0-19.0-0.0-0.88,A3DUL880Y08G95,3VGZ74AYUJWEHZMTR9OBXS32OP2GCF,3VE8AYVF8QD9DFYFPF7Q253URV68FO,8,7
89,4,object_10,object_04,791.80000001192,8,1,663.5,0.2222222222222222,2,object_08,5,1407,0,7,2,restaurant_7,2,memory-2step-stake-s,585,1782841,0.0-19.0-0.0-0.89,A3DUL880Y08G95,3VGZ74AYUJWEHZMTR9OBXS32OP2GCF,3VE8AYVF8QD9DFYFPF7Q253URV68FO,8,7
90,3,object_05,object_06,707.39999997616,5,2,481.5,0.8888888888888888,1,object_02,1,1415,0,8,3,library_8,2,memory-2step-stake-s,586,1791369,0.0-19.0-0.0-0.90,A3DUL880Y08G95,3VGZ74AYUJWEHZMTR9OBXS32OP2GCF,3VE8AYVF8QD9DFYFPF7Q253URV68FO,6,5
91,1,object_01,object_03,927.09999999404,1,1,440.30000001192,0.3333333333333333,1,object_02,1,1418,0,3,4,desert_1,2,memory-2step-stake-s,587,1799348,0.0-19.0-0.0-0.91,A3DUL880Y08G95,3VGZ74AYUJWEHZMTR9OBXS32OP2GCF,3VE8AYVF8QD9DFYFPF7Q253URV68FO,1,2
92,4,object_10,object_04,816.20000001788,8,1,420.40000000596,0.4444444444444444,2,object_08,1,1422,0,5,4,restaurant_2,2,memory-2step-stake-s,588,1807412,0.0-19.0-0.0-0.92,A3DUL880Y08G95,3VGZ74AYUJWEHZMTR9OBXS32OP2GCF,3VE8AYVF8QD9DFYFPF7Q253URV68FO,8,7
93,4,object_10,object_04,709.5,8,1,503.79999998212,0.1111111111111111,2,object_08,1,1423,0,5,1,restaurant_8,2,memory-2step-stake-s,589,1815241,0.0-19.0-0.0-0.93,A3DUL880Y08G95,3VGZ74AYUJWEHZMTR9OBXS32OP2GCF,3VE8AYVF8QD9DFYFPF7Q253URV68FO,8,7
94,2,object_07,object_09,988.0,3,1,466.20000001788,0.2222222222222222,1,object_02,5,1433,0,2,3,forest_1,2,memory-2step-stake-s,590,1823135,0.0-19.0-0.0-0.94,A3DUL880Y08G95,3VGZ74AYUJWEHZMTR9OBXS32OP2GCF,3VE8AYVF8QD9DFYFPF7Q253URV68FO,3,4
95,1,object_03,object_01,1082.7000000179,2,1,505.09999999404,0.4444444444444444,2,object_08,5,1453,0,2,4,desert_7,2,memory-2step-stake-s,591,1831278,0.0-19.0-0.0-0.95,A3DUL880Y08G95,3VGZ74AYUJWEHZMTR9OBXS32OP2GCF,3VE8AYVF8QD9DFYFPF7Q253URV68FO,2,1
96,2,object_07,object_09,1067.8999999762,4,2,469.70000001788,0.3333333333333333,2,object_08,5,1468,0,0,3,forest_3,2,memory-2step-stake-s,592,1839279,0.0-19.0-0.0-0.96,A3DUL880Y08G95,3VGZ74AYUJWEHZMTR9OBXS32OP2GCF,3VE8AYVF8QD9DFYFPF7Q253URV68FO,3,4
97,4,object_10,object_04,512.5,8,1,317.0,0.2222222222222222,2,object_08,1,1470,0,1,2,restaurant_8,2,memory-2step-stake-s,593,1847022,0.0-19.0-0.0-0.97,A3DUL880Y08G95,3VGZ74AYUJWEHZMTR9OBXS32OP2GCF,3VE8AYVF8QD9DFYFPF7Q253URV68FO,8,7
98,2,object_09,object_07,716.89999997616,3,2,500.90000000596,0.2222222222222222,1,object_02,5,1480,0,2,3,forest_3,2,memory-2step-stake-s,594,1854948,0.0-19.0-0.0-0.98,A3DUL880Y08G95,3VGZ74AYUJWEHZMTR9OBXS32OP2GCF,3VE8AYVF8QD9DFYFPF7Q253URV68FO,4,3
99,3,object_05,object_06,767.60000002384,6,1,386.39999997616,0.5555555555555556,2,object_08,1,1485,0,2,5,library_8,2,memory-2step-stake-s,595,1863068,0.0-19.0-0.0-0.99,A3DUL880Y08G95,3VGZ74AYUJWEHZMTR9OBXS32OP2GCF,3VE8AYVF8QD9DFYFPF7Q253URV68FO,6,5
100,2,object_07,object_09,969.90000000596,4,2,693.29999998212,0.8888888888888888,2,object_08,5,1525,0,3,8,forest_2,2,memory-2step-stake-s,596,1871812,0.0-19.0-0.0-0.100,A3DUL880Y08G95,3VGZ74AYUJWEHZMTR9OBXS32OP2GCF,3VE8AYVF8QD9DFYFPF7Q253URV68FO,3,4
101,3,object_06,object_05,871.70000001788,6,2,486.19999998808,0.5555555555555556,2,object_08,1,1530,0,4,5,library_5,2,memory-2step-stake-s,597,1880036,0.0-19.0-0.0-0.101,A3DUL880Y08G95,3VGZ74AYUJWEHZMTR9OBXS32OP2GCF,3VE8AYVF8QD9DFYFPF7Q253URV68FO,5,6
102,2,object_07,object_09,708.09999999404,4,2,382.5,0.5555555555555556,2,object_08,5,1555,0,4,5,forest_1,2,memory-2step-stake-s,598,1888150,0.0-19.0-0.0-0.102,A3DUL880Y08G95,3VGZ74AYUJWEHZMTR9OBXS32OP2GCF,3VE8AYVF8QD9DFYFPF7Q253URV68FO,3,4
103,2,object_09,object_07,585.60000002384,4,1,323.70000001788,0.7777777777777778,2,object_08,5,1590,0,4,7,forest_2,2,memory-2step-stake-s,599,1896416,0.0-19.0-0.0-0.103,A3DUL880Y08G95,3VGZ74AYUJWEHZMTR9OBXS32OP2GCF,3VE8AYVF8QD9DFYFPF7Q253URV68FO,4,3
104,1,object_03,object_01,901.30000001192,2,1,686.30000001192,0.5555555555555556,2,object_08,5,1615,0,3,5,desert_5,2,memory-2step-stake-s,600,1904836,0.0-19.0-0.0-0.104,A3DUL880Y08G95,3VGZ74AYUJWEHZMTR9OBXS32OP2GCF,3VE8AYVF8QD9DFYFPF7Q253URV68FO,2,1
105,2,object_07,object_09,588.40000000596,4,2,563.5,0.6666666666666666,2,object_08,5,1645,0,3,6,forest_6,2,memory-2step-stake-s,601,1913236,0.0-19.0-0.0-0.105,A3DUL880Y08G95,3VGZ74AYUJWEHZMTR9OBXS32OP2GCF,3VE8AYVF8QD9DFYFPF7Q253URV68FO,3,4
106,2,object_09,object_07,558.20000001788,4,1,651.09999999404,0.8888888888888888,2,object_08,5,1685,0,2,8,forest_6,2,memory-2step-stake-s,602,1921924,0.0-19.0-0.0-0.106,A3DUL880Y08G95,3VGZ74AYUJWEHZMTR9OBXS32OP2GCF,3VE8AYVF8QD9DFYFPF7Q253URV68FO,4,3
107,1,object_03,object_01,782.70000001788,2,1,403.90000000596,0.7777777777777778,2,object_08,5,1720,0,3,7,desert_5,2,memory-2step-stake-s,603,1930265,0.0-19.0-0.0-0.107,A3DUL880Y08G95,3VGZ74AYUJWEHZMTR9OBXS32OP2GCF,3VE8AYVF8QD9DFYFPF7Q253URV68FO,2,1
108,2,object_07,object_09,618.30000001192,4,2,567.90000000596,0.7777777777777778,2,object_08,5,1755,0,0,7,forest_6,2,memory-2step-stake-s,604,1938772,0.0-19.0-0.0-0.108,A3DUL880Y08G95,3VGZ74AYUJWEHZMTR9OBXS32OP2GCF,3VE8AYVF8QD9DFYFPF7Q253URV68FO,3,4
109,4,object_10,object_04,831.90000000596,8,1,541.5,1.0,2,object_08,1,1764,0,1,9,restaurant_5,2,memory-2step-stake-s,605,1947460,0.0-19.0-0.0-0.109,A3DUL880Y08G95,3VGZ74AYUJWEHZMTR9OBXS32OP2GCF,3VE8AYVF8QD9DFYFPF7Q253URV68FO,8,7
110,2,object_09,object_07,545.0,4,1,425.09999999404,1.0,2,object_08,5,1809,0,2,9,forest_1,2,memory-2step-stake-s,606,1956031,0.0-19.0-0.0-0.110,A3DUL880Y08G95,3VGZ74AYUJWEHZMTR9OBXS32OP2GCF,3VE8AYVF8QD9DFYFPF7Q253URV68FO,4,3
111,1,object_01,object_03,978.79999998212,2,2,595.80000001192,0.7777777777777778,2,object_08,1,1816,0,3,7,desert_2,2,memory-2step-stake-s,607,1964572,0.0-19.0-0.0-0.111,A3DUL880Y08G95,3VGZ74AYUJWEHZMTR9OBXS32OP2GCF,3VE8AYVF8QD9DFYFPF7Q253URV68FO,1,2
112,4,object_04,object_10,1116.5,7,1,543.89999997616,0.3333333333333333,1,object_02,1,1819,0,3,5,restaurant_7,2,memory-2step-stake-s,608,1972655,0.0-19.0-0.0-0.112,A3DUL880Y08G95,3VGZ74AYUJWEHZMTR9OBXS32OP2GCF,3VE8AYVF8QD9DFYFPF7Q253URV68FO,7,8
113,2,object_07,object_09,669.40000000596,4,2,399.70000001788,0.5555555555555556,2,object_08,5,1844,0,4,5,forest_1,2,memory-2step-stake-s,609,1980794,0.0-19.0-0.0-0.113,A3DUL880Y08G95,3VGZ74AYUJWEHZMTR9OBXS32OP2GCF,3VE8AYVF8QD9DFYFPF7Q253URV68FO,3,4
114,4,object_10,object_04,905.30000001192,8,1,410.09999999404,0.1111111111111111,2,object_08,1,1845,0,5,1,restaurant_8,2,memory-2step-stake-s,610,1988532,0.0-19.0-0.0-0.114,A3DUL880Y08G95,3VGZ74AYUJWEHZMTR9OBXS32OP2GCF,3VE8AYVF8QD9DFYFPF7Q253URV68FO,8,7
115,3,object_05,object_06,713.80000001192,6,1,383.5,0.1111111111111111,2,object_08,1,1846,0,5,1,library_5,2,memory-2step-stake-s,611,1996244,0.0-19.0-0.0-0.115,A3DUL880Y08G95,3VGZ74AYUJWEHZMTR9OBXS32OP2GCF,3VE8AYVF8QD9DFYFPF7Q253URV68FO,6,5
116,4,object_10,object_04,746.40000000596,7,2,319.69999998808,0.4444444444444444,1,object_02,1,1850,0,4,1,restaurant_8,2,memory-2step-stake-s,612,2004190,0.0-19.0-0.0-0.116,A3DUL880Y08G95,3VGZ74AYUJWEHZMTR9OBXS32OP2GCF,3VE8AYVF8QD9DFYFPF7Q253URV68FO,8,7
117,2,object_07,object_09,1057.3000000119,3,1,452.80000001192,0.5555555555555556,1,object_02,5,1875,0,5,1,forest_6,2,memory-2step-stake-s,613,2012388,0.0-19.0-0.0-0.117,A3DUL880Y08G95,3VGZ74AYUJWEHZMTR9OBXS32OP2GCF,3VE8AYVF8QD9DFYFPF7Q253URV68FO,3,4
118,2,object_09,object_07,659.70000001788,3,2,562.39999997616,0.5555555555555556,1,object_02,5,1900,0,5,1,forest_1,2,memory-2step-stake-s,614,2020682,0.0-19.0-0.0-0.118,A3DUL880Y08G95,3VGZ74AYUJWEHZMTR9OBXS32OP2GCF,3VE8AYVF8QD9DFYFPF7Q253URV68FO,4,3
119,1,object_03,object_01,830.79999998212,1,2,218.19999998808,0.8888888888888888,1,object_02,5,1940,0,8,1,desert_2,2,memory-2step-stake-s,615,2028943,0.0-19.0-0.0-0.119,A3DUL880Y08G95,3VGZ74AYUJWEHZMTR9OBXS32OP2GCF,3VE8AYVF8QD9DFYFPF7Q253URV68FO,2,1
120,2,object_07,object_09,653.69999998808,3,1,285.5,1.0,1,object_02,5,1985,0,9,2,forest_2,2,memory-2step-stake-s,616,2037364,0.0-19.0-0.0-0.120,A3DUL880Y08G95,3VGZ74AYUJWEHZMTR9OBXS32OP2GCF,3VE8AYVF8QD9DFYFPF7Q253URV68FO,3,4
121,2,object_09,object_07,736.0,3,2,393.69999998808,0.7777777777777778,1,object_02,5,2020,0,7,1,forest_3,2,memory-2step-stake-s,617,2045695,0.0-19.0-0.0-0.121,A3DUL880Y08G95,3VGZ74AYUJWEHZMTR9OBXS32OP2GCF,3VE8AYVF8QD9DFYFPF7Q253URV68FO,4,3
122,4,object_10,object_04,906.59999999404,8,1,638.0,0.1111111111111111,2,object_08,1,2021,0,6,1,restaurant_7,2,memory-2step-stake-s,618,2053663,0.0-19.0-0.0-0.122,A3DUL880Y08G95,3VGZ74AYUJWEHZMTR9OBXS32OP2GCF,3VE8AYVF8QD9DFYFPF7Q253URV68FO,8,7
123,1,object_03,object_01,723.09999999404,1,2,375.90000000596,0.5555555555555556,1,object_02,5,2046,0,5,2,desert_2,2,memory-2step-stake-s,619,2061775,0.0-19.0-0.0-0.123,A3DUL880Y08G95,3VGZ74AYUJWEHZMTR9OBXS32OP2GCF,3VE8AYVF8QD9DFYFPF7Q253URV68FO,2,1
124,2,object_07,object_09,601.90000000596,3,1,389.20000001788,0.5555555555555556,1,object_02,5,2071,0,5,1,forest_2,2,memory-2step-stake-s,620,2069903,0.0-19.0-0.0-0.124,A3DUL880Y08G95,3VGZ74AYUJWEHZMTR9OBXS32OP2GCF,3VE8AYVF8QD9DFYFPF7Q253URV68FO,3,4
125,4,object_04,object_10,867.70000001788,7,1,506.09999999404,0.3333333333333333,1,object_02,1,2074,0,3,1,restaurant_8,2,memory-2step-stake-s,621,2077951,0.0-19.0-0.0-0.125,A3DUL880Y08G95,3VGZ74AYUJWEHZMTR9OBXS32OP2GCF,3VE8AYVF8QD9DFYFPF7Q253URV68FO,7,8
126,2,object_09,object_07,613.80000001192,4,1,400.09999999404,0.2222222222222222,2,object_08,1,2076,0,4,2,forest_6,2,memory-2step-stake-s,622,2085789,0.0-19.0-0.0-0.126,A3DUL880Y08G95,3VGZ74AYUJWEHZMTR9OBXS32OP2GCF,3VE8AYVF8QD9DFYFPF7Q253URV68FO,4,3
127,3,object_05,object_06,909.40000000596,6,1,376.59999999404,0.1111111111111111,2,object_08,1,2077,0,5,1,library_8,2,memory-2step-stake-s,623,2093493,0.0-19.0-0.0-0.127,A3DUL880Y08G95,3VGZ74AYUJWEHZMTR9OBXS32OP2GCF,3VE8AYVF8QD9DFYFPF7Q253URV68FO,6,5
128,4,object_10,object_04,1165.1000000238,8,1,613.90000000596,0.1111111111111111,2,object_08,1,2078,0,3,1,restaurant_2,2,memory-2step-stake-s,625,2939932,0.0-19.0-0.1-0.128,A3DUL880Y08G95,3VGZ74AYUJWEHZMTR9OBXS32OP2GCF,3VE8AYVF8QD9DFYFPF7Q253URV68FO,8,7
129,4,object_04,object_10,863.40000000596,7,1,687.69999998808,0.5555555555555556,1,object_02,5,2103,0,5,3,restaurant_7,2,memory-2step-stake-s,626,2948350,0.0-19.0-0.1-0.129,A3DUL880Y08G95,3VGZ74AYUJWEHZMTR9OBXS32OP2GCF,3VE8AYVF8QD9DFYFPF7Q253URV68FO,7,8
130,2,object_09,object_07,813.79999998212,3,2,533.40000000596,0.8888888888888888,1,object_02,5,2143,0,8,5,forest_3,2,memory-2step-stake-s,627,2956929,0.0-19.0-0.1-0.130,A3DUL880Y08G95,3VGZ74AYUJWEHZMTR9OBXS32OP2GCF,3VE8AYVF8QD9DFYFPF7Q253URV68FO,4,3
131,4,object_04,object_10,-1.0,-1,-1,-1.0,0.0,-,0,1,2143,0,5,5,restaurant_7,2,memory-2step-stake-s,628,2963447,0.0-19.0-0.1-0.131,A3DUL880Y08G95,3VGZ74AYUJWEHZMTR9OBXS32OP2GCF,3VE8AYVF8QD9DFYFPF7Q253URV68FO,7,8
132,3,object_05,object_06,982.40000000596,5,2,577.79999998212,0.3333333333333333,1,object_02,1,2146,0,3,6,library_5,2,memory-2step-stake-s,629,2971559,0.0-19.0-0.1-0.132,A3DUL880Y08G95,3VGZ74AYUJWEHZMTR9OBXS32OP2GCF,3VE8AYVF8QD9DFYFPF7Q253URV68FO,6,5
133,4,object_04,object_10,843.59999999404,7,1,473.5,0.1111111111111111,1,object_02,1,2147,0,1,6,restaurant_7,2,memory-2step-stake-s,630,2979361,0.0-19.0-0.1-0.133,A3DUL880Y08G95,3VGZ74AYUJWEHZMTR9OBXS32OP2GCF,3VE8AYVF8QD9DFYFPF7Q253URV68FO,7,8
134,1,object_03,object_01,934.59999999404,2,1,417.5,0.6666666666666666,2,object_08,1,2153,0,1,6,desert_1,2,memory-2step-stake-s,631,2987609,0.0-19.0-0.1-0.134,A3DUL880Y08G95,3VGZ74AYUJWEHZMTR9OBXS32OP2GCF,3VE8AYVF8QD9DFYFPF7Q253URV68FO,2,1
135,2,object_07,object_09,647.89999997616,4,2,359.69999998808,0.2222222222222222,2,object_08,5,2163,0,1,2,forest_2,2,memory-2step-stake-s,632,2995398,0.0-19.0-0.1-0.135,A3DUL880Y08G95,3VGZ74AYUJWEHZMTR9OBXS32OP2GCF,3VE8AYVF8QD9DFYFPF7Q253URV68FO,3,4
136,3,object_06,object_05,731.0,6,2,442.0,0.0,2,object_08,1,2163,0,0,0,library_8,2,memory-2step-stake-s,633,3003068,0.0-19.0-0.1-0.136,A3DUL880Y08G95,3VGZ74AYUJWEHZMTR9OBXS32OP2GCF,3VE8AYVF8QD9DFYFPF7Q253URV68FO,5,6
137,1,object_01,object_03,690.20000001788,1,1,373.89999997616,0.2222222222222222,1,object_02,5,2173,0,2,4,desert_2,2,memory-2step-stake-s,634,3010866,0.0-19.0-0.1-0.137,A3DUL880Y08G95,3VGZ74AYUJWEHZMTR9OBXS32OP2GCF,3VE8AYVF8QD9DFYFPF7Q253URV68FO,1,2
138,3,object_05,object_06,946.20000001788,5,2,380.90000000596,0.6666666666666666,1,object_02,1,2179,0,6,2,library_6,2,memory-2step-stake-s,635,3019082,0.0-19.0-0.1-0.138,A3DUL880Y08G95,3VGZ74AYUJWEHZMTR9OBXS32OP2GCF,3VE8AYVF8QD9DFYFPF7Q253URV68FO,6,5
139,1,object_03,object_01,688.40000000596,1,2,240.39999997616,0.4444444444444444,1,object_02,5,2199,0,4,2,desert_2,2,memory-2step-stake-s,636,3026964,0.0-19.0-0.1-0.139,A3DUL880Y08G95,3VGZ74AYUJWEHZMTR9OBXS32OP2GCF,3VE8AYVF8QD9DFYFPF7Q253URV68FO,2,1
140,4,object_10,object_04,587.80000001192,8,1,525.80000001192,0.3333333333333333,2,object_08,1,2202,0,4,3,restaurant_8,2,memory-2step-stake-s,637,3035030,0.0-19.0-0.1-0.140,A3DUL880Y08G95,3VGZ74AYUJWEHZMTR9OBXS32OP2GCF,3VE8AYVF8QD9DFYFPF7Q253URV68FO,8,7
141,4,object_04,object_10,831.59999999404,7,1,487.90000000596,0.2222222222222222,1,object_02,1,2204,0,2,1,restaurant_7,2,memory-2step-stake-s,638,3042945,0.0-19.0-0.1-0.141,A3DUL880Y08G95,3VGZ74AYUJWEHZMTR9OBXS32OP2GCF,3VE8AYVF8QD9DFYFPF7Q253URV68FO,7,8
142,1,object_01,object_03,890.69999998808,1,1,349.69999998808,0.3333333333333333,1,object_02,1,2207,0,3,1,desert_2,2,memory-2step-stake-s,639,3050828,0.0-19.0-0.1-0.142,A3DUL880Y08G95,3VGZ74AYUJWEHZMTR9OBXS32OP2GCF,3VE8AYVF8QD9DFYFPF7Q253URV68FO,1,2
143,3,object_05,object_06,640.40000000596,5,2,439.69999998808,0.3333333333333333,1,object_02,1,2210,0,3,4,library_8,2,memory-2step-stake-s,640,3058795,0.0-19.0-0.1-0.143,A3DUL880Y08G95,3VGZ74AYUJWEHZMTR9OBXS32OP2GCF,3VE8AYVF8QD9DFYFPF7Q253URV68FO,6,5
144,2,object_07,object_09,986.19999998808,4,2,472.69999998808,0.2222222222222222,2,object_08,5,2220,0,3,2,forest_1,2,memory-2step-stake-s,641,3066700,0.0-19.0-0.1-0.144,A3DUL880Y08G95,3VGZ74AYUJWEHZMTR9OBXS32OP2GCF,3VE8AYVF8QD9DFYFPF7Q253URV68FO,3,4
145,3,object_06,object_05,740.89999997616,6,2,391.09999999404,0.2222222222222222,2,object_08,1,2222,0,6,2,library_6,2,memory-2step-stake-s,642,3074526,0.0-19.0-0.1-0.145,A3DUL880Y08G95,3VGZ74AYUJWEHZMTR9OBXS32OP2GCF,3VE8AYVF8QD9DFYFPF7Q253URV68FO,5,6
146,3,object_06,object_05,784.40000000596,6,2,421.30000001192,0.2222222222222222,2,object_08,1,2224,0,4,2,library_3,2,memory-2step-stake-s,643,3082385,0.0-19.0-0.1-0.146,A3DUL880Y08G95,3VGZ74AYUJWEHZMTR9OBXS32OP2GCF,3VE8AYVF8QD9DFYFPF7Q253URV68FO,5,6
147,3,object_05,object_06,820.69999998808,5,2,413.40000000596,0.5555555555555556,1,object_02,1,2229,0,5,2,library_5,2,memory-2step-stake-s,644,3090539,0.0-19.0-0.1-0.147,A3DUL880Y08G95,3VGZ74AYUJWEHZMTR9OBXS32OP2GCF,3VE8AYVF8QD9DFYFPF7Q253URV68FO,6,5
148,1,object_01,object_03,828.40000000596,1,1,401.69999998808,0.7777777777777778,1,object_02,5,2264,0,7,1,desert_5,2,memory-2step-stake-s,645,3098881,0.0-19.0-0.1-0.148,A3DUL880Y08G95,3VGZ74AYUJWEHZMTR9OBXS32OP2GCF,3VE8AYVF8QD9DFYFPF7Q253URV68FO,1,2
149,3,object_05,object_06,636.59999999404,5,2,441.69999998808,0.7777777777777778,1,object_02,1,2271,0,7,2,library_6,2,memory-2step-stake-s,646,3107272,0.0-19.0-0.1-0.149,A3DUL880Y08G95,3VGZ74AYUJWEHZMTR9OBXS32OP2GCF,3VE8AYVF8QD9DFYFPF7Q253URV68FO,6,5
150,4,object_04,object_10,1108.900000006,7,1,473.30000001192,1.0,1,object_02,1,2280,0,9,2,restaurant_5,2,memory-2step-stake-s,647,3115889,0.0-19.0-0.1-0.150,A3DUL880Y08G95,3VGZ74AYUJWEHZMTR9OBXS32OP2GCF,3VE8AYVF8QD9DFYFPF7Q253URV68FO,7,8
151,3,object_06,object_05,647.20000001788,5,1,358.60000002384,1.0,1,object_02,1,2289,0,9,0,library_8,2,memory-2step-stake-s,648,3124390,0.0-19.0-0.1-0.151,A3DUL880Y08G95,3VGZ74AYUJWEHZMTR9OBXS32OP2GCF,3VE8AYVF8QD9DFYFPF7Q253URV68FO,5,6
152,3,object_06,object_05,770.59999999404,5,1,414.0,1.0,1,object_02,5,2334,0,9,2,library_8,2,memory-2step-stake-s,649,3132945,0.0-19.0-0.1-0.152,A3DUL880Y08G95,3VGZ74AYUJWEHZMTR9OBXS32OP2GCF,3VE8AYVF8QD9DFYFPF7Q253URV68FO,5,6
153,1,object_03,object_01,770.09999999404,1,2,487.70000001788,0.7777777777777778,1,object_02,5,2369,0,7,4,desert_2,2,memory-2step-stake-s,650,3141366,0.0-19.0-0.1-0.153,A3DUL880Y08G95,3VGZ74AYUJWEHZMTR9OBXS32OP2GCF,3VE8AYVF8QD9DFYFPF7Q253URV68FO,2,1
154,2,object_07,object_09,692.80000001192,3,1,476.5,0.6666666666666666,1,object_02,5,2399,0,6,4,forest_6,2,memory-2step-stake-s,651,3149687,0.0-19.0-0.1-0.154,A3DUL880Y08G95,3VGZ74AYUJWEHZMTR9OBXS32OP2GCF,3VE8AYVF8QD9DFYFPF7Q253URV68FO,3,4
155,3,object_06,object_05,674.09999999404,5,1,559.69999998808,0.5555555555555556,1,object_02,1,2404,0,5,1,library_8,2,memory-2step-stake-s,652,3157985,0.0-19.0-0.1-0.155,A3DUL880Y08G95,3VGZ74AYUJWEHZMTR9OBXS32OP2GCF,3VE8AYVF8QD9DFYFPF7Q253URV68FO,5,6
156,2,object_09,object_07,585.59999999404,3,2,387.69999998808,0.5555555555555556,1,object_02,5,2429,0,5,2,forest_6,2,memory-2step-stake-s,653,3166113,0.0-19.0-0.1-0.156,A3DUL880Y08G95,3VGZ74AYUJWEHZMTR9OBXS32OP2GCF,3VE8AYVF8QD9DFYFPF7Q253URV68FO,4,3
157,4,object_04,object_10,873.20000001788,7,1,475.40000000596,0.5555555555555556,1,object_02,1,2434,0,5,1,restaurant_5,2,memory-2step-stake-s,654,3174331,0.0-19.0-0.1-0.157,A3DUL880Y08G95,3VGZ74AYUJWEHZMTR9OBXS32OP2GCF,3VE8AYVF8QD9DFYFPF7Q253URV68FO,7,8
158,1,object_01,object_03,604.5,1,1,558.5,0.7777777777777778,1,object_02,5,2469,0,7,1,desert_1,2,memory-2step-stake-s,655,3182837,0.0-19.0-0.1-0.158,A3DUL880Y08G95,3VGZ74AYUJWEHZMTR9OBXS32OP2GCF,3VE8AYVF8QD9DFYFPF7Q253URV68FO,1,2
159,3,object_05,object_06,648.5,5,2,449.59999999404,0.5555555555555556,1,object_02,1,2474,0,5,1,library_8,2,memory-2step-stake-s,656,3191028,0.0-19.0-0.1-0.159,A3DUL880Y08G95,3VGZ74AYUJWEHZMTR9OBXS32OP2GCF,3VE8AYVF8QD9DFYFPF7Q253URV68FO,6,5
160,4,object_04,object_10,563.80000001192,8,2,462.59999999404,0.1111111111111111,2,object_08,1,2475,0,7,1,restaurant_5,2,memory-2step-stake-s,657,3198827,0.0-19.0-0.1-0.160,A3DUL880Y08G95,3VGZ74AYUJWEHZMTR9OBXS32OP2GCF,3VE8AYVF8QD9DFYFPF7Q253URV68FO,7,8
161,4,object_04,object_10,774.30000001192,7,1,380.39999997616,0.4444444444444444,1,object_02,5,2495,0,4,0,restaurant_2,2,memory-2step-stake-s,658,3206843,0.0-19.0-0.1-0.161,A3DUL880Y08G95,3VGZ74AYUJWEHZMTR9OBXS32OP2GCF,3VE8AYVF8QD9DFYFPF7Q253URV68FO,7,8
162,4,object_10,object_04,874.59999999404,7,2,436.09999999404,0.5555555555555556,1,object_02,5,2520,0,5,1,restaurant_8,2,memory-2step-stake-s,659,3215008,0.0-19.0-0.1-0.162,A3DUL880Y08G95,3VGZ74AYUJWEHZMTR9OBXS32OP2GCF,3VE8AYVF8QD9DFYFPF7Q253URV68FO,8,7
163,4,object_10,object_04,744.79999998212,7,2,364.29999998212,0.7777777777777778,1,object_02,1,2527,0,7,2,restaurant_5,2,memory-2step-stake-s,660,3223312,0.0-19.0-0.1-0.163,A3DUL880Y08G95,3VGZ74AYUJWEHZMTR9OBXS32OP2GCF,3VE8AYVF8QD9DFYFPF7Q253URV68FO,8,7
164,4,object_10,object_04,635.79999998212,7,2,361.79999998212,0.7777777777777778,1,object_02,1,2534,0,7,4,restaurant_8,2,memory-2step-stake-s,661,3231627,0.0-19.0-0.1-0.164,A3DUL880Y08G95,3VGZ74AYUJWEHZMTR9OBXS32OP2GCF,3VE8AYVF8QD9DFYFPF7Q253URV68FO,8,7
165,2,object_09,object_07,968.29999998212,3,2,418.10000002384,1.0,1,object_02,5,2579,0,9,6,forest_2,2,memory-2step-stake-s,662,3240192,0.0-19.0-0.1-0.165,A3DUL880Y08G95,3VGZ74AYUJWEHZMTR9OBXS32OP2GCF,3VE8AYVF8QD9DFYFPF7Q253URV68FO,4,3
166,4,object_04,object_10,870.29999998212,7,1,466.5,1.0,1,object_02,1,2588,0,9,6,restaurant_7,2,memory-2step-stake-s,663,3248800,0.0-19.0-0.1-0.166,A3DUL880Y08G95,3VGZ74AYUJWEHZMTR9OBXS32OP2GCF,3VE8AYVF8QD9DFYFPF7Q253URV68FO,7,8
167,3,object_06,object_05,707.5,5,1,551.80000001192,0.8888888888888888,1,object_02,1,2596,0,8,8,library_3,2,memory-2step-stake-s,664,3257392,0.0-19.0-0.1-0.167,A3DUL880Y08G95,3VGZ74AYUJWEHZMTR9OBXS32OP2GCF,3VE8AYVF8QD9DFYFPF7Q253URV68FO,5,6
168,3,object_05,object_06,709.0,5,2,695.89999997616,0.5555555555555556,1,object_02,5,2621,0,5,8,library_5,2,memory-2step-stake-s,665,3265830,0.0-19.0-0.1-0.168,A3DUL880Y08G95,3VGZ74AYUJWEHZMTR9OBXS32OP2GCF,3VE8AYVF8QD9DFYFPF7Q253URV68FO,6,5
169,2,object_09,object_07,600.19999998808,3,2,372.09999999404,0.4444444444444444,1,object_02,5,2641,0,4,9,forest_3,2,memory-2step-stake-s,666,3273835,0.0-19.0-0.1-0.169,A3DUL880Y08G95,3VGZ74AYUJWEHZMTR9OBXS32OP2GCF,3VE8AYVF8QD9DFYFPF7Q253URV68FO,4,3
170,1,object_01,object_03,614.39999997616,1,1,318.69999998808,0.4444444444444444,1,object_02,5,2661,0,4,6,desert_5,2,memory-2step-stake-s,667,3281792,0.0-19.0-0.1-0.170,A3DUL880Y08G95,3VGZ74AYUJWEHZMTR9OBXS32OP2GCF,3VE8AYVF8QD9DFYFPF7Q253URV68FO,1,2
171,3,object_06,object_05,694.19999998808,5,1,513.80000001192,0.4444444444444444,1,object_02,1,2665,0,4,8,library_8,2,memory-2step-stake-s,668,3289942,0.0-19.0-0.1-0.171,A3DUL880Y08G95,3VGZ74AYUJWEHZMTR9OBXS32OP2GCF,3VE8AYVF8QD9DFYFPF7Q253URV68FO,5,6
172,4,object_10,object_04,557.60000002384,8,1,313.5,0.7777777777777778,2,object_08,1,2672,0,3,7,restaurant_7,2,memory-2step-stake-s,669,3298198,0.0-19.0-0.1-0.172,A3DUL880Y08G95,3VGZ74AYUJWEHZMTR9OBXS32OP2GCF,3VE8AYVF8QD9DFYFPF7Q253URV68FO,8,7
173,1,object_03,object_01,825.69999998808,2,1,377.0,0.4444444444444444,2,object_08,5,2692,0,0,4,desert_1,2,memory-2step-stake-s,670,3306214,0.0-19.0-0.1-0.173,A3DUL880Y08G95,3VGZ74AYUJWEHZMTR9OBXS32OP2GCF,3VE8AYVF8QD9DFYFPF7Q253URV68FO,2,1
174,1,object_01,object_03,808.69999998808,2,2,737.40000000596,0.4444444444444444,2,object_08,5,2712,0,0,4,desert_7,2,memory-2step-stake-s,671,3314587,0.0-19.0-0.1-0.174,A3DUL880Y08G95,3VGZ74AYUJWEHZMTR9OBXS32OP2GCF,3VE8AYVF8QD9DFYFPF7Q253URV68FO,1,2
175,3,object_06,object_05,767.59999999404,6,2,380.90000000596,0.2222222222222222,2,object_08,1,2714,0,1,2,library_5,2,memory-2step-stake-s,672,3322400,0.0-19.0-0.1-0.175,A3DUL880Y08G95,3VGZ74AYUJWEHZMTR9OBXS32OP2GCF,3VE8AYVF8QD9DFYFPF7Q253URV68FO,5,6
176,4,object_10,object_04,541.40000000596,8,1,262.19999998808,0.3333333333333333,2,object_08,1,2717,0,3,3,restaurant_5,2,memory-2step-stake-s,673,3330197,0.0-19.0-0.1-0.176,A3DUL880Y08G95,3VGZ74AYUJWEHZMTR9OBXS32OP2GCF,3VE8AYVF8QD9DFYFPF7Q253URV68FO,8,7
177,1,object_01,object_03,1068.1999999881,1,1,434.59999999404,0.3333333333333333,1,object_02,1,2720,0,3,4,desert_7,2,memory-2step-stake-s,674,3338161,0.0-19.0-0.1-0.177,A3DUL880Y08G95,3VGZ74AYUJWEHZMTR9OBXS32OP2GCF,3VE8AYVF8QD9DFYFPF7Q253URV68FO,1,2
178,4,object_10,object_04,852.19999998808,7,2,327.60000002384,0.2222222222222222,1,object_02,1,2722,0,2,4,restaurant_5,2,memory-2step-stake-s,675,3345920,0.0-19.0-0.1-0.178,A3DUL880Y08G95,3VGZ74AYUJWEHZMTR9OBXS32OP2GCF,3VE8AYVF8QD9DFYFPF7Q253URV68FO,8,7
179,3,object_05,object_06,674.79999998212,6,1,732.30000001192,0.4444444444444444,2,object_08,1,2726,0,3,4,library_8,2,memory-2step-stake-s,676,3354282,0.0-19.0-0.1-0.179,A3DUL880Y08G95,3VGZ74AYUJWEHZMTR9OBXS32OP2GCF,3VE8AYVF8QD9DFYFPF7Q253URV68FO,6,5
180,3,object_05,object_06,560.39999997616,6,1,422.40000000596,0.4444444444444444,2,object_08,1,2730,0,0,4,library_3,2,memory-2step-stake-s,677,3362341,0.0-19.0-0.1-0.180,A3DUL880Y08G95,3VGZ74AYUJWEHZMTR9OBXS32OP2GCF,3VE8AYVF8QD9DFYFPF7Q253URV68FO,6,5
181,3,object_06,object_05,614.59999999404,6,2,824.09999999404,0.3333333333333333,2,object_08,1,2733,0,4,3,library_3,2,memory-2step-stake-s,678,3370693,0.0-19.0-0.1-0.181,A3DUL880Y08G95,3VGZ74AYUJWEHZMTR9OBXS32OP2GCF,3VE8AYVF8QD9DFYFPF7Q253URV68FO,5,6
182,4,object_04,object_10,714.20000001788,7,1,415.0,0.6666666666666666,1,object_02,1,2739,0,6,5,restaurant_2,2,memory-2step-stake-s,679,3378944,0.0-19.0-0.1-0.182,A3DUL880Y08G95,3VGZ74AYUJWEHZMTR9OBXS32OP2GCF,3VE8AYVF8QD9DFYFPF7Q253URV68FO,7,8
183,3,object_05,object_06,725.40000000596,5,2,609.69999998808,0.3333333333333333,1,object_02,1,2742,0,3,5,library_6,2,memory-2step-stake-s,680,3387083,0.0-19.0-0.1-0.183,A3DUL880Y08G95,3VGZ74AYUJWEHZMTR9OBXS32OP2GCF,3VE8AYVF8QD9DFYFPF7Q253URV68FO,6,5
184,3,object_06,object_05,678.20000001788,5,1,301.19999998808,0.2222222222222222,1,object_02,1,2744,0,2,7,library_3,2,memory-2step-stake-s,681,3394811,0.0-19.0-0.1-0.184,A3DUL880Y08G95,3VGZ74AYUJWEHZMTR9OBXS32OP2GCF,3VE8AYVF8QD9DFYFPF7Q253URV68FO,5,6
185,4,object_10,object_04,639.5,7,2,416.09999999404,0.3333333333333333,1,object_02,1,2747,0,3,6,restaurant_2,2,memory-2step-stake-s,682,3402763,0.0-19.0-0.1-0.185,A3DUL880Y08G95,3VGZ74AYUJWEHZMTR9OBXS32OP2GCF,3VE8AYVF8QD9DFYFPF7Q253URV68FO,8,7
186,1,object_03,object_01,466.20000001788,2,1,55.199999988079,1.0,2,object_08,5,2792,0,5,9,desert_2,2,memory-2step-stake-s,683,3410954,0.0-19.0-0.1-0.186,A3DUL880Y08G95,3VGZ74AYUJWEHZMTR9OBXS32OP2GCF,3VE8AYVF8QD9DFYFPF7Q253URV68FO,2,1
187,3,object_06,object_05,695.40000000596,6,2,478.40000000596,0.7777777777777778,2,object_08,1,2799,0,4,7,library_6,2,memory-2step-stake-s,684,3419368,0.0-19.0-0.1-0.187,A3DUL880Y08G95,3VGZ74AYUJWEHZMTR9OBXS32OP2GCF,3VE8AYVF8QD9DFYFPF7Q253URV68FO,5,6
188,3,object_05,object_06,551.80000001192,6,1,495.70000001788,1.0,2,object_08,1,2808,0,1,9,library_8,2,memory-2step-stake-s,685,3428016,0.0-19.0-0.1-0.188,A3DUL880Y08G95,3VGZ74AYUJWEHZMTR9OBXS32OP2GCF,3VE8AYVF8QD9DFYFPF7Q253URV68FO,6,5
189,4,object_10,object_04,719.39999997616,8,1,506.0,0.7777777777777778,2,object_08,1,2815,0,1,7,restaurant_7,2,memory-2step-stake-s,686,3436448,0.0-19.0-0.1-0.189,A3DUL880Y08G95,3VGZ74AYUJWEHZMTR9OBXS32OP2GCF,3VE8AYVF8QD9DFYFPF7Q253URV68FO,8,7
190,4,object_10,object_04,958.59999999404,7,2,124.59999999404,0.2222222222222222,1,object_02,1,2817,0,2,9,restaurant_5,2,memory-2step-stake-s,687,3443993,0.0-19.0-0.1-0.190,A3DUL880Y08G95,3VGZ74AYUJWEHZMTR9OBXS32OP2GCF,3VE8AYVF8QD9DFYFPF7Q253URV68FO,8,7
191,1,object_01,object_03,677.5,2,2,329.59999999404,0.6666666666666666,2,object_08,1,2823,0,1,6,desert_7,2,memory-2step-stake-s,688,3452171,0.0-19.0-0.1-0.191,A3DUL880Y08G95,3VGZ74AYUJWEHZMTR9OBXS32OP2GCF,3VE8AYVF8QD9DFYFPF7Q253URV68FO,1,2
192,3,object_06,object_05,744.30000001192,6,2,336.60000002384,0.7777777777777778,2,object_08,1,2830,0,3,7,library_8,2,memory-2step-stake-s,689,3460448,0.0-19.0-0.1-0.192,A3DUL880Y08G95,3VGZ74AYUJWEHZMTR9OBXS32OP2GCF,3VE8AYVF8QD9DFYFPF7Q253URV68FO,5,6
193,1,object_01,object_03,533.19999998808,2,2,288.19999998808,1.0,2,object_08,5,2875,0,1,9,desert_1,2,memory-2step-stake-s,690,3468887,0.0-19.0-0.1-0.193,A3DUL880Y08G95,3VGZ74AYUJWEHZMTR9OBXS32OP2GCF,3VE8AYVF8QD9DFYFPF7Q253URV68FO,1,2
194,1,object_03,object_01,553.09999999404,2,1,338.5,1.0,2,object_08,5,2920,0,2,9,desert_5,2,memory-2step-stake-s,691,3477370,0.0-19.0-0.1-0.194,A3DUL880Y08G95,3VGZ74AYUJWEHZMTR9OBXS32OP2GCF,3VE8AYVF8QD9DFYFPF7Q253URV68FO,2,1
195,4,object_10,object_04,796.80000001192,8,1,386.40000000596,0.7777777777777778,2,object_08,1,2927,0,3,7,restaurant_5,2,memory-2step-stake-s,692,3485696,0.0-19.0-0.1-0.195,A3DUL880Y08G95,3VGZ74AYUJWEHZMTR9OBXS32OP2GCF,3VE8AYVF8QD9DFYFPF7Q253URV68FO,8,7
196,1,object_01,object_03,605.70000001788,2,2,338.80000001192,0.6666666666666666,2,object_08,5,2957,0,1,6,desert_5,2,memory-2step-stake-s,693,3493866,0.0-19.0-0.1-0.196,A3DUL880Y08G95,3VGZ74AYUJWEHZMTR9OBXS32OP2GCF,3VE8AYVF8QD9DFYFPF7Q253URV68FO,1,2
197,3,object_06,object_05,693.29999998212,6,2,353.5,0.7777777777777778,2,object_08,1,2964,0,3,7,library_3,2,memory-2step-stake-s,694,3502155,0.0-19.0-0.1-0.197,A3DUL880Y08G95,3VGZ74AYUJWEHZMTR9OBXS32OP2GCF,3VE8AYVF8QD9DFYFPF7Q253URV68FO,5,6
198,2,object_07,object_09,547.89999997616,4,2,285.70000001788,1.0,2,object_08,1,2973,0,4,9,forest_1,2,memory-2step-stake-s,695,3510586,0.0-19.0-0.1-0.198,A3DUL880Y08G95,3VGZ74AYUJWEHZMTR9OBXS32OP2GCF,3VE8AYVF8QD9DFYFPF7Q253URV68FO,3,4
199,2,object_07,object_09,490.20000001788,4,2,458.69999998808,0.6666666666666666,2,object_08,1,2979,0,4,6,forest_1,2,memory-2step-stake-s,696,3518885,0.0-19.0-0.1-0.199,A3DUL880Y08G95,3VGZ74AYUJWEHZMTR9OBXS32OP2GCF,3VE8AYVF8QD9DFYFPF7Q253URV68FO,3,4
200,1,object_03,object_01,600.09999999404,2,1,433.59999999404,0.1111111111111111,2,object_08,1,2980,0,3,1,desert_2,2,memory-2step-stake-s,697,3526654,0.0-19.0-0.1-0.200,A3DUL880Y08G95,3VGZ74AYUJWEHZMTR9OBXS32OP2GCF,3VE8AYVF8QD9DFYFPF7Q253URV68FO,2,1
201,4,object_10,object_04,811.09999999404,7,2,614.29999998212,0.4444444444444444,1,object_02,1,2984,0,4,1,restaurant_2,2,memory-2step-stake-s,698,3534905,0.0-19.0-0.1-0.201,A3DUL880Y08G95,3VGZ74AYUJWEHZMTR9OBXS32OP2GCF,3VE8AYVF8QD9DFYFPF7Q253URV68FO,8,7
202,2,object_09,object_07,986.09999999404,3,2,729.79999998212,0.4444444444444444,1,object_02,1,2988,0,4,4,forest_3,2,memory-2step-stake-s,699,3543263,0.0-19.0-0.1-0.202,A3DUL880Y08G95,3VGZ74AYUJWEHZMTR9OBXS32OP2GCF,3VE8AYVF8QD9DFYFPF7Q253URV68FO,4,3
203,2,object_07,object_09,669.40000000596,3,1,961.40000000596,0.5555555555555556,1,object_02,5,3013,0,5,4,forest_1,2,memory-2step-stake-s,700,3551962,0.0-19.0-0.1-0.203,A3DUL880Y08G95,3VGZ74AYUJWEHZMTR9OBXS32OP2GCF,3VE8AYVF8QD9DFYFPF7Q253URV68FO,3,4
204,3,object_05,object_06,868.40000000596,5,2,852.30000001192,0.1111111111111111,1,object_02,1,3014,0,1,4,library_6,2,memory-2step-stake-s,701,3560143,0.0-19.0-0.1-0.204,A3DUL880Y08G95,3VGZ74AYUJWEHZMTR9OBXS32OP2GCF,3VE8AYVF8QD9DFYFPF7Q253URV68FO,6,5
205,3,object_05,object_06,952.09999999404,5,2,463.59999999404,0.1111111111111111,1,object_02,1,3015,0,1,1,library_3,2,memory-2step-stake-s,702,3567941,0.0-19.0-0.1-0.205,A3DUL880Y08G95,3VGZ74AYUJWEHZMTR9OBXS32OP2GCF,3VE8AYVF8QD9DFYFPF7Q253URV68FO,6,5
206,3,object_05,object_06,760.5,6,1,472.40000000596,0.3333333333333333,2,object_08,1,3018,0,1,3,library_3,2,memory-2step-stake-s,703,3575954,0.0-19.0-0.1-0.206,A3DUL880Y08G95,3VGZ74AYUJWEHZMTR9OBXS32OP2GCF,3VE8AYVF8QD9DFYFPF7Q253URV68FO,6,5
207,2,object_09,object_07,682.59999999404,4,1,730.59999999404,0.7777777777777778,2,object_08,1,3025,0,3,7,forest_6,2,memory-2step-stake-s,704,3584624,0.0-19.0-0.1-0.207,A3DUL880Y08G95,3VGZ74AYUJWEHZMTR9OBXS32OP2GCF,3VE8AYVF8QD9DFYFPF7Q253URV68FO,4,3
208,3,object_06,object_05,642.0,6,2,577.80000001192,0.5555555555555556,2,object_08,1,3030,0,5,5,library_6,2,memory-2step-stake-s,705,3592938,0.0-19.0-0.1-0.208,A3DUL880Y08G95,3VGZ74AYUJWEHZMTR9OBXS32OP2GCF,3VE8AYVF8QD9DFYFPF7Q253URV68FO,5,6
209,2,object_09,object_07,589.0,4,1,431.0,0.5555555555555556,2,object_08,5,3055,0,4,5,forest_1,2,memory-2step-stake-s,706,3601107,0.0-19.0-0.1-0.209,A3DUL880Y08G95,3VGZ74AYUJWEHZMTR9OBXS32OP2GCF,3VE8AYVF8QD9DFYFPF7Q253URV68FO,4,3
210,3,object_05,object_06,701.5,6,1,407.39999997616,0.4444444444444444,2,object_08,1,3059,0,6,4,library_5,2,memory-2step-stake-s,707,3609149,0.0-19.0-0.1-0.210,A3DUL880Y08G95,3VGZ74AYUJWEHZMTR9OBXS32OP2GCF,3VE8AYVF8QD9DFYFPF7Q253URV68FO,6,5
211,2,object_07,object_09,534.30000001192,4,2,448.30000001192,0.0,2,object_08,1,3059,0,3,0,forest_3,2,memory-2step-stake-s,708,3616826,0.0-19.0-0.1-0.211,A3DUL880Y08G95,3VGZ74AYUJWEHZMTR9OBXS32OP2GCF,3VE8AYVF8QD9DFYFPF7Q253URV68FO,3,4
212,3,object_05,object_06,573.29999998212,5,2,440.10000002384,0.4444444444444444,1,object_02,1,3063,0,4,2,library_5,2,memory-2step-stake-s,709,3624900,0.0-19.0-0.1-0.212,A3DUL880Y08G95,3VGZ74AYUJWEHZMTR9OBXS32OP2GCF,3VE8AYVF8QD9DFYFPF7Q253URV68FO,6,5
213,1,object_01,object_03,902.80000001192,2,2,534.5,0.4444444444444444,2,object_08,5,3083,0,3,4,desert_1,2,memory-2step-stake-s,710,3633079,0.0-19.0-0.1-0.213,A3DUL880Y08G95,3VGZ74AYUJWEHZMTR9OBXS32OP2GCF,3VE8AYVF8QD9DFYFPF7Q253URV68FO,1,2
214,4,object_04,object_10,771.30000001192,7,1,433.09999999404,0.5555555555555556,1,object_02,1,3088,0,5,2,restaurant_2,2,memory-2step-stake-s,711,3641252,0.0-19.0-0.1-0.214,A3DUL880Y08G95,3VGZ74AYUJWEHZMTR9OBXS32OP2GCF,3VE8AYVF8QD9DFYFPF7Q253URV68FO,7,8
215,4,object_10,object_04,982.09999999404,8,1,407.89999997616,0.4444444444444444,2,object_08,1,3092,0,4,4,restaurant_2,2,memory-2step-stake-s,712,3649289,0.0-19.0-0.1-0.215,A3DUL880Y08G95,3VGZ74AYUJWEHZMTR9OBXS32OP2GCF,3VE8AYVF8QD9DFYFPF7Q253URV68FO,8,7
216,1,object_01,object_03,617.69999998808,2,2,401.5,0.1111111111111111,2,object_08,5,3097,0,3,1,desert_2,2,memory-2step-stake-s,713,3657023,0.0-19.0-0.1-0.216,A3DUL880Y08G95,3VGZ74AYUJWEHZMTR9OBXS32OP2GCF,3VE8AYVF8QD9DFYFPF7Q253URV68FO,1,2
217,1,object_01,object_03,768.29999998212,1,1,445.5,0.2222222222222222,1,object_02,1,3099,0,2,1,desert_5,2,memory-2step-stake-s,714,3664904,0.0-19.0-0.1-0.217,A3DUL880Y08G95,3VGZ74AYUJWEHZMTR9OBXS32OP2GCF,3VE8AYVF8QD9DFYFPF7Q253URV68FO,1,2
218,1,object_01,object_03,659.80000001192,1,1,390.0,0.2222222222222222,1,object_02,5,3109,0,2,1,desert_1,2,memory-2step-stake-s,715,3672730,0.0-19.0-0.1-0.218,A3DUL880Y08G95,3VGZ74AYUJWEHZMTR9OBXS32OP2GCF,3VE8AYVF8QD9DFYFPF7Q253URV68FO,1,2
219,2,object_07,object_09,563.30000001192,4,2,216.19999998808,0.1111111111111111,2,object_08,5,3114,0,0,1,forest_3,2,memory-2step-stake-s,716,3680276,0.0-19.0-0.1-0.219,A3DUL880Y08G95,3VGZ74AYUJWEHZMTR9OBXS32OP2GCF,3VE8AYVF8QD9DFYFPF7Q253URV68FO,3,4
220,3,object_05,object_06,653.29999998212,6,1,346.59999999404,0.5555555555555556,2,object_08,1,3119,0,1,5,library_3,2,memory-2step-stake-s,717,3688362,0.0-19.0-0.1-0.220,A3DUL880Y08G95,3VGZ74AYUJWEHZMTR9OBXS32OP2GCF,3VE8AYVF8QD9DFYFPF7Q253URV68FO,6,5
221,1,object_03,object_01,806.69999998808,2,1,457.5,0.5555555555555556,2,object_08,5,3144,0,4,5,desert_1,2,memory-2step-stake-s,718,3696559,0.0-19.0-0.1-0.221,A3DUL880Y08G95,3VGZ74AYUJWEHZMTR9OBXS32OP2GCF,3VE8AYVF8QD9DFYFPF7Q253URV68FO,2,1
222,2,object_07,object_09,638.59999999404,4,2,379.90000000596,0.2222222222222222,2,object_08,5,3154,0,4,2,forest_2,2,memory-2step-stake-s,719,3704361,0.0-19.0-0.1-0.222,A3DUL880Y08G95,3VGZ74AYUJWEHZMTR9OBXS32OP2GCF,3VE8AYVF8QD9DFYFPF7Q253URV68FO,3,4
223,2,object_07,object_09,562.19999998808,3,1,310.39999997616,0.4444444444444444,1,object_02,5,3174,0,4,0,forest_2,2,memory-2step-stake-s,720,3712313,0.0-19.0-0.1-0.223,A3DUL880Y08G95,3VGZ74AYUJWEHZMTR9OBXS32OP2GCF,3VE8AYVF8QD9DFYFPF7Q253URV68FO,3,4
224,2,object_07,object_09,603.90000000596,4,2,404.5,0.1111111111111111,2,object_08,5,3179,0,2,1,forest_1,2,memory-2step-stake-s,721,3720047,0.0-19.0-0.1-0.224,A3DUL880Y08G95,3VGZ74AYUJWEHZMTR9OBXS32OP2GCF,3VE8AYVF8QD9DFYFPF7Q253URV68FO,3,4
225,3,object_06,object_05,730.09999999404,5,1,456.0,0.2222222222222222,1,object_02,1,3181,0,2,3,library_5,2,memory-2step-stake-s,722,3727934,0.0-19.0-0.1-0.225,A3DUL880Y08G95,3VGZ74AYUJWEHZMTR9OBXS32OP2GCF,3VE8AYVF8QD9DFYFPF7Q253URV68FO,5,6
226,3,object_06,object_05,615.5,6,2,333.09999999404,0.4444444444444444,2,object_08,1,3185,0,3,4,library_5,2,memory-2step-stake-s,723,3735897,0.0-19.0-0.1-0.226,A3DUL880Y08G95,3VGZ74AYUJWEHZMTR9OBXS32OP2GCF,3VE8AYVF8QD9DFYFPF7Q253URV68FO,5,6
227,2,object_09,object_07,501.80000001192,4,1,366.69999998808,0.5555555555555556,2,object_08,5,3210,0,3,5,forest_1,2,memory-2step-stake-s,724,3744007,0.0-19.0-0.1-0.227,A3DUL880Y08G95,3VGZ74AYUJWEHZMTR9OBXS32OP2GCF,3VE8AYVF8QD9DFYFPF7Q253URV68FO,4,3
228,4,object_10,object_04,761.0,8,1,380.0,0.8888888888888888,2,object_08,5,3250,0,4,8,restaurant_7,2,memory-2step-stake-s,725,3752431,0.0-19.0-0.1-0.228,A3DUL880Y08G95,3VGZ74AYUJWEHZMTR9OBXS32OP2GCF,3VE8AYVF8QD9DFYFPF7Q253URV68FO,8,7
229,2,object_07,object_09,508.59999999404,4,2,467.5,1.0,2,object_08,1,3259,0,5,9,forest_3,2,memory-2step-stake-s,726,3761046,0.0-19.0-0.1-0.229,A3DUL880Y08G95,3VGZ74AYUJWEHZMTR9OBXS32OP2GCF,3VE8AYVF8QD9DFYFPF7Q253URV68FO,3,4
230,1,object_03,object_01,741.29999998212,2,1,476.80000001192,0.6666666666666666,2,object_08,5,3289,0,3,6,desert_7,2,memory-2step-stake-s,727,3769364,0.0-19.0-0.1-0.230,A3DUL880Y08G95,3VGZ74AYUJWEHZMTR9OBXS32OP2GCF,3VE8AYVF8QD9DFYFPF7Q253URV68FO,2,1
231,3,object_05,object_06,726.5,5,2,404.19999998808,0.3333333333333333,1,object_02,1,3292,0,3,7,library_6,2,memory-2step-stake-s,728,3777300,0.0-19.0-0.1-0.231,A3DUL880Y08G95,3VGZ74AYUJWEHZMTR9OBXS32OP2GCF,3VE8AYVF8QD9DFYFPF7Q253URV68FO,6,5
232,2,object_09,object_07,545.5,4,1,342.89999997616,0.7777777777777778,2,object_08,5,3327,0,2,7,forest_2,2,memory-2step-stake-s,729,3785583,0.0-19.0-0.1-0.232,A3DUL880Y08G95,3VGZ74AYUJWEHZMTR9OBXS32OP2GCF,3VE8AYVF8QD9DFYFPF7Q253URV68FO,4,3
233,2,object_09,object_07,471.79999998212,4,1,332.40000000596,1.0,2,object_08,5,3372,0,3,9,forest_1,2,memory-2step-stake-s,730,3794057,0.0-19.0-0.1-0.233,A3DUL880Y08G95,3VGZ74AYUJWEHZMTR9OBXS32OP2GCF,3VE8AYVF8QD9DFYFPF7Q253URV68FO,4,3
234,4,object_04,object_10,850.5,8,2,428.5,0.6666666666666666,2,object_08,1,3378,0,1,6,restaurant_8,2,memory-2step-stake-s,731,3802323,0.0-19.0-0.1-0.234,A3DUL880Y08G95,3VGZ74AYUJWEHZMTR9OBXS32OP2GCF,3VE8AYVF8QD9DFYFPF7Q253URV68FO,7,8
235,2,object_09,object_07,505.90000000596,4,1,341.69999998808,0.6666666666666666,2,object_08,1,3384,0,4,6,forest_3,2,memory-2step-stake-s,732,3810505,0.0-19.0-0.1-0.235,A3DUL880Y08G95,3VGZ74AYUJWEHZMTR9OBXS32OP2GCF,3VE8AYVF8QD9DFYFPF7Q253URV68FO,4,3
236,1,object_03,object_01,628.79999998212,2,1,411.40000000596,0.7777777777777778,2,object_08,5,3419,0,0,7,desert_7,2,memory-2step-stake-s,733,3818852,0.0-19.0-0.1-0.236,A3DUL880Y08G95,3VGZ74AYUJWEHZMTR9OBXS32OP2GCF,3VE8AYVF8QD9DFYFPF7Q253URV68FO,2,1
237,4,object_04,object_10,889.90000000596,7,1,446.0,0.0,1,object_02,5,3419,0,0,8,restaurant_8,2,memory-2step-stake-s,734,3826526,0.0-19.0-0.1-0.237,A3DUL880Y08G95,3VGZ74AYUJWEHZMTR9OBXS32OP2GCF,3VE8AYVF8QD9DFYFPF7Q253URV68FO,7,8
238,2,object_09,object_07,462.30000001192,4,1,195.20000001788,0.6666666666666666,2,object_08,5,3449,0,1,6,forest_6,2,memory-2step-stake-s,735,3834548,0.0-19.0-0.1-0.238,A3DUL880Y08G95,3VGZ74AYUJWEHZMTR9OBXS32OP2GCF,3VE8AYVF8QD9DFYFPF7Q253URV68FO,4,3
239,1,object_03,object_01,652.59999999404,2,1,596.89999997616,0.3333333333333333,2,object_08,5,3464,0,1,3,desert_5,2,memory-2step-stake-s,736,3842676,0.0-19.0-0.1-0.239,A3DUL880Y08G95,3VGZ74AYUJWEHZMTR9OBXS32OP2GCF,3VE8AYVF8QD9DFYFPF7Q253URV68FO,2,1
240,4,object_04,object_10,918.39999997616,7,1,380.5,0.3333333333333333,1,object_02,1,3467,0,3,4,restaurant_8,2,memory-2step-stake-s,737,3850590,0.0-19.0-0.1-0.240,A3DUL880Y08G95,3VGZ74AYUJWEHZMTR9OBXS32OP2GCF,3VE8AYVF8QD9DFYFPF7Q253URV68FO,7,8
241,3,object_05,object_06,676.09999999404,5,2,413.40000000596,0.6666666666666666,1,object_02,1,3473,0,6,2,library_5,2,memory-2step-stake-s,738,3858836,0.0-19.0-0.1-0.241,A3DUL880Y08G95,3VGZ74AYUJWEHZMTR9OBXS32OP2GCF,3VE8AYVF8QD9DFYFPF7Q253URV68FO,6,5
242,2,object_07,object_09,671.90000000596,3,1,366.59999999404,0.5555555555555556,1,object_02,5,3498,0,5,2,forest_6,2,memory-2step-stake-s,739,3866942,0.0-19.0-0.1-0.242,A3DUL880Y08G95,3VGZ74AYUJWEHZMTR9OBXS32OP2GCF,3VE8AYVF8QD9DFYFPF7Q253URV68FO,3,4
243,1,object_03,object_01,665.79999998212,1,2,363.79999998212,0.5555555555555556,1,object_02,5,3523,0,5,5,desert_2,2,memory-2step-stake-s,740,3875049,0.0-19.0-0.1-0.243,A3DUL880Y08G95,3VGZ74AYUJWEHZMTR9OBXS32OP2GCF,3VE8AYVF8QD9DFYFPF7Q253URV68FO,2,1
244,4,object_04,object_10,769.5,7,1,346.09999999404,0.7777777777777778,1,object_02,1,3530,0,7,5,restaurant_8,2,memory-2step-stake-s,741,3883337,0.0-19.0-0.1-0.244,A3DUL880Y08G95,3VGZ74AYUJWEHZMTR9OBXS32OP2GCF,3VE8AYVF8QD9DFYFPF7Q253URV68FO,7,8
245,4,object_10,object_04,528.30000001192,8,1,335.59999999404,0.6666666666666666,2,object_08,1,3536,0,7,6,restaurant_2,2,memory-2step-stake-s,742,3891513,0.0-19.0-0.1-0.245,A3DUL880Y08G95,3VGZ74AYUJWEHZMTR9OBXS32OP2GCF,3VE8AYVF8QD9DFYFPF7Q253URV68FO,8,7
246,3,object_06,object_05,912.09999999404,6,2,709.80000001192,0.4444444444444444,2,object_08,1,3540,0,8,4,library_3,2,memory-2step-stake-s,743,3899854,0.0-19.0-0.1-0.246,A3DUL880Y08G95,3VGZ74AYUJWEHZMTR9OBXS32OP2GCF,3VE8AYVF8QD9DFYFPF7Q253URV68FO,5,6
247,1,object_03,object_01,600.40000000596,1,2,346.19999998808,0.8888888888888888,1,object_02,1,3548,0,8,3,desert_1,2,memory-2step-stake-s,744,3908233,0.0-19.0-0.1-0.247,A3DUL880Y08G95,3VGZ74AYUJWEHZMTR9OBXS32OP2GCF,3VE8AYVF8QD9DFYFPF7Q253URV68FO,2,1
248,3,object_05,object_06,778.69999998808,5,2,356.5,0.7777777777777778,1,object_02,5,3583,0,7,3,library_6,2,memory-2step-stake-s,745,3916533,0.0-19.0-0.1-0.248,A3DUL880Y08G95,3VGZ74AYUJWEHZMTR9OBXS32OP2GCF,3VE8AYVF8QD9DFYFPF7Q253URV68FO,6,5
249,2,object_07,object_09,565.20000001788,3,1,325.19999998808,0.8888888888888888,1,object_02,5,3623,0,8,1,forest_2,2,memory-2step-stake-s,746,3924910,0.0-19.0-0.1-0.249,A3DUL880Y08G95,3VGZ74AYUJWEHZMTR9OBXS32OP2GCF,3VE8AYVF8QD9DFYFPF7Q253URV68FO,3,4
250,2,object_09,object_07,858.40000000596,4,1,291.09999999404,0.0,2,object_08,5,3623,0,7,0,forest_2,2,memory-2step-stake-s,747,3932425,0.0-19.0-0.1-0.250,A3DUL880Y08G95,3VGZ74AYUJWEHZMTR9OBXS32OP2GCF,3VE8AYVF8QD9DFYFPF7Q253URV68FO,4,3
251,1,object_03,object_01,749.20000001788,1,2,376.29999998212,0.8888888888888888,1,object_02,1,3631,0,8,1,desert_2,2,memory-2step-stake-s,748,3940852,0.0-19.0-0.1-0.251,A3DUL880Y08G95,3VGZ74AYUJWEHZMTR9OBXS32OP2GCF,3VE8AYVF8QD9DFYFPF7Q253URV68FO,2,1
252,1,object_03,object_01,705.0,1,2,376.30000001192,0.6666666666666666,1,object_02,5,3661,0,6,1,desert_7,2,memory-2step-stake-s,749,3949059,0.0-19.0-0.1-0.252,A3DUL880Y08G95,3VGZ74AYUJWEHZMTR9OBXS32OP2GCF,3VE8AYVF8QD9DFYFPF7Q253URV68FO,2,1
253,4,object_10,object_04,767.5,7,2,387.5,0.7777777777777778,1,object_02,5,3696,0,7,1,restaurant_5,2,memory-2step-stake-s,750,3957385,0.0-19.0-0.1-0.253,A3DUL880Y08G95,3VGZ74AYUJWEHZMTR9OBXS32OP2GCF,3VE8AYVF8QD9DFYFPF7Q253URV68FO,8,7
254,3,object_06,object_05,634.09999999404,5,1,443.29999998212,0.7777777777777778,1,object_02,1,3703,0,7,0,library_5,2,memory-2step-stake-s,751,3965769,0.0-19.0-0.1-0.254,A3DUL880Y08G95,3VGZ74AYUJWEHZMTR9OBXS32OP2GCF,3VE8AYVF8QD9DFYFPF7Q253URV68FO,5,6
255,1,object_01,object_03,713.80000001192,1,1,684.89999997616,0.7777777777777778,1,object_02,5,3738,0,7,0,desert_7,2,memory-2step-stake-s,752,3974398,0.0-19.0-0.1-0.255,A3DUL880Y08G95,3VGZ74AYUJWEHZMTR9OBXS32OP2GCF,3VE8AYVF8QD9DFYFPF7Q253URV68FO,1,2
