,state1,stim_left,stim_right,rt_1,choice1,response1,rt_2,points,state2,stim_state2,stake,score,practice,rews1,rews2,background,high_arm,trial_type,trial_index,time_elapsed,internal_node_id,subid,hitid,assignmentid,stim_left_num,stim_right_num
0,3,object_06,object_05,623.80000001192,6,2,-1.0,0.0,2,object_09,5,0,0,1,2,library_1,2,memory-2step-stake-s,497,779160,0.0-19.0-0.0-0.0,A3TFUZL0VQ2WI6,3SNR5F7RA597AOC2DOU98SGLOEGIEB,39K0FND3ALVT2DJB80VHTMTYEMBMAA,5,6
1,2,object_08,object_04,377.89999999106,4,1,1153.200000003,0.1111111111111111,2,object_09,5,5,0,4,1,forest_6,2,memory-2step-stake-s,498,787670,0.0-19.0-0.0-0.1,A3TFUZL0VQ2WI6,3SNR5F7RA597AOC2DOU98SGLOEGIEB,39K0FND3ALVT2DJB80VHTMTYEMBMAA,4,3
2,2,object_04,object_08,275.40000000596,3,1,804.10000000894,0.8888888888888888,1,object_02,5,45,0,8,1,forest_3,2,memory-2step-stake-s,499,796565,0.0-19.0-0.0-0.2,A3TFUZL0VQ2WI6,3SNR5F7RA597AOC2DOU98SGLOEGIEB,39K0FND3ALVT2DJB80VHTMTYEMBMAA,3,4
3,3,object_05,object_06,455.09999999404,5,2,868.09999999404,0.7777777777777778,1,object_02,1,52,0,7,1,library_4,2,memory-2step-stake-s,500,805430,0.0-19.0-0.0-0.3,A3TFUZL0VQ2WI6,3SNR5F7RA597AOC2DOU98SGLOEGIEB,39K0FND3ALVT2DJB80VHTMTYEMBMAA,6,5
4,4,object_07,object_03,547.09999999404,7,1,725.0,1.0,1,object_02,1,61,0,9,1,restaurant_4,2,memory-2step-stake-s,501,814365,0.0-19.0-0.0-0.4,A3TFUZL0VQ2WI6,3SNR5F7RA597AOC2DOU98SGLOEGIEB,39K0FND3ALVT2DJB80VHTMTYEMBMAA,7,8
5,2,object_04,object_08,293.5,3,1,100.29999999702,0.7777777777777778,1,object_02,5,96,0,7,1,forest_2,2,memory-2step-stake-s,502,822452,0.0-19.0-0.0-0.5,A3TFUZL0VQ2WI6,3SNR5F7RA597AOC2DOU98SGLOEGIEB,39K0FND3ALVT2DJB80VHTMTYEMBMAA,3,4
6,1,object_01,object_10,274.29999999702,1,2,353.5,1.0,1,object_02,5,141,0,9,0,desert_1,2,memory-2step-stake-s,503,831004,0.0-19.0-0.0-0.6,A3TFUZL0VQ2WI6,3SNR5F7RA597AOC2DOU98SGLOEGIEB,39K0FND3ALVT2DJB80VHTMTYEMBMAA,2,1
7,4,object_03,object_07,817.5,8,1,492.79999999702,0.3333333333333333,2,object_09,1,144,0,9,3,restaurant_4,2,memory-2step-stake-s,504,839060,0.0-19.0-0.0-0.7,A3TFUZL0VQ2WI6,3SNR5F7RA597AOC2DOU98SGLOEGIEB,39K0FND3ALVT2DJB80VHTMTYEMBMAA,8,7
8,1,object_10,object_01,461.89999999106,2,2,370.79999999702,0.1111111111111111,2,object_09,5,149,0,9,1,desert_1,2,memory-2step-stake-s,505,846789,0.0-19.0-0.0-0.8,A3TFUZL0VQ2WI6,3SNR5F7RA597AOC2DOU98SGLOEGIEB,39K0FND3ALVT2DJB80VHTMTYEMBMAA,1,2
9,1,object_10,object_01,294.10000000894,2,2,338.10000000894,0.0,2,object_09,5,149,0,9,0,desert_6,2,memory-2step-stake-s,506,854383,0.0-19.0-0.0-0.9,A3TFUZL0VQ2WI6,3SNR5F7RA597AOC2DOU98SGLOEGIEB,39K0FND3ALVT2DJB80VHTMTYEMBMAA,1,2
10,3,object_05,object_06,293.29999999702,5,2,277.20000000298,1.0,1,object_02,1,158,0,9,0,library_1,2,memory-2step-stake-s,507,862860,0.0-19.0-0.0-0.10,A3TFUZL0VQ2WI6,3SNR5F7RA597AOC2DOU98SGLOEGIEB,39K0FND3ALVT2DJB80VHTMTYEMBMAA,6,5
11,2,object_04,object_08,108.79999999702,3,1,357.60000000894,1.0,1,object_02,5,203,0,9,3,forest_5,2,memory-2step-stake-s,508,871412,0.0-19.0-0.0-0.11,A3TFUZL0VQ2WI6,3SNR5F7RA597AOC2DOU98SGLOEGIEB,39K0FND3ALVT2DJB80VHTMTYEMBMAA,3,4
12,3,object_06,object_05,727.60000000894,6,2,360.79999999702,0.2222222222222222,2,object_09,1,205,0,7,2,library_1,2,memory-2step-stake-s,509,879243,0.0-19.0-0.0-0.12,A3TFUZL0VQ2WI6,3SNR5F7RA597AOC2DOU98SGLOEGIEB,39K0FND3ALVT2DJB80VHTMTYEMBMAA,5,6
13,3,object_06,object_05,445.39999999106,6,2,375.39999999106,0.1111111111111111,2,object_09,1,206,0,8,1,library_4,2,memory-2step-stake-s,510,886980,0.0-19.0-0.0-0.13,A3TFUZL0VQ2WI6,3SNR5F7RA597AOC2DOU98SGLOEGIEB,39K0FND3ALVT2DJB80VHTMTYEMBMAA,5,6
14,3,object_05,object_06,302.70000000298,6,1,316.09999999404,0.1111111111111111,2,object_09,1,207,0,8,1,library_3,2,memory-2step-stake-s,511,894660,0.0-19.0-0.0-0.14,A3TFUZL0VQ2WI6,3SNR5F7RA597AOC2DOU98SGLOEGIEB,39K0FND3ALVT2DJB80VHTMTYEMBMAA,6,5
15,2,object_08,object_04,397.29999999702,4,1,216.89999999106,0.4444444444444444,2,object_09,5,227,0,9,4,forest_2,2,memory-2step-stake-s,512,902554,0.0-19.0-0.0-0.15,A3TFUZL0VQ2WI6,3SNR5F7RA597AOC2DOU98SGLOEGIEB,39K0FND3ALVT2DJB80VHTMTYEMBMAA,4,3
16,4,object_07,object_03,156.29999999702,8,2,48.300000011921,0.5555555555555556,2,object_09,5,252,0,9,5,restaurant_2,2,memory-2step-stake-s,513,910377,0.0-19.0-0.0-0.16,A3TFUZL0VQ2WI6,3SNR5F7RA597AOC2DOU98SGLOEGIEB,39K0FND3ALVT2DJB80VHTMTYEMBMAA,7,8
17,4,object_07,object_03,32.0,8,2,280.20000000298,0.6666666666666666,2,object_09,1,258,0,8,6,restaurant_8,2,memory-2step-stake-s,514,918549,0.0-19.0-0.0-0.17,A3TFUZL0VQ2WI6,3SNR5F7RA597AOC2DOU98SGLOEGIEB,39K0FND3ALVT2DJB80VHTMTYEMBMAA,7,8
18,1,object_10,object_01,30.09999999404,1,1,179.60000000894,0.7777777777777778,1,object_02,5,293,0,7,6,desert_6,2,memory-2step-stake-s,515,926718,0.0-19.0-0.0-0.18,A3TFUZL0VQ2WI6,3SNR5F7RA597AOC2DOU98SGLOEGIEB,39K0FND3ALVT2DJB80VHTMTYEMBMAA,1,2
19,2,object_04,object_08,13.09999999404,4,2,260.79999999702,0.6666666666666666,2,object_09,5,323,0,8,6,forest_2,2,memory-2step-stake-s,516,934868,0.0-19.0-0.0-0.19,A3TFUZL0VQ2WI6,3SNR5F7RA597AOC2DOU98SGLOEGIEB,39K0FND3ALVT2DJB80VHTMTYEMBMAA,3,4
20,1,object_01,object_10,135.29999999702,1,2,328.09999999404,0.8888888888888888,1,object_02,5,363,0,8,7,desert_6,2,memory-2step-stake-s,517,943294,0.0-19.0-0.0-0.20,A3TFUZL0VQ2WI6,3SNR5F7RA597AOC2DOU98SGLOEGIEB,39K0FND3ALVT2DJB80VHTMTYEMBMAA,2,1
21,4,object_07,object_03,6.0999999940395,7,1,186.69999998808,0.8888888888888888,1,object_02,5,403,0,8,9,restaurant_2,2,memory-2step-stake-s,518,951550,0.0-19.0-0.0-0.21,A3TFUZL0VQ2WI6,3SNR5F7RA597AOC2DOU98SGLOEGIEB,39K0FND3ALVT2DJB80VHTMTYEMBMAA,7,8
22,2,object_08,object_04,90.300000011921,3,2,390.59999999404,1.0,1,object_02,5,448,0,9,8,forest_3,2,memory-2step-stake-s,519,960120,0.0-19.0-0.0-0.22,A3TFUZL0VQ2WI6,3SNR5F7RA597AOC2DOU98SGLOEGIEB,39K0FND3ALVT2DJB80VHTMTYEMBMAA,4,3
23,4,object_03,object_07,109.29999999702,7,2,151.5,1.0,1,object_02,1,457,0,9,5,restaurant_4,2,memory-2step-stake-s,520,968438,0.0-19.0-0.0-0.23,A3TFUZL0VQ2WI6,3SNR5F7RA597AOC2DOU98SGLOEGIEB,39K0FND3ALVT2DJB80VHTMTYEMBMAA,8,7
24,4,object_03,object_07,77.0,8,1,272.29999999702,0.3333333333333333,2,object_09,1,460,0,7,3,restaurant_4,2,memory-2step-stake-s,521,976261,0.0-19.0-0.0-0.24,A3TFUZL0VQ2WI6,3SNR5F7RA597AOC2DOU98SGLOEGIEB,39K0FND3ALVT2DJB80VHTMTYEMBMAA,8,7
25,4,object_07,object_03,113.20000000298,8,2,196.40000000596,0.4444444444444444,2,object_09,1,464,0,7,4,restaurant_8,2,memory-2step-stake-s,522,984115,0.0-19.0-0.0-0.25,A3TFUZL0VQ2WI6,3SNR5F7RA597AOC2DOU98SGLOEGIEB,39K0FND3ALVT2DJB80VHTMTYEMBMAA,7,8
26,4,object_03,object_07,44.600000008941,7,2,75.90000000596,0.6666666666666666,1,object_02,1,470,0,6,5,restaurant_6,2,memory-2step-stake-s,523,992049,0.0-19.0-0.0-0.26,A3TFUZL0VQ2WI6,3SNR5F7RA597AOC2DOU98SGLOEGIEB,39K0FND3ALVT2DJB80VHTMTYEMBMAA,8,7
27,3,object_05,object_06,146.39999999106,6,1,90.40000000596,0.8888888888888888,2,object_09,1,478,0,7,8,library_3,2,memory-2step-stake-s,524,1000205,0.0-19.0-0.0-0.27,A3TFUZL0VQ2WI6,3SNR5F7RA597AOC2DOU98SGLOEGIEB,39K0FND3ALVT2DJB80VHTMTYEMBMAA,6,5
28,1,object_01,object_10,56.100000008941,2,1,209.29999999702,0.6666666666666666,2,object_09,1,484,0,8,6,desert_1,2,memory-2step-stake-s,525,1008264,0.0-19.0-0.0-0.28,A3TFUZL0VQ2WI6,3SNR5F7RA597AOC2DOU98SGLOEGIEB,39K0FND3ALVT2DJB80VHTMTYEMBMAA,2,1
29,3,object_05,object_06,61.70000000298,6,1,289.09999999404,0.4444444444444444,2,object_09,5,504,0,8,4,library_2,2,memory-2step-stake-s,526,1016205,0.0-19.0-0.0-0.29,A3TFUZL0VQ2WI6,3SNR5F7RA597AOC2DOU98SGLOEGIEB,39K0FND3ALVT2DJB80VHTMTYEMBMAA,6,5
30,3,object_05,object_06,150.09999999404,5,2,243.20000000298,0.7777777777777778,1,object_02,5,539,0,7,4,library_3,2,memory-2step-stake-s,527,1024415,0.0-19.0-0.0-0.30,A3TFUZL0VQ2WI6,3SNR5F7RA597AOC2DOU98SGLOEGIEB,39K0FND3ALVT2DJB80VHTMTYEMBMAA,6,5
31,1,object_01,object_10,83.0,1,2,263.79999999702,1.0,1,object_02,1,548,0,9,2,desert_6,2,memory-2step-stake-s,528,1032860,0.0-19.0-0.0-0.31,A3TFUZL0VQ2WI6,3SNR5F7RA597AOC2DOU98SGLOEGIEB,39K0FND3ALVT2DJB80VHTMTYEMBMAA,2,1
32,4,object_03,object_07,74.59999999404,8,1,286.5,0.1111111111111111,2,object_09,1,549,0,6,1,restaurant_6,2,memory-2step-stake-s,529,1040488,0.0-19.0-0.0-0.32,A3TFUZL0VQ2WI6,3SNR5F7RA597AOC2DOU98SGLOEGIEB,39K0FND3ALVT2DJB80VHTMTYEMBMAA,8,7
33,2,object_04,object_08,167.29999999702,3,1,95.59999999404,1.0,1,object_02,5,594,0,9,2,forest_5,2,memory-2step-stake-s,530,1048767,0.0-19.0-0.0-0.33,A3TFUZL0VQ2WI6,3SNR5F7RA597AOC2DOU98SGLOEGIEB,39K0FND3ALVT2DJB80VHTMTYEMBMAA,3,4
34,1,object_01,object_10,132.69999998808,2,1,344.40000000596,0.3333333333333333,2,object_09,1,597,0,9,3,desert_5,2,memory-2step-stake-s,531,1056667,0.0-19.0-0.0-0.34,A3TFUZL0VQ2WI6,3SNR5F7RA597AOC2DOU98SGLOEGIEB,39K0FND3ALVT2DJB80VHTMTYEMBMAA,2,1
35,3,object_05,object_06,66.0,6,1,322.5,0.3333333333333333,2,object_09,1,600,0,5,3,library_2,2,memory-2step-stake-s,532,1064544,0.0-19.0-0.0-0.35,A3TFUZL0VQ2WI6,3SNR5F7RA597AOC2DOU98SGLOEGIEB,39K0FND3ALVT2DJB80VHTMTYEMBMAA,6,5
36,4,object_03,object_07,117.30000001192,7,2,354.20000000298,0.8888888888888888,1,object_02,1,608,0,8,6,restaurant_2,2,memory-2step-stake-s,533,1072980,0.0-19.0-0.0-0.36,A3TFUZL0VQ2WI6,3SNR5F7RA597AOC2DOU98SGLOEGIEB,39K0FND3ALVT2DJB80VHTMTYEMBMAA,8,7
37,1,object_01,object_10,67.90000000596,1,2,-1.0,0.0,1,object_02,5,608,0,8,5,desert_6,2,memory-2step-stake-s,534,1081522,0.0-19.0-0.0-0.37,A3TFUZL0VQ2WI6,3SNR5F7RA597AOC2DOU98SGLOEGIEB,39K0FND3ALVT2DJB80VHTMTYEMBMAA,2,1
38,3,object_06,object_05,733.5,5,1,1226.200000003,0.7777777777777778,1,object_02,1,615,0,7,3,library_2,2,memory-2step-stake-s,535,1090708,0.0-19.0-0.0-0.38,A3TFUZL0VQ2WI6,3SNR5F7RA597AOC2DOU98SGLOEGIEB,39K0FND3ALVT2DJB80VHTMTYEMBMAA,5,6
39,4,object_07,object_03,1478.700000003,7,1,578.29999999702,0.3333333333333333,1,object_02,1,618,0,3,2,restaurant_8,2,memory-2step-stake-s,536,1098838,0.0-19.0-0.0-0.39,A3TFUZL0VQ2WI6,3SNR5F7RA597AOC2DOU98SGLOEGIEB,39K0FND3ALVT2DJB80VHTMTYEMBMAA,7,8
40,4,object_07,object_03,1321.700000003,7,1,592.0,0.4444444444444444,1,object_02,1,622,0,4,1,restaurant_2,2,memory-2step-stake-s,537,1107088,0.0-19.0-0.0-0.40,A3TFUZL0VQ2WI6,3SNR5F7RA597AOC2DOU98SGLOEGIEB,39K0FND3ALVT2DJB80VHTMTYEMBMAA,7,8
41,2,object_04,object_08,75.399999991059,4,2,4.4000000059605,0.4444444444444444,2,object_09,5,642,0,2,4,forest_5,2,memory-2step-stake-s,538,1114749,0.0-19.0-0.0-0.41,A3TFUZL0VQ2WI6,3SNR5F7RA597AOC2DOU98SGLOEGIEB,39K0FND3ALVT2DJB80VHTMTYEMBMAA,3,4
42,3,object_06,object_05,-1.0,-1,-1,-1.0,0.0,-,0,1,642,0,3,8,library_1,2,memory-2step-stake-s,539,1121280,0.0-19.0-0.0-0.42,A3TFUZL0VQ2WI6,3SNR5F7RA597AOC2DOU98SGLOEGIEB,39K0FND3ALVT2DJB80VHTMTYEMBMAA,5,6
43,1,object_10,object_01,21.0,1,1,383.19999998808,0.2222222222222222,1,object_02,5,652,0,2,8,desert_5,2,memory-2step-stake-s,540,1129112,0.0-19.0-0.0-0.43,A3TFUZL0VQ2WI6,3SNR5F7RA597AOC2DOU98SGLOEGIEB,39K0FND3ALVT2DJB80VHTMTYEMBMAA,1,2
44,4,object_03,object_07,163.79999999702,8,1,127.40000000596,0.7777777777777778,2,object_09,5,687,0,1,7,restaurant_8,2,memory-2step-stake-s,541,1137211,0.0-19.0-0.0-0.44,A3TFUZL0VQ2WI6,3SNR5F7RA597AOC2DOU98SGLOEGIEB,39K0FND3ALVT2DJB80VHTMTYEMBMAA,8,7
45,4,object_07,object_03,188.20000000298,8,2,-1.0,0.0,2,object_09,5,687,0,0,5,restaurant_6,2,memory-2step-stake-s,542,1145752,0.0-19.0-0.0-0.45,A3TFUZL0VQ2WI6,3SNR5F7RA597AOC2DOU98SGLOEGIEB,39K0FND3ALVT2DJB80VHTMTYEMBMAA,7,8
46,2,object_08,object_04,511.80000001192,4,1,-1.0,0.0,2,object_09,5,687,0,4,3,forest_3,2,memory-2step-stake-s,543,1154288,0.0-19.0-0.0-0.46,A3TFUZL0VQ2WI6,3SNR5F7RA597AOC2DOU98SGLOEGIEB,39K0FND3ALVT2DJB80VHTMTYEMBMAA,4,3
47,3,object_06,object_05,139.90000000596,6,2,61.0,0.3333333333333333,2,object_09,1,690,0,5,3,library_3,2,memory-2step-stake-s,544,1161905,0.0-19.0-0.0-0.47,A3TFUZL0VQ2WI6,3SNR5F7RA597AOC2DOU98SGLOEGIEB,39K0FND3ALVT2DJB80VHTMTYEMBMAA,5,6
48,3,object_05,object_06,98.09999999404,6,1,134.5,0.3333333333333333,2,object_09,1,693,0,6,3,library_3,2,memory-2step-stake-s,545,1169588,0.0-19.0-0.0-0.48,A3TFUZL0VQ2WI6,3SNR5F7RA597AOC2DOU98SGLOEGIEB,39K0FND3ALVT2DJB80VHTMTYEMBMAA,6,5
49,2,object_08,object_04,147.09999999404,4,1,-1.0,0.0,2,object_09,5,693,0,7,0,forest_3,2,memory-2step-stake-s,546,1178132,0.0-19.0-0.0-0.49,A3TFUZL0VQ2WI6,3SNR5F7RA597AOC2DOU98SGLOEGIEB,39K0FND3ALVT2DJB80VHTMTYEMBMAA,4,3
50,1,object_01,object_10,120.79999999702,1,2,243.29999999702,0.5555555555555556,1,object_02,5,718,0,5,1,desert_6,2,memory-2step-stake-s,547,1186139,0.0-19.0-0.0-0.50,A3TFUZL0VQ2WI6,3SNR5F7RA597AOC2DOU98SGLOEGIEB,39K0FND3ALVT2DJB80VHTMTYEMBMAA,2,1
51,3,object_06,object_05,276.59999999404,6,2,421.40000000596,0.0,2,object_09,5,718,0,5,0,library_2,2,memory-2step-stake-s,548,1193800,0.0-19.0-0.0-0.51,A3TFUZL0VQ2WI6,3SNR5F7RA597AOC2DOU98SGLOEGIEB,39K0FND3ALVT2DJB80VHTMTYEMBMAA,5,6
52,3,object_05,object_06,156.19999998808,5,2,560.5,0.2222222222222222,1,object_02,1,720,0,2,1,library_3,2,memory-2step-stake-s,549,1201811,0.0-19.0-0.0-0.52,A3TFUZL0VQ2WI6,3SNR5F7RA597AOC2DOU98SGLOEGIEB,39K0FND3ALVT2DJB80VHTMTYEMBMAA,6,5
53,2,object_08,object_04,696.20000000298,4,1,425.39999999106,0.1111111111111111,2,object_09,5,725,0,2,1,forest_5,2,memory-2step-stake-s,550,1209581,0.0-19.0-0.0-0.53,A3TFUZL0VQ2WI6,3SNR5F7RA597AOC2DOU98SGLOEGIEB,39K0FND3ALVT2DJB80VHTMTYEMBMAA,4,3
54,2,object_04,object_08,295.70000000298,3,1,162.0,0.4444444444444444,1,object_02,5,745,0,4,2,forest_6,2,memory-2step-stake-s,551,1217405,0.0-19.0-0.0-0.54,A3TFUZL0VQ2WI6,3SNR5F7RA597AOC2DOU98SGLOEGIEB,39K0FND3ALVT2DJB80VHTMTYEMBMAA,3,4
55,3,object_05,object_06,152.5,5,2,275.70000000298,0.5555555555555556,1,object_02,5,770,0,5,1,library_1,2,memory-2step-stake-s,552,1225440,0.0-19.0-0.0-0.55,A3TFUZL0VQ2WI6,3SNR5F7RA597AOC2DOU98SGLOEGIEB,39K0FND3ALVT2DJB80VHTMTYEMBMAA,6,5
56,4,object_03,object_07,101.09999999404,7,2,534.59999999404,0.7777777777777778,1,object_02,1,777,0,7,1,restaurant_6,2,memory-2step-stake-s,553,1233945,0.0-19.0-0.0-0.56,A3TFUZL0VQ2WI6,3SNR5F7RA597AOC2DOU98SGLOEGIEB,39K0FND3ALVT2DJB80VHTMTYEMBMAA,8,7
57,1,object_10,object_01,228.39999999106,2,2,298.09999999404,0.3333333333333333,2,object_09,5,792,0,9,3,desert_6,2,memory-2step-stake-s,554,1241800,0.0-19.0-0.0-0.57,A3TFUZL0VQ2WI6,3SNR5F7RA597AOC2DOU98SGLOEGIEB,39K0FND3ALVT2DJB80VHTMTYEMBMAA,1,2
58,3,object_05,object_06,102.70000000298,6,1,273.40000000596,0.2222222222222222,2,object_09,1,794,0,6,2,library_2,2,memory-2step-stake-s,555,1249515,0.0-19.0-0.0-0.58,A3TFUZL0VQ2WI6,3SNR5F7RA597AOC2DOU98SGLOEGIEB,39K0FND3ALVT2DJB80VHTMTYEMBMAA,6,5
59,4,object_07,object_03,135.0,7,1,302.39999999106,0.5555555555555556,1,object_02,5,819,0,5,5,restaurant_2,2,memory-2step-stake-s,556,1257577,0.0-19.0-0.0-0.59,A3TFUZL0VQ2WI6,3SNR5F7RA597AOC2DOU98SGLOEGIEB,39K0FND3ALVT2DJB80VHTMTYEMBMAA,7,8
60,4,object_03,object_07,220.30000001192,7,2,72.600000008941,0.5555555555555556,1,object_02,1,824,0,5,8,restaurant_8,2,memory-2step-stake-s,557,1265422,0.0-19.0-0.0-0.60,A3TFUZL0VQ2WI6,3SNR5F7RA597AOC2DOU98SGLOEGIEB,39K0FND3ALVT2DJB80VHTMTYEMBMAA,8,7
61,2,object_08,object_04,347.70000000298,3,2,63.20000000298,0.8888888888888888,1,object_02,5,864,0,8,8,forest_6,2,memory-2step-stake-s,558,1273569,0.0-19.0-0.0-0.61,A3TFUZL0VQ2WI6,3SNR5F7RA597AOC2DOU98SGLOEGIEB,39K0FND3ALVT2DJB80VHTMTYEMBMAA,4,3
62,2,object_04,object_08,8.2000000029802,4,2,319.5,0.8888888888888888,2,object_09,5,904,0,7,8,forest_6,2,memory-2step-stake-s,559,1281970,0.0-19.0-0.0-0.62,A3TFUZL0VQ2WI6,3SNR5F7RA597AOC2DOU98SGLOEGIEB,39K0FND3ALVT2DJB80VHTMTYEMBMAA,3,4
63,3,object_06,object_05,334.70000000298,6,2,242.20000000298,0.7777777777777778,2,object_09,1,911,0,7,7,library_3,2,memory-2step-stake-s,560,1290189,0.0-19.0-0.0-0.63,A3TFUZL0VQ2WI6,3SNR5F7RA597AOC2DOU98SGLOEGIEB,39K0FND3ALVT2DJB80VHTMTYEMBMAA,5,6
64,1,object_10,object_01,91.40000000596,2,2,306.5,0.7777777777777778,2,object_09,5,946,0,9,7,desert_5,2,memory-2step-stake-s,561,1298488,0.0-19.0-0.0-0.64,A3TFUZL0VQ2WI6,3SNR5F7RA597AOC2DOU98SGLOEGIEB,39K0FND3ALVT2DJB80VHTMTYEMBMAA,1,2
65,4,object_03,object_07,50.40000000596,8,1,237.09999999404,0.7777777777777778,2,object_09,1,953,0,9,7,restaurant_8,2,memory-2step-stake-s,562,1306700,0.0-19.0-0.0-0.65,A3TFUZL0VQ2WI6,3SNR5F7RA597AOC2DOU98SGLOEGIEB,39K0FND3ALVT2DJB80VHTMTYEMBMAA,8,7
66,1,object_01,object_10,143.89999999106,1,2,70.800000011921,0.6666666666666666,1,object_02,5,983,0,6,4,desert_4,2,memory-2step-stake-s,563,1314637,0.0-19.0-0.0-0.66,A3TFUZL0VQ2WI6,3SNR5F7RA597AOC2DOU98SGLOEGIEB,39K0FND3ALVT2DJB80VHTMTYEMBMAA,2,1
67,2,object_04,object_08,38.5,3,1,214.40000000596,0.5555555555555556,1,object_02,5,1008,0,5,5,forest_6,2,memory-2step-stake-s,564,1322633,0.0-19.0-0.0-0.67,A3TFUZL0VQ2WI6,3SNR5F7RA597AOC2DOU98SGLOEGIEB,39K0FND3ALVT2DJB80VHTMTYEMBMAA,3,4
68,2,object_04,object_08,66.699999988079,4,2,149.19999998808,0.5555555555555556,2,object_09,1,1013,0,5,5,forest_2,2,memory-2step-stake-s,565,1330562,0.0-19.0-0.0-0.68,A3TFUZL0VQ2WI6,3SNR5F7RA597AOC2DOU98SGLOEGIEB,39K0FND3ALVT2DJB80VHTMTYEMBMAA,3,4
69,3,object_06,object_05,127.0,5,1,295.70000000298,0.5555555555555556,1,object_02,1,1018,0,5,4,library_2,2,memory-2step-stake-s,566,1338629,0.0-19.0-0.0-0.69,A3TFUZL0VQ2WI6,3SNR5F7RA597AOC2DOU98SGLOEGIEB,39K0FND3ALVT2DJB80VHTMTYEMBMAA,5,6
70,4,object_03,object_07,782.60000000894,8,1,995.30000001192,0.6666666666666666,2,object_09,5,1048,0,3,6,restaurant_6,2,memory-2step-stake-s,567,1347500,0.0-19.0-0.0-0.70,A3TFUZL0VQ2WI6,3SNR5F7RA597AOC2DOU98SGLOEGIEB,39K0FND3ALVT2DJB80VHTMTYEMBMAA,8,7
71,4,object_07,object_03,207.79999999702,7,1,213.10000000894,0.6666666666666666,1,object_02,5,1078,0,6,4,restaurant_2,2,memory-2step-stake-s,568,1355554,0.0-19.0-0.0-0.71,A3TFUZL0VQ2WI6,3SNR5F7RA597AOC2DOU98SGLOEGIEB,39K0FND3ALVT2DJB80VHTMTYEMBMAA,7,8
72,1,object_01,object_10,202.5,1,2,323.79999999702,0.7777777777777778,1,object_02,5,1113,0,7,3,desert_4,2,memory-2step-stake-s,569,1363839,0.0-19.0-0.0-0.72,A3TFUZL0VQ2WI6,3SNR5F7RA597AOC2DOU98SGLOEGIEB,39K0FND3ALVT2DJB80VHTMTYEMBMAA,2,1
73,2,object_04,object_08,11.29999999702,3,1,98.59999999404,0.7777777777777778,1,object_02,5,1148,0,7,4,forest_6,2,memory-2step-stake-s,570,1371898,0.0-19.0-0.0-0.73,A3TFUZL0VQ2WI6,3SNR5F7RA597AOC2DOU98SGLOEGIEB,39K0FND3ALVT2DJB80VHTMTYEMBMAA,3,4
74,4,object_03,object_07,151.29999999702,8,1,310.30000001192,0.0,2,object_09,1,1148,0,6,0,restaurant_4,2,memory-2step-stake-s,571,1379436,0.0-19.0-0.0-0.74,A3TFUZL0VQ2WI6,3SNR5F7RA597AOC2DOU98SGLOEGIEB,39K0FND3ALVT2DJB80VHTMTYEMBMAA,8,7
75,2,object_08,object_04,53.09999999404,4,1,257.20000000298,0.2222222222222222,2,object_09,5,1158,0,8,2,forest_5,2,memory-2step-stake-s,572,1387131,0.0-19.0-0.0-0.75,A3TFUZL0VQ2WI6,3SNR5F7RA597AOC2DOU98SGLOEGIEB,39K0FND3ALVT2DJB80VHTMTYEMBMAA,4,3
76,1,object_01,object_10,301.09999999404,1,2,268.0,0.8888888888888888,1,object_02,5,1198,0,8,3,desert_4,2,memory-2step-stake-s,573,1395464,0.0-19.0-0.0-0.76,A3TFUZL0VQ2WI6,3SNR5F7RA597AOC2DOU98SGLOEGIEB,39K0FND3ALVT2DJB80VHTMTYEMBMAA,2,1
77,2,object_04,object_08,208.5,4,2,295.89999999106,0.3333333333333333,2,object_09,1,1201,0,8,3,forest_6,2,memory-2step-stake-s,574,1403314,0.0-19.0-0.0-0.77,A3TFUZL0VQ2WI6,3SNR5F7RA597AOC2DOU98SGLOEGIEB,39K0FND3ALVT2DJB80VHTMTYEMBMAA,3,4
78,1,object_01,object_10,310.20000000298,2,1,585.39999999106,0.1111111111111111,2,object_09,1,1202,0,9,1,desert_5,2,memory-2step-stake-s,575,1411235,0.0-19.0-0.0-0.78,A3TFUZL0VQ2WI6,3SNR5F7RA597AOC2DOU98SGLOEGIEB,39K0FND3ALVT2DJB80VHTMTYEMBMAA,2,1
79,3,object_05,object_06,228.70000000298,6,1,149.39999999106,0.1111111111111111,2,object_09,5,1207,0,8,1,library_4,2,memory-2step-stake-s,576,1418723,0.0-19.0-0.0-0.79,A3TFUZL0VQ2WI6,3SNR5F7RA597AOC2DOU98SGLOEGIEB,39K0FND3ALVT2DJB80VHTMTYEMBMAA,6,5
80,4,object_03,object_07,30.79999999702,8,1,-1.0,0.0,2,object_09,5,1207,0,8,1,restaurant_2,2,memory-2step-stake-s,577,1427262,0.0-19.0-0.0-0.80,A3TFUZL0VQ2WI6,3SNR5F7RA597AOC2DOU98SGLOEGIEB,39K0FND3ALVT2DJB80VHTMTYEMBMAA,8,7
81,4,object_03,object_07,353.20000000298,7,2,363.80000001192,0.8888888888888888,1,object_02,1,1215,0,8,2,restaurant_4,2,memory-2step-stake-s,578,1435682,0.0-19.0-0.0-0.81,A3TFUZL0VQ2WI6,3SNR5F7RA597AOC2DOU98SGLOEGIEB,39K0FND3ALVT2DJB80VHTMTYEMBMAA,8,7
82,2,object_08,object_04,216.29999999702,3,2,9.7000000029802,1.0,1,object_02,5,1260,0,9,4,forest_5,2,memory-2step-stake-s,579,1443861,0.0-19.0-0.0-0.82,A3TFUZL0VQ2WI6,3SNR5F7RA597AOC2DOU98SGLOEGIEB,39K0FND3ALVT2DJB80VHTMTYEMBMAA,4,3
83,4,object_03,object_07,337.0,8,1,764.10000000894,0.6666666666666666,2,object_09,1,1266,0,9,6,restaurant_2,2,memory-2step-stake-s,580,1452484,0.0-19.0-0.0-0.83,A3TFUZL0VQ2WI6,3SNR5F7RA597AOC2DOU98SGLOEGIEB,39K0FND3ALVT2DJB80VHTMTYEMBMAA,8,7
84,3,object_05,object_06,355.39999999106,6,1,501.79999999702,0.4444444444444444,2,object_09,1,1270,0,8,4,library_1,2,memory-2step-stake-s,581,1460640,0.0-19.0-0.0-0.84,A3TFUZL0VQ2WI6,3SNR5F7RA597AOC2DOU98SGLOEGIEB,39K0FND3ALVT2DJB80VHTMTYEMBMAA,6,5
85,2,object_04,object_08,334.60000000894,3,1,310.5,1.0,1,object_02,5,1315,0,9,5,forest_3,2,memory-2step-stake-s,582,1469129,0.0-19.0-0.0-0.85,A3TFUZL0VQ2WI6,3SNR5F7RA597AOC2DOU98SGLOEGIEB,39K0FND3ALVT2DJB80VHTMTYEMBMAA,3,4
86,4,object_03,object_07,331.09999999404,7,2,364.89999999106,0.8888888888888888,1,object_02,1,1323,0,8,5,restaurant_8,2,memory-2step-stake-s,583,1477573,0.0-19.0-0.0-0.86,A3TFUZL0VQ2WI6,3SNR5F7RA597AOC2DOU98SGLOEGIEB,39K0FND3ALVT2DJB80VHTMTYEMBMAA,8,7
87,1,object_01,object_10,367.70000000298,2,1,278.39999999106,0.7777777777777778,2,object_09,5,1358,0,9,7,desert_5,2,memory-2step-stake-s,584,1485817,0.0-19.0-0.0-0.87,A3TFUZL0VQ2WI6,3SNR5F7RA597AOC2DOU98SGLOEGIEB,39K0FND3ALVT2DJB80VHTMTYEMBMAA,2,1
88,1,object_10,object_01,337.40000000596,2,2,470.20000000298,0.5555555555555556,2,object_09,1,1363,0,7,5,desert_1,2,memory-2step-stake-s,585,1494050,0.0-19.0-0.0-0.88,A3TFUZL0VQ2WI6,3SNR5F7RA597AOC2DOU98SGLOEGIEB,39K0FND3ALVT2DJB80VHTMTYEMBMAA,1,2
89,4,object_07,object_03,324.59999999404,8,2,212.20000000298,0.5555555555555556,2,object_09,1,1368,0,8,5,restaurant_2,2,memory-2step-stake-s,586,1502015,0.0-19.0-0.0-0.89,A3TFUZL0VQ2WI6,3SNR5F7RA597AOC2DOU98SGLOEGIEB,39K0FND3ALVT2DJB80VHTMTYEMBMAA,7,8
90,4,object_07,object_03,390.0,7,1,1154.299999997,0.8888888888888888,1,object_02,1,1376,0,8,4,restaurant_2,2,memory-2step-stake-s,587,1511246,0.0-19.0-0.0-0.90,A3TFUZL0VQ2WI6,3SNR5F7RA597AOC2DOU98SGLOEGIEB,39K0FND3ALVT2DJB80VHTMTYEMBMAA,7,8
91,2,object_04,object_08,102.0,3,1,244.79999999702,1.0,1,object_02,5,1421,0,9,1,forest_5,2,memory-2step-stake-s,588,1519661,0.0-19.0-0.0-0.91,A3TFUZL0VQ2WI6,3SNR5F7RA597AOC2DOU98SGLOEGIEB,39K0FND3ALVT2DJB80VHTMTYEMBMAA,3,4
92,4,object_07,object_03,217.20000000298,7,1,341.20000000298,0.5555555555555556,1,object_02,5,1446,0,5,1,restaurant_8,2,memory-2step-stake-s,589,1527770,0.0-19.0-0.0-0.92,A3TFUZL0VQ2WI6,3SNR5F7RA597AOC2DOU98SGLOEGIEB,39K0FND3ALVT2DJB80VHTMTYEMBMAA,7,8
93,2,object_08,object_04,300.40000000596,3,2,317.40000000596,0.7777777777777778,1,object_02,5,1481,0,7,0,forest_2,2,memory-2step-stake-s,590,1536052,0.0-19.0-0.0-0.93,A3TFUZL0VQ2WI6,3SNR5F7RA597AOC2DOU98SGLOEGIEB,39K0FND3ALVT2DJB80VHTMTYEMBMAA,4,3
94,3,object_06,object_05,308.10000000894,5,1,273.29999999702,0.8888888888888888,1,object_02,5,1521,0,8,0,library_3,2,memory-2step-stake-s,591,1544400,0.0-19.0-0.0-0.94,A3TFUZL0VQ2WI6,3SNR5F7RA597AOC2DOU98SGLOEGIEB,39K0FND3ALVT2DJB80VHTMTYEMBMAA,5,6
95,1,object_01,object_10,416.0,1,2,334.79999999702,0.8888888888888888,1,object_02,5,1561,0,8,4,desert_5,2,memory-2step-stake-s,592,1552818,0.0-19.0-0.0-0.95,A3TFUZL0VQ2WI6,3SNR5F7RA597AOC2DOU98SGLOEGIEB,39K0FND3ALVT2DJB80VHTMTYEMBMAA,2,1
96,1,object_01,object_10,383.40000000596,1,2,353.10000000894,0.8888888888888888,1,object_02,5,1601,0,8,2,desert_4,2,memory-2step-stake-s,593,1561253,0.0-19.0-0.0-0.96,A3TFUZL0VQ2WI6,3SNR5F7RA597AOC2DOU98SGLOEGIEB,39K0FND3ALVT2DJB80VHTMTYEMBMAA,2,1
97,3,object_05,object_06,586.60000000894,5,2,323.79999999702,0.8888888888888888,1,object_02,1,1609,0,8,1,library_1,2,memory-2step-stake-s,594,1569647,0.0-19.0-0.0-0.97,A3TFUZL0VQ2WI6,3SNR5F7RA597AOC2DOU98SGLOEGIEB,39K0FND3ALVT2DJB80VHTMTYEMBMAA,6,5
98,3,object_05,object_06,591.0,6,1,292.29999999702,0.0,2,object_09,5,1609,0,7,0,library_3,2,memory-2step-stake-s,595,1577188,0.0-19.0-0.0-0.98,A3TFUZL0VQ2WI6,3SNR5F7RA597AOC2DOU98SGLOEGIEB,39K0FND3ALVT2DJB80VHTMTYEMBMAA,6,5
99,4,object_07,object_03,311.29999999702,7,1,273.20000000298,0.8888888888888888,1,object_02,5,1649,0,8,3,restaurant_4,2,memory-2step-stake-s,596,1585531,0.0-19.0-0.0-0.99,A3TFUZL0VQ2WI6,3SNR5F7RA597AOC2DOU98SGLOEGIEB,39K0FND3ALVT2DJB80VHTMTYEMBMAA,7,8
100,1,object_10,object_01,291.29999999702,1,1,344.39999999106,0.7777777777777778,1,object_02,5,1684,0,7,0,desert_5,2,memory-2step-stake-s,597,1593849,0.0-19.0-0.0-0.100,A3TFUZL0VQ2WI6,3SNR5F7RA597AOC2DOU98SGLOEGIEB,39K0FND3ALVT2DJB80VHTMTYEMBMAA,1,2
101,2,object_04,object_08,452.20000000298,4,2,357.79999999702,0.1111111111111111,2,object_09,1,1685,0,8,1,forest_2,2,memory-2step-stake-s,598,1601563,0.0-19.0-0.0-0.101,A3TFUZL0VQ2WI6,3SNR5F7RA597AOC2DOU98SGLOEGIEB,39K0FND3ALVT2DJB80VHTMTYEMBMAA,3,4
102,1,object_10,object_01,367.79999999702,2,2,334.59999999404,0.1111111111111111,2,object_09,5,1690,0,5,1,desert_4,2,memory-2step-stake-s,599,1609254,0.0-19.0-0.0-0.102,A3TFUZL0VQ2WI6,3SNR5F7RA597AOC2DOU98SGLOEGIEB,39K0FND3ALVT2DJB80VHTMTYEMBMAA,1,2
103,3,object_06,object_05,586.0,6,2,379.0,0.2222222222222222,2,object_09,1,1692,0,4,2,library_2,2,memory-2step-stake-s,600,1617090,0.0-19.0-0.0-0.103,A3TFUZL0VQ2WI6,3SNR5F7RA597AOC2DOU98SGLOEGIEB,39K0FND3ALVT2DJB80VHTMTYEMBMAA,5,6
104,2,object_08,object_04,371.29999999702,3,2,654.20000000298,0.4444444444444444,1,object_02,5,1712,0,4,5,forest_5,2,memory-2step-stake-s,601,1625410,0.0-19.0-0.0-0.104,A3TFUZL0VQ2WI6,3SNR5F7RA597AOC2DOU98SGLOEGIEB,39K0FND3ALVT2DJB80VHTMTYEMBMAA,4,3
105,4,object_03,object_07,428.09999999404,8,1,342.40000000596,0.4444444444444444,2,object_09,1,1716,0,3,4,restaurant_6,2,memory-2step-stake-s,602,1633424,0.0-19.0-0.0-0.105,A3TFUZL0VQ2WI6,3SNR5F7RA597AOC2DOU98SGLOEGIEB,39K0FND3ALVT2DJB80VHTMTYEMBMAA,8,7
106,1,object_10,object_01,393.5,1,1,291.40000000596,0.1111111111111111,1,object_02,5,1721,0,1,4,desert_1,2,memory-2step-stake-s,603,1641057,0.0-19.0-0.0-0.106,A3TFUZL0VQ2WI6,3SNR5F7RA597AOC2DOU98SGLOEGIEB,39K0FND3ALVT2DJB80VHTMTYEMBMAA,1,2
107,2,object_04,object_08,389.79999999702,3,1,297.29999999702,0.1111111111111111,1,object_02,5,1726,0,1,6,forest_3,2,memory-2step-stake-s,604,1648707,0.0-19.0-0.0-0.107,A3TFUZL0VQ2WI6,3SNR5F7RA597AOC2DOU98SGLOEGIEB,39K0FND3ALVT2DJB80VHTMTYEMBMAA,3,4
108,4,object_07,object_03,364.69999998808,7,1,394.60000000894,0.4444444444444444,1,object_02,1,1730,0,4,4,restaurant_2,2,memory-2step-stake-s,605,1656770,0.0-19.0-0.0-0.108,A3TFUZL0VQ2WI6,3SNR5F7RA597AOC2DOU98SGLOEGIEB,39K0FND3ALVT2DJB80VHTMTYEMBMAA,7,8
109,4,object_03,object_07,324.20000000298,7,2,282.0,0.6666666666666666,1,object_02,1,1736,0,6,6,restaurant_8,2,memory-2step-stake-s,606,1664924,0.0-19.0-0.0-0.109,A3TFUZL0VQ2WI6,3SNR5F7RA597AOC2DOU98SGLOEGIEB,39K0FND3ALVT2DJB80VHTMTYEMBMAA,8,7
110,4,object_07,object_03,406.90000000596,7,1,309.70000000298,1.0,1,object_02,1,1745,0,9,7,restaurant_4,2,memory-2step-stake-s,607,1673416,0.0-19.0-0.0-0.110,A3TFUZL0VQ2WI6,3SNR5F7RA597AOC2DOU98SGLOEGIEB,39K0FND3ALVT2DJB80VHTMTYEMBMAA,7,8
111,1,object_01,object_10,2.1999999880791,1,2,318.79999999702,1.0,1,object_02,5,1790,0,9,6,desert_6,2,memory-2step-stake-s,608,1681928,0.0-19.0-0.0-0.111,A3TFUZL0VQ2WI6,3SNR5F7RA597AOC2DOU98SGLOEGIEB,39K0FND3ALVT2DJB80VHTMTYEMBMAA,2,1
112,1,object_10,object_01,320.20000000298,1,1,256.29999999702,1.0,1,object_02,5,1835,0,9,6,desert_6,2,memory-2step-stake-s,609,1690376,0.0-19.0-0.0-0.112,A3TFUZL0VQ2WI6,3SNR5F7RA597AOC2DOU98SGLOEGIEB,39K0FND3ALVT2DJB80VHTMTYEMBMAA,1,2
113,4,object_07,object_03,156.09999999404,8,2,53.399999991059,0.3333333333333333,2,object_09,1,1838,0,5,3,restaurant_8,2,memory-2step-stake-s,610,1697988,0.0-19.0-0.0-0.113,A3TFUZL0VQ2WI6,3SNR5F7RA597AOC2DOU98SGLOEGIEB,39K0FND3ALVT2DJB80VHTMTYEMBMAA,7,8
114,1,object_10,object_01,231.40000000596,2,2,242.5,0.4444444444444444,2,object_09,5,1858,0,5,4,desert_5,2,memory-2step-stake-s,611,1705904,0.0-19.0-0.0-0.114,A3TFUZL0VQ2WI6,3SNR5F7RA597AOC2DOU98SGLOEGIEB,39K0FND3ALVT2DJB80VHTMTYEMBMAA,1,2
115,2,object_08,object_04,281.20000000298,3,2,267.5,0.5555555555555556,1,object_02,1,1863,0,5,5,forest_6,2,memory-2step-stake-s,612,1713947,0.0-19.0-0.0-0.115,A3TFUZL0VQ2WI6,3SNR5F7RA597AOC2DOU98SGLOEGIEB,39K0FND3ALVT2DJB80VHTMTYEMBMAA,4,3
116,1,object_10,object_01,332.0,1,1,265.90000000596,0.5555555555555556,1,object_02,5,1888,0,5,7,desert_6,2,memory-2step-stake-s,613,1721991,0.0-19.0-0.0-0.116,A3TFUZL0VQ2WI6,3SNR5F7RA597AOC2DOU98SGLOEGIEB,39K0FND3ALVT2DJB80VHTMTYEMBMAA,1,2
117,3,object_05,object_06,172.60000000894,5,2,98.79999999702,0.6666666666666666,1,object_02,1,1894,0,6,4,library_4,2,memory-2step-stake-s,614,1729985,0.0-19.0-0.0-0.117,A3TFUZL0VQ2WI6,3SNR5F7RA597AOC2DOU98SGLOEGIEB,39K0FND3ALVT2DJB80VHTMTYEMBMAA,6,5
118,2,object_04,object_08,317.5,4,2,318.20000000298,0.4444444444444444,2,object_09,5,1914,0,9,4,forest_3,2,memory-2step-stake-s,615,1737962,0.0-19.0-0.0-0.118,A3TFUZL0VQ2WI6,3SNR5F7RA597AOC2DOU98SGLOEGIEB,39K0FND3ALVT2DJB80VHTMTYEMBMAA,3,4
119,2,object_04,object_08,230.79999999702,4,2,317.0,0.3333333333333333,2,object_09,5,1929,0,9,3,forest_3,2,memory-2step-stake-s,616,1745824,0.0-19.0-0.0-0.119,A3TFUZL0VQ2WI6,3SNR5F7RA597AOC2DOU98SGLOEGIEB,39K0FND3ALVT2DJB80VHTMTYEMBMAA,3,4
120,3,object_05,object_06,80.40000000596,6,1,102.79999999702,0.2222222222222222,2,object_09,5,1939,0,7,2,library_1,2,memory-2step-stake-s,617,1753371,0.0-19.0-0.0-0.120,A3TFUZL0VQ2WI6,3SNR5F7RA597AOC2DOU98SGLOEGIEB,39K0FND3ALVT2DJB80VHTMTYEMBMAA,6,5
121,1,object_01,object_10,349.5,2,1,5.9000000059605,0.2222222222222222,2,object_09,1,1941,0,7,2,desert_5,2,memory-2step-stake-s,618,1760822,0.0-19.0-0.0-0.121,A3TFUZL0VQ2WI6,3SNR5F7RA597AOC2DOU98SGLOEGIEB,39K0FND3ALVT2DJB80VHTMTYEMBMAA,2,1
122,1,object_10,object_01,178.29999999702,1,1,154.20000000298,0.7777777777777778,1,object_02,5,1976,0,7,3,desert_4,2,memory-2step-stake-s,619,1768947,0.0-19.0-0.0-0.122,A3TFUZL0VQ2WI6,3SNR5F7RA597AOC2DOU98SGLOEGIEB,39K0FND3ALVT2DJB80VHTMTYEMBMAA,1,2
123,4,object_03,object_07,287.0,8,1,417.40000000596,0.2222222222222222,2,object_09,1,1978,0,5,2,restaurant_8,2,memory-2step-stake-s,620,1776813,0.0-19.0-0.0-0.123,A3TFUZL0VQ2WI6,3SNR5F7RA597AOC2DOU98SGLOEGIEB,39K0FND3ALVT2DJB80VHTMTYEMBMAA,8,7
124,2,object_04,object_08,68.79999999702,4,2,202.5,0.3333333333333333,2,object_09,5,1993,0,4,3,forest_5,2,memory-2step-stake-s,621,1784568,0.0-19.0-0.0-0.124,A3TFUZL0VQ2WI6,3SNR5F7RA597AOC2DOU98SGLOEGIEB,39K0FND3ALVT2DJB80VHTMTYEMBMAA,3,4
125,4,object_03,object_07,174.10000000894,8,1,118.79999999702,0.5555555555555556,2,object_09,5,2018,0,4,5,restaurant_6,2,memory-2step-stake-s,622,1792452,0.0-19.0-0.0-0.125,A3TFUZL0VQ2WI6,3SNR5F7RA597AOC2DOU98SGLOEGIEB,39K0FND3ALVT2DJB80VHTMTYEMBMAA,8,7
126,1,object_10,object_01,256.70000000298,1,1,-1.0,0.0,1,object_02,5,2018,0,1,8,desert_4,2,memory-2step-stake-s,623,1800991,0.0-19.0-0.0-0.126,A3TFUZL0VQ2WI6,3SNR5F7RA597AOC2DOU98SGLOEGIEB,39K0FND3ALVT2DJB80VHTMTYEMBMAA,1,2
127,3,object_06,object_05,258.39999999106,5,1,481.40000000596,0.2222222222222222,1,object_02,1,2020,0,2,8,library_2,2,memory-2step-stake-s,624,1808916,0.0-19.0-0.0-0.127,A3TFUZL0VQ2WI6,3SNR5F7RA597AOC2DOU98SGLOEGIEB,39K0FND3ALVT2DJB80VHTMTYEMBMAA,5,6
128,4,object_07,object_03,367.79999999702,8,2,321.40000000596,0.8888888888888888,2,object_09,1,2028,0,2,8,restaurant_2,2,memory-2step-stake-s,626,1820667,0.0-19.0-0.1-0.128,A3TFUZL0VQ2WI6,3SNR5F7RA597AOC2DOU98SGLOEGIEB,39K0FND3ALVT2DJB80VHTMTYEMBMAA,7,8
129,3,object_06,object_05,319.19999998808,6,2,393.60000000894,0.7777777777777778,2,object_09,5,2063,0,0,7,library_4,2,memory-2step-stake-s,627,1829033,0.0-19.0-0.1-0.129,A3TFUZL0VQ2WI6,3SNR5F7RA597AOC2DOU98SGLOEGIEB,39K0FND3ALVT2DJB80VHTMTYEMBMAA,5,6
130,2,object_04,object_08,338.70000000298,3,1,320.89999999106,0.0,1,object_02,5,2063,0,0,8,forest_3,2,memory-2step-stake-s,628,1836593,0.0-19.0-0.1-0.130,A3TFUZL0VQ2WI6,3SNR5F7RA597AOC2DOU98SGLOEGIEB,39K0FND3ALVT2DJB80VHTMTYEMBMAA,3,4
131,3,object_05,object_06,58.5,6,1,347.29999999702,1.0,2,object_09,1,2072,0,1,9,library_4,2,memory-2step-stake-s,629,1845114,0.0-19.0-0.1-0.131,A3TFUZL0VQ2WI6,3SNR5F7RA597AOC2DOU98SGLOEGIEB,39K0FND3ALVT2DJB80VHTMTYEMBMAA,6,5
132,3,object_05,object_06,383.59999999404,6,1,327.40000000596,1.0,2,object_09,5,2117,0,2,9,library_4,2,memory-2step-stake-s,630,1853618,0.0-19.0-0.1-0.132,A3TFUZL0VQ2WI6,3SNR5F7RA597AOC2DOU98SGLOEGIEB,39K0FND3ALVT2DJB80VHTMTYEMBMAA,6,5
133,3,object_06,object_05,318.90000000596,6,2,281.39999999106,0.8888888888888888,2,object_09,1,2125,0,2,8,library_4,2,memory-2step-stake-s,631,1861980,0.0-19.0-0.1-0.133,A3TFUZL0VQ2WI6,3SNR5F7RA597AOC2DOU98SGLOEGIEB,39K0FND3ALVT2DJB80VHTMTYEMBMAA,5,6
134,4,object_07,object_03,291.39999999106,8,2,155.89999999106,0.5555555555555556,2,object_09,1,2130,0,4,5,restaurant_4,2,memory-2step-stake-s,632,1869906,0.0-19.0-0.1-0.134,A3TFUZL0VQ2WI6,3SNR5F7RA597AOC2DOU98SGLOEGIEB,39K0FND3ALVT2DJB80VHTMTYEMBMAA,7,8
135,4,object_07,object_03,141.90000000596,7,1,298.09999999404,0.3333333333333333,1,object_02,1,2133,0,3,8,restaurant_8,2,memory-2step-stake-s,633,1877766,0.0-19.0-0.1-0.135,A3TFUZL0VQ2WI6,3SNR5F7RA597AOC2DOU98SGLOEGIEB,39K0FND3ALVT2DJB80VHTMTYEMBMAA,7,8
136,3,object_05,object_06,288.89999999106,6,1,357.0,0.8888888888888888,2,object_09,1,2141,0,6,8,library_3,2,memory-2step-stake-s,634,1886208,0.0-19.0-0.1-0.136,A3TFUZL0VQ2WI6,3SNR5F7RA597AOC2DOU98SGLOEGIEB,39K0FND3ALVT2DJB80VHTMTYEMBMAA,6,5
137,4,object_03,object_07,266.80000001192,7,2,-1.0,0.0,1,object_02,5,2141,0,9,8,restaurant_6,2,memory-2step-stake-s,635,1894741,0.0-19.0-0.1-0.137,A3TFUZL0VQ2WI6,3SNR5F7RA597AOC2DOU98SGLOEGIEB,39K0FND3ALVT2DJB80VHTMTYEMBMAA,8,7
138,2,object_08,object_04,546.29999999702,3,2,-1.0,0.0,1,object_02,5,2141,0,5,8,forest_6,2,memory-2step-stake-s,636,1903286,0.0-19.0-0.1-0.138,A3TFUZL0VQ2WI6,3SNR5F7RA597AOC2DOU98SGLOEGIEB,39K0FND3ALVT2DJB80VHTMTYEMBMAA,4,3
139,3,object_05,object_06,-1.0,-1,-1,-1.0,0.0,-,0,1,2141,0,1,8,library_3,2,memory-2step-stake-s,637,1909817,0.0-19.0-0.1-0.139,A3TFUZL0VQ2WI6,3SNR5F7RA597AOC2DOU98SGLOEGIEB,39K0FND3ALVT2DJB80VHTMTYEMBMAA,6,5
140,4,object_07,object_03,264.79999999702,7,1,366.09999999404,0.1111111111111111,1,object_02,1,2142,0,1,5,restaurant_6,2,memory-2step-stake-s,638,1917517,0.0-19.0-0.1-0.140,A3TFUZL0VQ2WI6,3SNR5F7RA597AOC2DOU98SGLOEGIEB,39K0FND3ALVT2DJB80VHTMTYEMBMAA,7,8
141,4,object_07,object_03,398.20000000298,7,1,433.69999998808,0.1111111111111111,1,object_02,1,2143,0,1,8,restaurant_8,2,memory-2step-stake-s,639,1925297,0.0-19.0-0.1-0.141,A3TFUZL0VQ2WI6,3SNR5F7RA597AOC2DOU98SGLOEGIEB,39K0FND3ALVT2DJB80VHTMTYEMBMAA,7,8
142,3,object_05,object_06,221.0,6,1,392.89999999106,0.7777777777777778,2,object_09,1,2150,0,1,7,library_4,2,memory-2step-stake-s,640,1933662,0.0-19.0-0.1-0.142,A3TFUZL0VQ2WI6,3SNR5F7RA597AOC2DOU98SGLOEGIEB,39K0FND3ALVT2DJB80VHTMTYEMBMAA,6,5
143,1,object_10,object_01,564.90000000596,2,2,163.70000000298,1.0,2,object_09,5,2195,0,1,9,desert_1,2,memory-2step-stake-s,641,1942014,0.0-19.0-0.1-0.143,A3TFUZL0VQ2WI6,3SNR5F7RA597AOC2DOU98SGLOEGIEB,39K0FND3ALVT2DJB80VHTMTYEMBMAA,1,2
144,2,object_04,object_08,344.10000000894,4,2,282.70000000298,0.7777777777777778,2,object_09,5,2230,0,6,7,forest_5,2,memory-2step-stake-s,642,1950275,0.0-19.0-0.1-0.144,A3TFUZL0VQ2WI6,3SNR5F7RA597AOC2DOU98SGLOEGIEB,39K0FND3ALVT2DJB80VHTMTYEMBMAA,3,4
145,1,object_10,object_01,435.79999999702,2,2,235.60000000894,0.3333333333333333,2,object_09,5,2245,0,6,3,desert_1,2,memory-2step-stake-s,643,1958058,0.0-19.0-0.1-0.145,A3TFUZL0VQ2WI6,3SNR5F7RA597AOC2DOU98SGLOEGIEB,39K0FND3ALVT2DJB80VHTMTYEMBMAA,1,2
146,3,object_05,object_06,513.29999999702,5,2,468.5,0.8888888888888888,1,object_02,5,2285,0,8,3,library_4,2,memory-2step-stake-s,644,1966608,0.0-19.0-0.1-0.146,A3TFUZL0VQ2WI6,3SNR5F7RA597AOC2DOU98SGLOEGIEB,39K0FND3ALVT2DJB80VHTMTYEMBMAA,6,5
147,3,object_05,object_06,377.30000001192,5,2,317.29999999702,0.7777777777777778,1,object_02,1,2292,0,7,3,library_3,2,memory-2step-stake-s,645,1974886,0.0-19.0-0.1-0.147,A3TFUZL0VQ2WI6,3SNR5F7RA597AOC2DOU98SGLOEGIEB,39K0FND3ALVT2DJB80VHTMTYEMBMAA,6,5
148,1,object_01,object_10,259.70000000298,2,1,484.90000000596,0.4444444444444444,2,object_09,5,2312,0,6,4,desert_4,2,memory-2step-stake-s,646,1983023,0.0-19.0-0.1-0.148,A3TFUZL0VQ2WI6,3SNR5F7RA597AOC2DOU98SGLOEGIEB,39K0FND3ALVT2DJB80VHTMTYEMBMAA,2,1
149,2,object_08,object_04,376.29999999702,3,2,258.90000000596,0.7777777777777778,1,object_02,5,2347,0,7,2,forest_6,2,memory-2step-stake-s,647,1991254,0.0-19.0-0.1-0.149,A3TFUZL0VQ2WI6,3SNR5F7RA597AOC2DOU98SGLOEGIEB,39K0FND3ALVT2DJB80VHTMTYEMBMAA,4,3
150,3,object_05,object_06,170.70000000298,5,2,170.19999998808,1.0,1,object_02,1,2356,0,9,3,library_3,2,memory-2step-stake-s,648,1999609,0.0-19.0-0.1-0.150,A3TFUZL0VQ2WI6,3SNR5F7RA597AOC2DOU98SGLOEGIEB,39K0FND3ALVT2DJB80VHTMTYEMBMAA,6,5
151,2,object_04,object_08,224.09999999404,3,1,115.40000000596,0.6666666666666666,1,object_02,5,2386,0,6,1,forest_6,2,memory-2step-stake-s,649,2007592,0.0-19.0-0.1-0.151,A3TFUZL0VQ2WI6,3SNR5F7RA597AOC2DOU98SGLOEGIEB,39K0FND3ALVT2DJB80VHTMTYEMBMAA,3,4
152,1,object_01,object_10,230.59999999404,2,1,164.60000000894,0.2222222222222222,2,object_09,5,2396,0,4,2,desert_4,2,memory-2step-stake-s,650,2015209,0.0-19.0-0.1-0.152,A3TFUZL0VQ2WI6,3SNR5F7RA597AOC2DOU98SGLOEGIEB,39K0FND3ALVT2DJB80VHTMTYEMBMAA,2,1
153,4,object_07,object_03,315.60000000894,8,2,300.40000000596,0.5555555555555556,2,object_09,1,2401,0,2,5,restaurant_4,2,memory-2step-stake-s,651,2023281,0.0-19.0-0.1-0.153,A3TFUZL0VQ2WI6,3SNR5F7RA597AOC2DOU98SGLOEGIEB,39K0FND3ALVT2DJB80VHTMTYEMBMAA,7,8
154,2,object_08,object_04,809.29999999702,3,2,798.59999999404,0.2222222222222222,1,object_02,5,2411,0,2,4,forest_3,2,memory-2step-stake-s,652,2031537,0.0-19.0-0.1-0.154,A3TFUZL0VQ2WI6,3SNR5F7RA597AOC2DOU98SGLOEGIEB,39K0FND3ALVT2DJB80VHTMTYEMBMAA,4,3
155,1,object_01,object_10,1447.400000006,1,2,-1.0,0.0,1,object_02,5,2411,0,2,4,desert_1,2,memory-2step-stake-s,653,2040081,0.0-19.0-0.1-0.155,A3TFUZL0VQ2WI6,3SNR5F7RA597AOC2DOU98SGLOEGIEB,39K0FND3ALVT2DJB80VHTMTYEMBMAA,2,1
156,1,object_01,object_10,402.79999999702,2,1,295.0,0.3333333333333333,2,object_09,1,2414,0,5,3,desert_1,2,memory-2step-stake-s,654,2047942,0.0-19.0-0.1-0.156,A3TFUZL0VQ2WI6,3SNR5F7RA597AOC2DOU98SGLOEGIEB,39K0FND3ALVT2DJB80VHTMTYEMBMAA,2,1
157,1,object_10,object_01,239.20000000298,1,1,229.0,0.3333333333333333,1,object_02,5,2429,0,3,1,desert_6,2,memory-2step-stake-s,655,2055734,0.0-19.0-0.1-0.157,A3TFUZL0VQ2WI6,3SNR5F7RA597AOC2DOU98SGLOEGIEB,39K0FND3ALVT2DJB80VHTMTYEMBMAA,1,2
158,3,object_06,object_05,315.89999999106,6,2,262.20000000298,0.0,2,object_09,1,2429,0,0,0,library_2,2,memory-2step-stake-s,656,2063248,0.0-19.0-0.1-0.158,A3TFUZL0VQ2WI6,3SNR5F7RA597AOC2DOU98SGLOEGIEB,39K0FND3ALVT2DJB80VHTMTYEMBMAA,5,6
159,1,object_10,object_01,339.70000000298,2,2,309.29999999702,0.0,2,object_09,5,2429,0,0,0,desert_5,2,memory-2step-stake-s,657,2070800,0.0-19.0-0.1-0.159,A3TFUZL0VQ2WI6,3SNR5F7RA597AOC2DOU98SGLOEGIEB,39K0FND3ALVT2DJB80VHTMTYEMBMAA,1,2
160,2,object_08,object_04,203.29999999702,3,2,194.0,0.3333333333333333,1,object_02,5,2444,0,3,3,forest_2,2,memory-2step-stake-s,658,2078542,0.0-19.0-0.1-0.160,A3TFUZL0VQ2WI6,3SNR5F7RA597AOC2DOU98SGLOEGIEB,39K0FND3ALVT2DJB80VHTMTYEMBMAA,4,3
161,2,object_04,object_08,136.29999999702,3,1,370.39999999106,0.2222222222222222,1,object_02,5,2454,0,2,2,forest_6,2,memory-2step-stake-s,659,2086373,0.0-19.0-0.1-0.161,A3TFUZL0VQ2WI6,3SNR5F7RA597AOC2DOU98SGLOEGIEB,39K0FND3ALVT2DJB80VHTMTYEMBMAA,3,4
162,2,object_04,object_08,257.10000000894,3,1,310.5,0.5555555555555556,1,object_02,1,2459,0,5,5,forest_2,2,memory-2step-stake-s,660,2094451,0.0-19.0-0.1-0.162,A3TFUZL0VQ2WI6,3SNR5F7RA597AOC2DOU98SGLOEGIEB,39K0FND3ALVT2DJB80VHTMTYEMBMAA,3,4
163,2,object_04,object_08,159.59999999404,3,1,296.59999999404,0.4444444444444444,1,object_02,1,2463,0,4,7,forest_2,2,memory-2step-stake-s,661,2102415,0.0-19.0-0.1-0.163,A3TFUZL0VQ2WI6,3SNR5F7RA597AOC2DOU98SGLOEGIEB,39K0FND3ALVT2DJB80VHTMTYEMBMAA,3,4
164,3,object_05,object_06,240.0,5,2,151.70000000298,0.6666666666666666,1,object_02,1,2469,0,6,7,library_2,2,memory-2step-stake-s,662,2110448,0.0-19.0-0.1-0.164,A3TFUZL0VQ2WI6,3SNR5F7RA597AOC2DOU98SGLOEGIEB,39K0FND3ALVT2DJB80VHTMTYEMBMAA,6,5
165,1,object_10,object_01,146.09999999404,2,2,1299.799999997,0.6666666666666666,2,object_09,5,2499,0,6,6,desert_4,2,memory-2step-stake-s,663,2119609,0.0-19.0-0.1-0.165,A3TFUZL0VQ2WI6,3SNR5F7RA597AOC2DOU98SGLOEGIEB,39K0FND3ALVT2DJB80VHTMTYEMBMAA,1,2
166,3,object_06,object_05,544.90000000596,5,1,688.70000000298,0.6666666666666666,1,object_02,1,2505,0,6,7,library_1,2,memory-2step-stake-s,664,2128156,0.0-19.0-0.1-0.166,A3TFUZL0VQ2WI6,3SNR5F7RA597AOC2DOU98SGLOEGIEB,39K0FND3ALVT2DJB80VHTMTYEMBMAA,5,6
167,3,object_06,object_05,256.70000000298,5,1,250.40000000596,0.7777777777777778,1,object_02,1,2512,0,7,8,library_1,2,memory-2step-stake-s,665,2136373,0.0-19.0-0.1-0.167,A3TFUZL0VQ2WI6,3SNR5F7RA597AOC2DOU98SGLOEGIEB,39K0FND3ALVT2DJB80VHTMTYEMBMAA,5,6
168,3,object_05,object_06,140.70000000298,5,2,246.59999999404,0.8888888888888888,1,object_02,1,2520,0,8,3,library_2,2,memory-2step-stake-s,666,2144686,0.0-19.0-0.1-0.168,A3TFUZL0VQ2WI6,3SNR5F7RA597AOC2DOU98SGLOEGIEB,39K0FND3ALVT2DJB80VHTMTYEMBMAA,6,5
169,1,object_10,object_01,308.39999999106,2,2,204.0,0.4444444444444444,2,object_09,5,2540,0,5,4,desert_1,2,memory-2step-stake-s,667,2152543,0.0-19.0-0.1-0.169,A3TFUZL0VQ2WI6,3SNR5F7RA597AOC2DOU98SGLOEGIEB,39K0FND3ALVT2DJB80VHTMTYEMBMAA,1,2
170,4,object_07,object_03,285.79999999702,8,2,93.70000000298,0.7777777777777778,2,object_09,1,2547,0,4,7,restaurant_2,2,memory-2step-stake-s,668,2160604,0.0-19.0-0.1-0.170,A3TFUZL0VQ2WI6,3SNR5F7RA597AOC2DOU98SGLOEGIEB,39K0FND3ALVT2DJB80VHTMTYEMBMAA,7,8
171,1,object_10,object_01,252.60000000894,1,1,779.79999999702,0.3333333333333333,1,object_02,1,2550,0,3,5,desert_4,2,memory-2step-stake-s,669,2168924,0.0-19.0-0.1-0.171,A3TFUZL0VQ2WI6,3SNR5F7RA597AOC2DOU98SGLOEGIEB,39K0FND3ALVT2DJB80VHTMTYEMBMAA,1,2
172,3,object_05,object_06,332.29999999702,6,1,1152.099999994,0.6666666666666666,2,object_09,1,2556,0,1,6,library_1,2,memory-2step-stake-s,670,2177934,0.0-19.0-0.1-0.172,A3TFUZL0VQ2WI6,3SNR5F7RA597AOC2DOU98SGLOEGIEB,39K0FND3ALVT2DJB80VHTMTYEMBMAA,6,5
173,2,object_04,object_08,-1.0,-1,-1,-1.0,0.0,-,0,5,2556,0,1,3,forest_5,2,memory-2step-stake-s,671,2184460,0.0-19.0-0.1-0.173,A3TFUZL0VQ2WI6,3SNR5F7RA597AOC2DOU98SGLOEGIEB,39K0FND3ALVT2DJB80VHTMTYEMBMAA,3,4
174,3,object_05,object_06,204.80000001192,6,1,243.90000000596,0.2222222222222222,2,object_09,1,2558,0,0,2,library_4,2,memory-2step-stake-s,672,2192151,0.0-19.0-0.1-0.174,A3TFUZL0VQ2WI6,3SNR5F7RA597AOC2DOU98SGLOEGIEB,39K0FND3ALVT2DJB80VHTMTYEMBMAA,6,5
175,1,object_10,object_01,356.5,2,2,297.29999999702,0.0,2,object_09,5,2558,0,1,0,desert_1,2,memory-2step-stake-s,673,2199693,0.0-19.0-0.1-0.175,A3TFUZL0VQ2WI6,3SNR5F7RA597AOC2DOU98SGLOEGIEB,39K0FND3ALVT2DJB80VHTMTYEMBMAA,1,2
176,3,object_06,object_05,306.30000001192,6,2,348.59999999404,0.2222222222222222,2,object_09,1,2560,0,4,2,library_4,2,memory-2step-stake-s,674,2207493,0.0-19.0-0.1-0.176,A3TFUZL0VQ2WI6,3SNR5F7RA597AOC2DOU98SGLOEGIEB,39K0FND3ALVT2DJB80VHTMTYEMBMAA,5,6
177,3,object_05,object_06,224.60000000894,5,2,442.29999999702,0.2222222222222222,1,object_02,1,2562,0,2,3,library_4,2,memory-2step-stake-s,675,2215382,0.0-19.0-0.1-0.177,A3TFUZL0VQ2WI6,3SNR5F7RA597AOC2DOU98SGLOEGIEB,39K0FND3ALVT2DJB80VHTMTYEMBMAA,6,5
178,1,object_10,object_01,24.29999999702,1,1,271.20000000298,0.1111111111111111,1,object_02,5,2567,0,1,2,desert_5,2,memory-2step-stake-s,676,2222998,0.0-19.0-0.1-0.178,A3TFUZL0VQ2WI6,3SNR5F7RA597AOC2DOU98SGLOEGIEB,39K0FND3ALVT2DJB80VHTMTYEMBMAA,1,2
179,4,object_07,object_03,268.30000001192,7,1,35.90000000596,0.3333333333333333,1,object_02,1,2570,0,3,4,restaurant_4,2,memory-2step-stake-s,677,2230593,0.0-19.0-0.1-0.179,A3TFUZL0VQ2WI6,3SNR5F7RA597AOC2DOU98SGLOEGIEB,39K0FND3ALVT2DJB80VHTMTYEMBMAA,7,8
180,4,object_03,object_07,311.09999999404,7,2,491.89999999106,0.3333333333333333,1,object_02,1,2573,0,3,4,restaurant_8,2,memory-2step-stake-s,678,2238637,0.0-19.0-0.1-0.180,A3TFUZL0VQ2WI6,3SNR5F7RA597AOC2DOU98SGLOEGIEB,39K0FND3ALVT2DJB80VHTMTYEMBMAA,8,7
181,2,object_08,object_04,262.20000000298,3,2,908.59999999404,0.1111111111111111,1,object_02,5,2578,0,1,5,forest_2,2,memory-2step-stake-s,679,2246899,0.0-19.0-0.1-0.181,A3TFUZL0VQ2WI6,3SNR5F7RA597AOC2DOU98SGLOEGIEB,39K0FND3ALVT2DJB80VHTMTYEMBMAA,4,3
182,2,object_04,object_08,336.5,3,1,91.100000008941,0.1111111111111111,1,object_02,1,2579,0,1,6,forest_6,2,memory-2step-stake-s,680,2254337,0.0-19.0-0.1-0.182,A3TFUZL0VQ2WI6,3SNR5F7RA597AOC2DOU98SGLOEGIEB,39K0FND3ALVT2DJB80VHTMTYEMBMAA,3,4
183,1,object_01,object_10,284.09999999404,2,1,450.60000000894,0.5555555555555556,2,object_09,5,2604,0,2,5,desert_5,2,memory-2step-stake-s,681,2262552,0.0-19.0-0.1-0.183,A3TFUZL0VQ2WI6,3SNR5F7RA597AOC2DOU98SGLOEGIEB,39K0FND3ALVT2DJB80VHTMTYEMBMAA,2,1
184,1,object_01,object_10,8.1000000089407,2,1,162.89999999106,0.5555555555555556,2,object_09,5,2629,0,1,5,desert_5,2,memory-2step-stake-s,682,2270472,0.0-19.0-0.1-0.184,A3TFUZL0VQ2WI6,3SNR5F7RA597AOC2DOU98SGLOEGIEB,39K0FND3ALVT2DJB80VHTMTYEMBMAA,2,1
185,4,object_03,object_07,1364.5,7,2,485.29999999702,0.4444444444444444,1,object_02,5,2649,0,4,8,restaurant_2,2,memory-2step-stake-s,683,2278606,0.0-19.0-0.1-0.185,A3TFUZL0VQ2WI6,3SNR5F7RA597AOC2DOU98SGLOEGIEB,39K0FND3ALVT2DJB80VHTMTYEMBMAA,8,7
186,4,object_03,object_07,317.20000000298,7,2,113.19999998808,0.6666666666666666,1,object_02,5,2679,0,6,7,restaurant_4,2,memory-2step-stake-s,684,2286587,0.0-19.0-0.1-0.186,A3TFUZL0VQ2WI6,3SNR5F7RA597AOC2DOU98SGLOEGIEB,39K0FND3ALVT2DJB80VHTMTYEMBMAA,8,7
187,1,object_10,object_01,410.09999999404,2,2,259.40000000596,0.7777777777777778,2,object_09,5,2714,0,6,7,desert_4,2,memory-2step-stake-s,685,2294821,0.0-19.0-0.1-0.187,A3TFUZL0VQ2WI6,3SNR5F7RA597AOC2DOU98SGLOEGIEB,39K0FND3ALVT2DJB80VHTMTYEMBMAA,1,2
188,3,object_05,object_06,22.09999999404,6,1,398.39999999106,0.7777777777777778,2,object_09,1,2721,0,4,7,library_1,2,memory-2step-stake-s,686,2303199,0.0-19.0-0.1-0.188,A3TFUZL0VQ2WI6,3SNR5F7RA597AOC2DOU98SGLOEGIEB,39K0FND3ALVT2DJB80VHTMTYEMBMAA,6,5
189,1,object_10,object_01,77.70000000298,1,1,94.09999999404,0.6666666666666666,1,object_02,5,2751,0,6,7,desert_1,2,memory-2step-stake-s,687,2311166,0.0-19.0-0.1-0.189,A3TFUZL0VQ2WI6,3SNR5F7RA597AOC2DOU98SGLOEGIEB,39K0FND3ALVT2DJB80VHTMTYEMBMAA,1,2
190,1,object_10,object_01,438.0,1,1,679.90000000596,0.6666666666666666,1,object_02,1,2757,0,6,4,desert_1,2,memory-2step-stake-s,688,2319702,0.0-19.0-0.1-0.190,A3TFUZL0VQ2WI6,3SNR5F7RA597AOC2DOU98SGLOEGIEB,39K0FND3ALVT2DJB80VHTMTYEMBMAA,1,2
191,4,object_07,object_03,624.89999999106,8,2,571.79999999702,0.2222222222222222,2,object_09,1,2759,0,7,2,restaurant_6,2,memory-2step-stake-s,689,2327726,0.0-19.0-0.1-0.191,A3TFUZL0VQ2WI6,3SNR5F7RA597AOC2DOU98SGLOEGIEB,39K0FND3ALVT2DJB80VHTMTYEMBMAA,7,8
192,3,object_05,object_06,368.80000001192,5,2,403.29999999702,1.0,1,object_02,1,2768,0,9,2,library_3,2,memory-2step-stake-s,690,2336314,0.0-19.0-0.1-0.192,A3TFUZL0VQ2WI6,3SNR5F7RA597AOC2DOU98SGLOEGIEB,39K0FND3ALVT2DJB80VHTMTYEMBMAA,6,5
193,3,object_05,object_06,386.29999999702,5,2,252.5,0.7777777777777778,1,object_02,1,2775,0,7,1,library_3,2,memory-2step-stake-s,691,2344529,0.0-19.0-0.1-0.193,A3TFUZL0VQ2WI6,3SNR5F7RA597AOC2DOU98SGLOEGIEB,39K0FND3ALVT2DJB80VHTMTYEMBMAA,6,5
194,2,object_08,object_04,74.5,4,1,64.59999999404,0.3333333333333333,2,object_09,5,2790,0,8,3,forest_5,2,memory-2step-stake-s,692,2352144,0.0-19.0-0.1-0.194,A3TFUZL0VQ2WI6,3SNR5F7RA597AOC2DOU98SGLOEGIEB,39K0FND3ALVT2DJB80VHTMTYEMBMAA,4,3
195,2,object_08,object_04,1153.8999999911,4,1,1019.3000000119,0.3333333333333333,2,object_09,5,2805,0,9,3,forest_3,2,memory-2step-stake-s,693,2360721,0.0-19.0-0.1-0.195,A3TFUZL0VQ2WI6,3SNR5F7RA597AOC2DOU98SGLOEGIEB,39K0FND3ALVT2DJB80VHTMTYEMBMAA,4,3
196,1,object_01,object_10,249.40000000596,1,2,318.29999999702,1.0,1,object_02,5,2850,0,9,3,desert_6,2,memory-2step-stake-s,694,2369231,0.0-19.0-0.1-0.196,A3TFUZL0VQ2WI6,3SNR5F7RA597AOC2DOU98SGLOEGIEB,39K0FND3ALVT2DJB80VHTMTYEMBMAA,2,1
197,3,object_05,object_06,410.0,5,2,492.89999999106,0.7777777777777778,1,object_02,5,2885,0,7,3,library_3,2,memory-2step-stake-s,695,2377714,0.0-19.0-0.1-0.197,A3TFUZL0VQ2WI6,3SNR5F7RA597AOC2DOU98SGLOEGIEB,39K0FND3ALVT2DJB80VHTMTYEMBMAA,6,5
198,3,object_05,object_06,96.79999999702,6,1,151.19999998808,0.3333333333333333,2,object_09,1,2888,0,7,3,library_2,2,memory-2step-stake-s,696,2385422,0.0-19.0-0.1-0.198,A3TFUZL0VQ2WI6,3SNR5F7RA597AOC2DOU98SGLOEGIEB,39K0FND3ALVT2DJB80VHTMTYEMBMAA,6,5
199,1,object_10,object_01,727.79999999702,1,1,224.69999998808,0.4444444444444444,1,object_02,5,2908,0,4,4,desert_5,2,memory-2step-stake-s,697,2393306,0.0-19.0-0.1-0.199,A3TFUZL0VQ2WI6,3SNR5F7RA597AOC2DOU98SGLOEGIEB,39K0FND3ALVT2DJB80VHTMTYEMBMAA,1,2
200,1,object_10,object_01,310.40000000596,2,2,863.90000000596,0.2222222222222222,2,object_09,5,2918,0,5,2,desert_4,2,memory-2step-stake-s,698,2401630,0.0-19.0-0.1-0.200,A3TFUZL0VQ2WI6,3SNR5F7RA597AOC2DOU98SGLOEGIEB,39K0FND3ALVT2DJB80VHTMTYEMBMAA,1,2
201,3,object_06,object_05,67.59999999404,6,2,74.20000000298,0.2222222222222222,2,object_09,1,2920,0,3,2,library_2,2,memory-2step-stake-s,699,2409163,0.0-19.0-0.1-0.201,A3TFUZL0VQ2WI6,3SNR5F7RA597AOC2DOU98SGLOEGIEB,39K0FND3ALVT2DJB80VHTMTYEMBMAA,5,6
202,2,object_04,object_08,815.29999999702,4,2,378.39999999106,0.2222222222222222,2,object_09,5,2930,0,3,2,forest_3,2,memory-2step-stake-s,700,2417008,0.0-19.0-0.1-0.202,A3TFUZL0VQ2WI6,3SNR5F7RA597AOC2DOU98SGLOEGIEB,39K0FND3ALVT2DJB80VHTMTYEMBMAA,3,4
203,2,object_04,object_08,293.09999999404,3,1,436.29999999702,0.7777777777777778,1,object_02,1,2937,0,7,3,forest_5,2,memory-2step-stake-s,701,2425430,0.0-19.0-0.1-0.203,A3TFUZL0VQ2WI6,3SNR5F7RA597AOC2DOU98SGLOEGIEB,39K0FND3ALVT2DJB80VHTMTYEMBMAA,3,4
204,2,object_04,object_08,8.0,3,1,596.39999999106,0.6666666666666666,1,object_02,1,2943,0,6,3,forest_2,2,memory-2step-stake-s,702,2433904,0.0-19.0-0.1-0.204,A3TFUZL0VQ2WI6,3SNR5F7RA597AOC2DOU98SGLOEGIEB,39K0FND3ALVT2DJB80VHTMTYEMBMAA,3,4
205,4,object_03,object_07,15.899999991059,7,2,390.79999999702,0.7777777777777778,1,object_02,1,2950,0,7,0,restaurant_4,2,memory-2step-stake-s,703,2442273,0.0-19.0-0.1-0.205,A3TFUZL0VQ2WI6,3SNR5F7RA597AOC2DOU98SGLOEGIEB,39K0FND3ALVT2DJB80VHTMTYEMBMAA,8,7
206,1,object_01,object_10,305.5,1,2,287.40000000596,0.4444444444444444,1,object_02,1,2954,0,4,2,desert_4,2,memory-2step-stake-s,704,2450224,0.0-19.0-0.1-0.206,A3TFUZL0VQ2WI6,3SNR5F7RA597AOC2DOU98SGLOEGIEB,39K0FND3ALVT2DJB80VHTMTYEMBMAA,2,1
207,3,object_06,object_05,190.40000000596,5,1,390.70000000298,0.2222222222222222,1,object_02,1,2956,0,2,4,library_4,2,memory-2step-stake-s,705,2458074,0.0-19.0-0.1-0.207,A3TFUZL0VQ2WI6,3SNR5F7RA597AOC2DOU98SGLOEGIEB,39K0FND3ALVT2DJB80VHTMTYEMBMAA,5,6
208,1,object_01,object_10,311.39999999106,2,1,326.20000000298,0.5555555555555556,2,object_09,5,2981,0,1,5,desert_5,2,memory-2step-stake-s,706,2466180,0.0-19.0-0.1-0.208,A3TFUZL0VQ2WI6,3SNR5F7RA597AOC2DOU98SGLOEGIEB,39K0FND3ALVT2DJB80VHTMTYEMBMAA,2,1
209,1,object_01,object_10,328.79999999702,1,2,619.5,0.0,1,object_02,1,2981,0,0,5,desert_1,2,memory-2step-stake-s,707,2474046,0.0-19.0-0.1-0.209,A3TFUZL0VQ2WI6,3SNR5F7RA597AOC2DOU98SGLOEGIEB,39K0FND3ALVT2DJB80VHTMTYEMBMAA,2,1
210,1,object_01,object_10,272.0,1,2,292.80000001192,0.1111111111111111,1,object_02,5,2986,0,1,8,desert_6,2,memory-2step-stake-s,708,2481688,0.0-19.0-0.1-0.210,A3TFUZL0VQ2WI6,3SNR5F7RA597AOC2DOU98SGLOEGIEB,39K0FND3ALVT2DJB80VHTMTYEMBMAA,2,1
211,3,object_06,object_05,568.70000000298,6,2,267.39999999106,0.8888888888888888,2,object_09,1,2994,0,1,8,library_1,2,memory-2step-stake-s,709,2490035,0.0-19.0-0.1-0.211,A3TFUZL0VQ2WI6,3SNR5F7RA597AOC2DOU98SGLOEGIEB,39K0FND3ALVT2DJB80VHTMTYEMBMAA,5,6
212,2,object_08,object_04,221.89999999106,4,1,407.60000000894,0.7777777777777778,2,object_09,1,3001,0,1,7,forest_6,2,memory-2step-stake-s,710,2498397,0.0-19.0-0.1-0.212,A3TFUZL0VQ2WI6,3SNR5F7RA597AOC2DOU98SGLOEGIEB,39K0FND3ALVT2DJB80VHTMTYEMBMAA,4,3
213,2,object_08,object_04,104.5,4,1,660.89999999106,0.3333333333333333,2,object_09,5,3016,0,2,3,forest_2,2,memory-2step-stake-s,711,2506609,0.0-19.0-0.1-0.213,A3TFUZL0VQ2WI6,3SNR5F7RA597AOC2DOU98SGLOEGIEB,39K0FND3ALVT2DJB80VHTMTYEMBMAA,4,3
214,4,object_07,object_03,97.800000011921,8,2,460.29999999702,0.4444444444444444,2,object_09,1,3020,0,1,4,restaurant_4,2,memory-2step-stake-s,712,2514726,0.0-19.0-0.1-0.214,A3TFUZL0VQ2WI6,3SNR5F7RA597AOC2DOU98SGLOEGIEB,39K0FND3ALVT2DJB80VHTMTYEMBMAA,7,8
215,2,object_08,object_04,141.29999999702,3,2,289.0,0.0,1,object_02,5,3020,0,0,2,forest_2,2,memory-2step-stake-s,713,2522245,0.0-19.0-0.1-0.215,A3TFUZL0VQ2WI6,3SNR5F7RA597AOC2DOU98SGLOEGIEB,39K0FND3ALVT2DJB80VHTMTYEMBMAA,4,3
216,1,object_10,object_01,312.70000000298,2,2,104.0,0.4444444444444444,2,object_09,5,3040,0,1,4,desert_1,2,memory-2step-stake-s,714,2529997,0.0-19.0-0.1-0.216,A3TFUZL0VQ2WI6,3SNR5F7RA597AOC2DOU98SGLOEGIEB,39K0FND3ALVT2DJB80VHTMTYEMBMAA,1,2
217,4,object_03,object_07,570.90000000596,7,2,408.59999999404,0.1111111111111111,1,object_02,1,3041,0,1,5,restaurant_2,2,memory-2step-stake-s,715,2537742,0.0-19.0-0.1-0.217,A3TFUZL0VQ2WI6,3SNR5F7RA597AOC2DOU98SGLOEGIEB,39K0FND3ALVT2DJB80VHTMTYEMBMAA,8,7
218,2,object_08,object_04,394.10000000894,4,1,395.90000000596,0.5555555555555556,2,object_09,5,3066,0,0,5,forest_3,2,memory-2step-stake-s,716,2545887,0.0-19.0-0.1-0.218,A3TFUZL0VQ2WI6,3SNR5F7RA597AOC2DOU98SGLOEGIEB,39K0FND3ALVT2DJB80VHTMTYEMBMAA,4,3
219,3,object_05,object_06,20.29999999702,6,1,1408.099999994,0.3333333333333333,2,object_09,1,3069,0,3,3,library_2,2,memory-2step-stake-s,717,2554852,0.0-19.0-0.1-0.219,A3TFUZL0VQ2WI6,3SNR5F7RA597AOC2DOU98SGLOEGIEB,39K0FND3ALVT2DJB80VHTMTYEMBMAA,6,5
220,2,object_04,object_08,172.90000000596,3,1,140.90000000596,0.7777777777777778,1,object_02,5,3104,0,7,3,forest_2,2,memory-2step-stake-s,718,2562963,0.0-19.0-0.1-0.220,A3TFUZL0VQ2WI6,3SNR5F7RA597AOC2DOU98SGLOEGIEB,39K0FND3ALVT2DJB80VHTMTYEMBMAA,3,4
221,1,object_10,object_01,323.20000000298,2,2,405.20000000298,0.4444444444444444,2,object_09,5,3124,0,6,4,desert_6,2,memory-2step-stake-s,719,2571018,0.0-19.0-0.1-0.221,A3TFUZL0VQ2WI6,3SNR5F7RA597AOC2DOU98SGLOEGIEB,39K0FND3ALVT2DJB80VHTMTYEMBMAA,1,2
222,2,object_04,object_08,296.60000000894,4,2,538.40000000596,0.2222222222222222,2,object_09,5,3134,0,6,2,forest_6,2,memory-2step-stake-s,720,2578989,0.0-19.0-0.1-0.222,A3TFUZL0VQ2WI6,3SNR5F7RA597AOC2DOU98SGLOEGIEB,39K0FND3ALVT2DJB80VHTMTYEMBMAA,3,4
223,1,object_01,object_10,303.09999999404,2,1,376.90000000596,0.4444444444444444,2,object_09,1,3138,0,6,4,desert_4,2,memory-2step-stake-s,721,2587013,0.0-19.0-0.1-0.223,A3TFUZL0VQ2WI6,3SNR5F7RA597AOC2DOU98SGLOEGIEB,39K0FND3ALVT2DJB80VHTMTYEMBMAA,2,1
224,2,object_04,object_08,277.39999999106,4,2,50.90000000596,0.4444444444444444,2,object_09,5,3158,0,7,4,forest_2,2,memory-2step-stake-s,722,2594719,0.0-19.0-0.1-0.224,A3TFUZL0VQ2WI6,3SNR5F7RA597AOC2DOU98SGLOEGIEB,39K0FND3ALVT2DJB80VHTMTYEMBMAA,3,4
225,3,object_05,object_06,254.70000000298,5,2,892.59999999404,0.7777777777777778,1,object_02,5,3193,0,7,3,library_4,2,memory-2step-stake-s,723,2603571,0.0-19.0-0.1-0.225,A3TFUZL0VQ2WI6,3SNR5F7RA597AOC2DOU98SGLOEGIEB,39K0FND3ALVT2DJB80VHTMTYEMBMAA,6,5
226,2,object_04,object_08,290.39999999106,4,2,10.600000008941,0.5555555555555556,2,object_09,5,3218,0,7,5,forest_3,2,memory-2step-stake-s,724,2611341,0.0-19.0-0.1-0.226,A3TFUZL0VQ2WI6,3SNR5F7RA597AOC2DOU98SGLOEGIEB,39K0FND3ALVT2DJB80VHTMTYEMBMAA,3,4
227,4,object_07,object_03,161.59999999404,7,1,580.20000000298,0.7777777777777778,1,object_02,1,3225,0,7,5,restaurant_6,2,memory-2step-stake-s,725,2619888,0.0-19.0-0.1-0.227,A3TFUZL0VQ2WI6,3SNR5F7RA597AOC2DOU98SGLOEGIEB,39K0FND3ALVT2DJB80VHTMTYEMBMAA,7,8
228,3,object_05,object_06,171.0,6,1,77.40000000596,0.8888888888888888,2,object_09,1,3233,0,8,8,library_1,2,memory-2step-stake-s,726,2628043,0.0-19.0-0.1-0.228,A3TFUZL0VQ2WI6,3SNR5F7RA597AOC2DOU98SGLOEGIEB,39K0FND3ALVT2DJB80VHTMTYEMBMAA,6,5
229,2,object_04,object_08,358.40000000596,4,2,414.89999999106,1.0,2,object_09,5,3278,0,9,9,forest_6,2,memory-2step-stake-s,727,2636630,0.0-19.0-0.1-0.229,A3TFUZL0VQ2WI6,3SNR5F7RA597AOC2DOU98SGLOEGIEB,39K0FND3ALVT2DJB80VHTMTYEMBMAA,3,4
230,2,object_08,object_04,329.20000000298,4,1,466.5,0.8888888888888888,2,object_09,1,3286,0,8,8,forest_5,2,memory-2step-stake-s,728,2645174,0.0-19.0-0.1-0.230,A3TFUZL0VQ2WI6,3SNR5F7RA597AOC2DOU98SGLOEGIEB,39K0FND3ALVT2DJB80VHTMTYEMBMAA,4,3
231,3,object_05,object_06,304.40000000596,6,1,387.79999999702,0.8888888888888888,2,object_09,1,3294,0,8,8,library_1,2,memory-2step-stake-s,729,2653641,0.0-19.0-0.1-0.231,A3TFUZL0VQ2WI6,3SNR5F7RA597AOC2DOU98SGLOEGIEB,39K0FND3ALVT2DJB80VHTMTYEMBMAA,6,5
232,2,object_04,object_08,225.5,3,1,303.5,0.6666666666666666,1,object_02,5,3324,0,6,8,forest_2,2,memory-2step-stake-s,730,2661813,0.0-19.0-0.1-0.232,A3TFUZL0VQ2WI6,3SNR5F7RA597AOC2DOU98SGLOEGIEB,39K0FND3ALVT2DJB80VHTMTYEMBMAA,3,4
233,2,object_04,object_08,555.79999999702,4,2,435.29999999702,0.8888888888888888,2,object_09,5,3364,0,8,8,forest_5,2,memory-2step-stake-s,731,2670327,0.0-19.0-0.1-0.233,A3TFUZL0VQ2WI6,3SNR5F7RA597AOC2DOU98SGLOEGIEB,39K0FND3ALVT2DJB80VHTMTYEMBMAA,3,4
234,1,object_10,object_01,48.699999988079,2,2,80.20000000298,1.0,2,object_09,5,3409,0,9,9,desert_6,2,memory-2step-stake-s,732,2678588,0.0-19.0-0.1-0.234,A3TFUZL0VQ2WI6,3SNR5F7RA597AOC2DOU98SGLOEGIEB,39K0FND3ALVT2DJB80VHTMTYEMBMAA,1,2
235,2,object_08,object_04,139.5,4,1,581.20000000298,0.8888888888888888,2,object_09,5,3449,0,6,8,forest_3,2,memory-2step-stake-s,733,2687247,0.0-19.0-0.1-0.235,A3TFUZL0VQ2WI6,3SNR5F7RA597AOC2DOU98SGLOEGIEB,39K0FND3ALVT2DJB80VHTMTYEMBMAA,4,3
236,1,object_10,object_01,1108.0,1,1,576.5,0.6666666666666666,1,object_02,1,3455,0,6,7,desert_1,2,memory-2step-stake-s,734,2695702,0.0-19.0-0.1-0.236,A3TFUZL0VQ2WI6,3SNR5F7RA597AOC2DOU98SGLOEGIEB,39K0FND3ALVT2DJB80VHTMTYEMBMAA,1,2
237,4,object_07,object_03,324.0,8,2,288.79999999702,0.8888888888888888,2,object_09,1,3463,0,5,8,restaurant_6,2,memory-2step-stake-s,735,2704076,0.0-19.0-0.1-0.237,A3TFUZL0VQ2WI6,3SNR5F7RA597AOC2DOU98SGLOEGIEB,39K0FND3ALVT2DJB80VHTMTYEMBMAA,7,8
238,2,object_04,object_08,331.20000000298,4,2,561.59999999404,0.7777777777777778,2,object_09,5,3498,0,6,7,forest_5,2,memory-2step-stake-s,736,2712605,0.0-19.0-0.1-0.238,A3TFUZL0VQ2WI6,3SNR5F7RA597AOC2DOU98SGLOEGIEB,39K0FND3ALVT2DJB80VHTMTYEMBMAA,3,4
239,1,object_01,object_10,170.39999999106,2,1,294.40000000596,1.0,2,object_09,5,3543,0,3,9,desert_6,2,memory-2step-stake-s,737,2721075,0.0-19.0-0.1-0.239,A3TFUZL0VQ2WI6,3SNR5F7RA597AOC2DOU98SGLOEGIEB,39K0FND3ALVT2DJB80VHTMTYEMBMAA,2,1
240,3,object_05,object_06,1341.5,6,1,470.30000001192,1.0,2,object_09,5,3588,0,5,9,library_2,2,memory-2step-stake-s,738,2729730,0.0-19.0-0.1-0.240,A3TFUZL0VQ2WI6,3SNR5F7RA597AOC2DOU98SGLOEGIEB,39K0FND3ALVT2DJB80VHTMTYEMBMAA,6,5
241,4,object_07,object_03,417.20000000298,8,2,263.70000000298,0.8888888888888888,2,object_09,1,3596,0,5,8,restaurant_4,2,memory-2step-stake-s,739,2738080,0.0-19.0-0.1-0.241,A3TFUZL0VQ2WI6,3SNR5F7RA597AOC2DOU98SGLOEGIEB,39K0FND3ALVT2DJB80VHTMTYEMBMAA,7,8
242,4,object_07,object_03,383.89999999106,8,2,1234.0,0.8888888888888888,2,object_09,1,3604,0,6,8,restaurant_6,2,memory-2step-stake-s,740,2747402,0.0-19.0-0.1-0.242,A3TFUZL0VQ2WI6,3SNR5F7RA597AOC2DOU98SGLOEGIEB,39K0FND3ALVT2DJB80VHTMTYEMBMAA,7,8
243,3,object_06,object_05,38.699999988079,5,1,324.70000000298,1.0,1,object_02,1,3613,0,9,8,library_4,2,memory-2step-stake-s,741,2755913,0.0-19.0-0.1-0.243,A3TFUZL0VQ2WI6,3SNR5F7RA597AOC2DOU98SGLOEGIEB,39K0FND3ALVT2DJB80VHTMTYEMBMAA,5,6
244,2,object_08,object_04,260.89999999106,4,1,267.0,0.6666666666666666,2,object_09,5,3643,0,7,6,forest_3,2,memory-2step-stake-s,742,2764058,0.0-19.0-0.1-0.244,A3TFUZL0VQ2WI6,3SNR5F7RA597AOC2DOU98SGLOEGIEB,39K0FND3ALVT2DJB80VHTMTYEMBMAA,4,3
245,1,object_10,object_01,557.80000001192,2,2,430.0,0.4444444444444444,2,object_09,5,3663,0,5,4,desert_4,2,memory-2step-stake-s,743,2772158,0.0-19.0-0.1-0.245,A3TFUZL0VQ2WI6,3SNR5F7RA597AOC2DOU98SGLOEGIEB,39K0FND3ALVT2DJB80VHTMTYEMBMAA,1,2
246,4,object_03,object_07,90.5,8,1,-1.0,0.0,2,object_09,5,3663,0,5,3,restaurant_2,2,memory-2step-stake-s,744,2780714,0.0-19.0-0.1-0.246,A3TFUZL0VQ2WI6,3SNR5F7RA597AOC2DOU98SGLOEGIEB,39K0FND3ALVT2DJB80VHTMTYEMBMAA,8,7
247,1,object_10,object_01,495.69999998808,1,1,885.29999999702,0.7777777777777778,1,object_02,5,3698,0,7,1,desert_5,2,memory-2step-stake-s,745,2789586,0.0-19.0-0.1-0.247,A3TFUZL0VQ2WI6,3SNR5F7RA597AOC2DOU98SGLOEGIEB,39K0FND3ALVT2DJB80VHTMTYEMBMAA,1,2
248,4,object_03,object_07,161.40000000596,7,2,517.69999998808,0.7777777777777778,1,object_02,5,3733,0,7,0,restaurant_8,2,memory-2step-stake-s,746,2798080,0.0-19.0-0.1-0.248,A3TFUZL0VQ2WI6,3SNR5F7RA597AOC2DOU98SGLOEGIEB,39K0FND3ALVT2DJB80VHTMTYEMBMAA,8,7
249,4,object_07,object_03,320.90000000596,8,2,19.40000000596,0.1111111111111111,2,object_09,1,3734,0,7,1,restaurant_8,2,memory-2step-stake-s,747,2805458,0.0-19.0-0.1-0.249,A3TFUZL0VQ2WI6,3SNR5F7RA597AOC2DOU98SGLOEGIEB,39K0FND3ALVT2DJB80VHTMTYEMBMAA,7,8
250,4,object_03,object_07,80.70000000298,8,1,175.0,0.1111111111111111,2,object_09,1,3735,0,6,1,restaurant_6,2,memory-2step-stake-s,748,2812990,0.0-19.0-0.1-0.250,A3TFUZL0VQ2WI6,3SNR5F7RA597AOC2DOU98SGLOEGIEB,39K0FND3ALVT2DJB80VHTMTYEMBMAA,8,7
251,3,object_06,object_05,32.800000011921,5,1,311.90000000596,0.3333333333333333,1,object_02,1,3738,0,3,2,library_2,2,memory-2step-stake-s,749,2820859,0.0-19.0-0.1-0.251,A3TFUZL0VQ2WI6,3SNR5F7RA597AOC2DOU98SGLOEGIEB,39K0FND3ALVT2DJB80VHTMTYEMBMAA,5,6
252,4,object_03,object_07,239.5,7,2,486.0,0.4444444444444444,1,object_02,1,3742,0,4,2,restaurant_4,2,memory-2step-stake-s,750,2829008,0.0-19.0-0.1-0.252,A3TFUZL0VQ2WI6,3SNR5F7RA597AOC2DOU98SGLOEGIEB,39K0FND3ALVT2DJB80VHTMTYEMBMAA,8,7
253,4,object_03,object_07,270.40000000596,7,2,293.70000000298,0.5555555555555556,1,object_02,5,3767,0,5,5,restaurant_6,2,memory-2step-stake-s,751,2837052,0.0-19.0-0.1-0.253,A3TFUZL0VQ2WI6,3SNR5F7RA597AOC2DOU98SGLOEGIEB,39K0FND3ALVT2DJB80VHTMTYEMBMAA,8,7
254,4,object_07,object_03,401.59999999404,7,1,345.10000000894,0.7777777777777778,1,object_02,1,3774,0,7,8,restaurant_6,2,memory-2step-stake-s,752,2845352,0.0-19.0-0.1-0.254,A3TFUZL0VQ2WI6,3SNR5F7RA597AOC2DOU98SGLOEGIEB,39K0FND3ALVT2DJB80VHTMTYEMBMAA,7,8
255,3,object_05,object_06,520.60000000894,6,1,307.20000000298,0.8888888888888888,2,object_09,1,3782,0,8,8,library_1,2,memory-2step-stake-s,753,2853724,0.0-19.0-0.1-0.255,A3TFUZL0VQ2WI6,3SNR5F7RA597AOC2DOU98SGLOEGIEB,39K0FND3ALVT2DJB80VHTMTYEMBMAA,6,5
