,state1,stim_left,stim_right,rt_1,choice1,response1,rt_2,points,state2,stim_state2,stake,score,practice,rews1,rews2,background,high_arm,trial_type,trial_index,time_elapsed,internal_node_id,subid,hitid,assignmentid,stim_left_num,stim_right_num
0,1,object_08,object_09,1417.8999999911,1,1,-1.0,0.0,1,object_04,5,0,0,2,6,desert_4,2,memory-2step-stake-s,494,1958746,0.0-19.0-0.0-0.0,A14LASEXBQ8C5W,30UZJB2PPKSSO21QHKUJ0S8JS3B35M,3R3YRB5GRJJCFLOKH2M3KWASR6VAU3,1,2
1,1,object_09,object_08,1342.400000006,2,1,1446.299999997,1.0,2,object_01,5,45,0,1,9,desert_3,2,memory-2step-stake-s,495,1968509,0.0-19.0-0.0-0.1,A14LASEXBQ8C5W,30UZJB2PPKSSO21QHKUJ0S8JS3B35M,3R3YRB5GRJJCFLOKH2M3KWASR6VAU3,2,1
2,4,object_10,object_05,-1.0,-1,-1,-1.0,0.0,-,0,1,45,0,5,7,restaurant_1,2,memory-2step-stake-s,496,1975080,0.0-19.0-0.0-0.2,A14LASEXBQ8C5W,30UZJB2PPKSSO21QHKUJ0S8JS3B35M,3R3YRB5GRJJCFLOKH2M3KWASR6VAU3,8,7
3,3,object_06,object_03,553.90000000596,5,1,553.09999999404,0.5555555555555556,1,object_04,5,70,0,5,7,library_6,2,memory-2step-stake-s,497,1983473,0.0-19.0-0.0-0.3,A14LASEXBQ8C5W,30UZJB2PPKSSO21QHKUJ0S8JS3B35M,3R3YRB5GRJJCFLOKH2M3KWASR6VAU3,5,6
4,3,object_03,object_06,466.59999999404,5,2,638.09999999404,0.4444444444444444,1,object_04,1,74,0,4,8,library_4,2,memory-2step-stake-s,498,1991831,0.0-19.0-0.0-0.4,A14LASEXBQ8C5W,30UZJB2PPKSSO21QHKUJ0S8JS3B35M,3R3YRB5GRJJCFLOKH2M3KWASR6VAU3,6,5
5,2,object_07,object_02,684.60000000894,4,1,607.5,1.0,2,object_01,1,83,0,2,9,forest_6,2,memory-2step-stake-s,499,2000692,0.0-19.0-0.0-0.5,A14LASEXBQ8C5W,30UZJB2PPKSSO21QHKUJ0S8JS3B35M,3R3YRB5GRJJCFLOKH2M3KWASR6VAU3,4,3
6,1,object_08,object_09,1362.400000006,1,1,514.40000000596,0.2222222222222222,1,object_04,5,93,0,2,8,desert_3,2,memory-2step-stake-s,500,2008727,0.0-19.0-0.0-0.6,A14LASEXBQ8C5W,30UZJB2PPKSSO21QHKUJ0S8JS3B35M,3R3YRB5GRJJCFLOKH2M3KWASR6VAU3,1,2
7,4,object_05,object_10,1224.299999997,7,1,737.70000000298,0.2222222222222222,1,object_04,1,95,0,2,8,restaurant_2,2,memory-2step-stake-s,501,2016989,0.0-19.0-0.0-0.7,A14LASEXBQ8C5W,30UZJB2PPKSSO21QHKUJ0S8JS3B35M,3R3YRB5GRJJCFLOKH2M3KWASR6VAU3,7,8
8,3,object_06,object_03,886.79999999702,6,2,823.59999999404,0.7777777777777778,2,object_01,1,102,0,0,7,library_4,2,memory-2step-stake-s,502,2025915,0.0-19.0-0.0-0.8,A14LASEXBQ8C5W,30UZJB2PPKSSO21QHKUJ0S8JS3B35M,3R3YRB5GRJJCFLOKH2M3KWASR6VAU3,5,6
9,2,object_07,object_02,1244.1999999881,3,2,831.30000001192,0.3333333333333333,1,object_04,1,105,0,3,4,forest_6,2,memory-2step-stake-s,503,2034341,0.0-19.0-0.0-0.9,A14LASEXBQ8C5W,30UZJB2PPKSSO21QHKUJ0S8JS3B35M,3R3YRB5GRJJCFLOKH2M3KWASR6VAU3,4,3
10,4,object_10,object_05,1387.1000000089,7,2,465.09999999404,0.2222222222222222,1,object_04,5,115,0,2,2,restaurant_7,2,memory-2step-stake-s,504,2042305,0.0-19.0-0.0-0.10,A14LASEXBQ8C5W,30UZJB2PPKSSO21QHKUJ0S8JS3B35M,3R3YRB5GRJJCFLOKH2M3KWASR6VAU3,8,7
11,3,object_03,object_06,776.39999999106,6,1,675.0,0.0,2,object_01,1,115,0,2,0,library_1,2,memory-2step-stake-s,505,2050274,0.0-19.0-0.0-0.11,A14LASEXBQ8C5W,30UZJB2PPKSSO21QHKUJ0S8JS3B35M,3R3YRB5GRJJCFLOKH2M3KWASR6VAU3,6,5
12,3,object_06,object_03,1118.3999999911,5,1,585.40000000596,0.5555555555555556,1,object_04,1,120,0,5,0,library_6,2,memory-2step-stake-s,506,2058703,0.0-19.0-0.0-0.12,A14LASEXBQ8C5W,30UZJB2PPKSSO21QHKUJ0S8JS3B35M,3R3YRB5GRJJCFLOKH2M3KWASR6VAU3,5,6
13,2,object_02,object_07,1366.5,4,2,705.40000000596,0.1111111111111111,2,object_01,5,125,0,3,1,forest_4,2,memory-2step-stake-s,507,2066788,0.0-19.0-0.0-0.13,A14LASEXBQ8C5W,30UZJB2PPKSSO21QHKUJ0S8JS3B35M,3R3YRB5GRJJCFLOKH2M3KWASR6VAU3,3,4
14,1,object_09,object_08,792.70000000298,2,1,651.0,0.2222222222222222,2,object_01,1,127,0,1,2,desert_3,2,memory-2step-stake-s,508,2074948,0.0-19.0-0.0-0.14,A14LASEXBQ8C5W,30UZJB2PPKSSO21QHKUJ0S8JS3B35M,3R3YRB5GRJJCFLOKH2M3KWASR6VAU3,2,1
15,4,object_05,object_10,780.60000000894,8,2,539.59999999404,0.3333333333333333,2,object_01,1,130,0,3,3,restaurant_2,2,memory-2step-stake-s,509,2083090,0.0-19.0-0.0-0.15,A14LASEXBQ8C5W,30UZJB2PPKSSO21QHKUJ0S8JS3B35M,3R3YRB5GRJJCFLOKH2M3KWASR6VAU3,7,8
16,2,object_02,object_07,1031.6000000089,3,1,722.5,0.3333333333333333,1,object_04,5,145,0,3,5,forest_3,2,memory-2step-stake-s,510,2091430,0.0-19.0-0.0-0.16,A14LASEXBQ8C5W,30UZJB2PPKSSO21QHKUJ0S8JS3B35M,3R3YRB5GRJJCFLOKH2M3KWASR6VAU3,3,4
17,3,object_06,object_03,863.80000001192,6,2,541.19999998808,0.5555555555555556,2,object_01,1,150,0,1,5,library_1,2,memory-2step-stake-s,511,2099823,0.0-19.0-0.0-0.17,A14LASEXBQ8C5W,30UZJB2PPKSSO21QHKUJ0S8JS3B35M,3R3YRB5GRJJCFLOKH2M3KWASR6VAU3,5,6
18,1,object_08,object_09,729.20000000298,1,1,525.09999999404,0.0,1,object_04,1,150,0,0,3,desert_8,2,memory-2step-stake-s,512,2107648,0.0-19.0-0.0-0.18,A14LASEXBQ8C5W,30UZJB2PPKSSO21QHKUJ0S8JS3B35M,3R3YRB5GRJJCFLOKH2M3KWASR6VAU3,1,2
19,2,object_07,object_02,1137.1000000089,3,2,595.79999999702,0.1111111111111111,1,object_04,5,155,0,1,7,forest_4,2,memory-2step-stake-s,513,2115652,0.0-19.0-0.0-0.19,A14LASEXBQ8C5W,30UZJB2PPKSSO21QHKUJ0S8JS3B35M,3R3YRB5GRJJCFLOKH2M3KWASR6VAU3,4,3
20,3,object_03,object_06,752.39999999106,6,1,584.5,0.7777777777777778,2,object_01,1,162,0,0,7,library_4,2,memory-2step-stake-s,514,2124282,0.0-19.0-0.0-0.20,A14LASEXBQ8C5W,30UZJB2PPKSSO21QHKUJ0S8JS3B35M,3R3YRB5GRJJCFLOKH2M3KWASR6VAU3,6,5
21,2,object_02,object_07,-1.0,-1,-1,-1.0,0.0,-,0,5,162,0,0,8,forest_4,2,memory-2step-stake-s,515,2130828,0.0-19.0-0.0-0.21,A14LASEXBQ8C5W,30UZJB2PPKSSO21QHKUJ0S8JS3B35M,3R3YRB5GRJJCFLOKH2M3KWASR6VAU3,3,4
22,2,object_07,object_02,1225.0,4,1,725.29999999702,0.6666666666666666,2,object_01,5,192,0,1,6,forest_4,2,memory-2step-stake-s,516,2139461,0.0-19.0-0.0-0.22,A14LASEXBQ8C5W,30UZJB2PPKSSO21QHKUJ0S8JS3B35M,3R3YRB5GRJJCFLOKH2M3KWASR6VAU3,4,3
23,4,object_05,object_10,1126.3999999911,8,2,667.40000000596,0.6666666666666666,2,object_01,1,198,0,1,6,restaurant_1,2,memory-2step-stake-s,517,2148037,0.0-19.0-0.0-0.23,A14LASEXBQ8C5W,30UZJB2PPKSSO21QHKUJ0S8JS3B35M,3R3YRB5GRJJCFLOKH2M3KWASR6VAU3,7,8
24,2,object_02,object_07,1022.700000003,4,2,537.39999999106,0.1111111111111111,2,object_01,1,199,0,1,1,forest_1,2,memory-2step-stake-s,518,2155942,0.0-19.0-0.0-0.24,A14LASEXBQ8C5W,30UZJB2PPKSSO21QHKUJ0S8JS3B35M,3R3YRB5GRJJCFLOKH2M3KWASR6VAU3,3,4
25,2,object_07,object_02,850.19999998808,4,1,623.70000000298,0.1111111111111111,2,object_01,5,204,0,2,1,forest_3,2,memory-2step-stake-s,519,2163934,0.0-19.0-0.0-0.25,A14LASEXBQ8C5W,30UZJB2PPKSSO21QHKUJ0S8JS3B35M,3R3YRB5GRJJCFLOKH2M3KWASR6VAU3,4,3
26,2,object_02,object_07,748.29999999702,3,1,561.10000000894,0.3333333333333333,1,object_04,5,219,0,3,1,forest_3,2,memory-2step-stake-s,520,2172111,0.0-19.0-0.0-0.26,A14LASEXBQ8C5W,30UZJB2PPKSSO21QHKUJ0S8JS3B35M,3R3YRB5GRJJCFLOKH2M3KWASR6VAU3,3,4
27,1,object_09,object_08,909.29999999702,2,1,784.0,0.0,2,object_01,5,219,0,4,0,desert_8,2,memory-2step-stake-s,521,2180169,0.0-19.0-0.0-0.27,A14LASEXBQ8C5W,30UZJB2PPKSSO21QHKUJ0S8JS3B35M,3R3YRB5GRJJCFLOKH2M3KWASR6VAU3,2,1
28,3,object_03,object_06,712.59999999404,5,2,837.0,0.3333333333333333,1,object_04,1,222,0,3,1,library_5,2,memory-2step-stake-s,522,2188586,0.0-19.0-0.0-0.28,A14LASEXBQ8C5W,30UZJB2PPKSSO21QHKUJ0S8JS3B35M,3R3YRB5GRJJCFLOKH2M3KWASR6VAU3,6,5
29,2,object_02,object_07,-1.0,-1,-1,-1.0,0.0,-,0,5,222,0,3,2,forest_1,2,memory-2step-stake-s,523,2195148,0.0-19.0-0.0-0.29,A14LASEXBQ8C5W,30UZJB2PPKSSO21QHKUJ0S8JS3B35M,3R3YRB5GRJJCFLOKH2M3KWASR6VAU3,3,4
30,4,object_10,object_05,1136.700000003,8,1,472.30000001192,0.2222222222222222,2,object_01,1,224,0,2,2,restaurant_6,2,memory-2step-stake-s,524,2203099,0.0-19.0-0.0-0.30,A14LASEXBQ8C5W,30UZJB2PPKSSO21QHKUJ0S8JS3B35M,3R3YRB5GRJJCFLOKH2M3KWASR6VAU3,8,7
31,4,object_05,object_10,1145.799999997,7,1,554.90000000596,0.2222222222222222,1,object_04,1,226,0,2,2,restaurant_7,2,memory-2step-stake-s,525,2211116,0.0-19.0-0.0-0.31,A14LASEXBQ8C5W,30UZJB2PPKSSO21QHKUJ0S8JS3B35M,3R3YRB5GRJJCFLOKH2M3KWASR6VAU3,7,8
32,1,object_08,object_09,924.60000000894,1,1,671.5,0.4444444444444444,1,object_04,5,246,0,4,1,desert_4,2,memory-2step-stake-s,526,2219475,0.0-19.0-0.0-0.32,A14LASEXBQ8C5W,30UZJB2PPKSSO21QHKUJ0S8JS3B35M,3R3YRB5GRJJCFLOKH2M3KWASR6VAU3,1,2
33,1,object_09,object_08,1191.0,2,1,603.20000000298,0.1111111111111111,2,object_01,5,251,0,6,1,desert_2,2,memory-2step-stake-s,527,2227445,0.0-19.0-0.0-0.33,A14LASEXBQ8C5W,30UZJB2PPKSSO21QHKUJ0S8JS3B35M,3R3YRB5GRJJCFLOKH2M3KWASR6VAU3,2,1
34,3,object_06,object_03,664.89999999106,6,2,1035.6000000089,0.2222222222222222,2,object_01,1,253,0,6,2,library_5,2,memory-2step-stake-s,528,2235974,0.0-19.0-0.0-0.34,A14LASEXBQ8C5W,30UZJB2PPKSSO21QHKUJ0S8JS3B35M,3R3YRB5GRJJCFLOKH2M3KWASR6VAU3,5,6
35,4,object_10,object_05,701.29999999702,8,1,777.40000000596,0.2222222222222222,2,object_01,1,255,0,4,2,restaurant_7,2,memory-2step-stake-s,529,2244233,0.0-19.0-0.0-0.35,A14LASEXBQ8C5W,30UZJB2PPKSSO21QHKUJ0S8JS3B35M,3R3YRB5GRJJCFLOKH2M3KWASR6VAU3,8,7
36,3,object_03,object_06,930.20000000298,5,2,545.90000000596,0.7777777777777778,1,object_04,1,262,0,7,1,library_4,2,memory-2step-stake-s,530,2252771,0.0-19.0-0.0-0.36,A14LASEXBQ8C5W,30UZJB2PPKSSO21QHKUJ0S8JS3B35M,3R3YRB5GRJJCFLOKH2M3KWASR6VAU3,6,5
37,4,object_10,object_05,1004.400000006,7,2,680.20000000298,0.6666666666666666,1,object_04,5,292,0,6,0,restaurant_6,2,memory-2step-stake-s,531,2261340,0.0-19.0-0.0-0.37,A14LASEXBQ8C5W,30UZJB2PPKSSO21QHKUJ0S8JS3B35M,3R3YRB5GRJJCFLOKH2M3KWASR6VAU3,8,7
38,4,object_10,object_05,690.5,8,1,569.19999998808,0.2222222222222222,2,object_01,1,294,0,7,2,restaurant_2,2,memory-2step-stake-s,532,2269399,0.0-19.0-0.0-0.38,A14LASEXBQ8C5W,30UZJB2PPKSSO21QHKUJ0S8JS3B35M,3R3YRB5GRJJCFLOKH2M3KWASR6VAU3,8,7
39,4,object_05,object_10,1263.299999997,7,1,476.09999999404,0.7777777777777778,1,object_04,1,301,0,7,1,restaurant_6,2,memory-2step-stake-s,533,2277901,0.0-19.0-0.0-0.39,A14LASEXBQ8C5W,30UZJB2PPKSSO21QHKUJ0S8JS3B35M,3R3YRB5GRJJCFLOKH2M3KWASR6VAU3,7,8
40,3,object_03,object_06,763.90000000596,5,2,678.20000000298,0.7777777777777778,1,object_04,1,308,0,7,1,library_1,2,memory-2step-stake-s,534,2286591,0.0-19.0-0.0-0.40,A14LASEXBQ8C5W,30UZJB2PPKSSO21QHKUJ0S8JS3B35M,3R3YRB5GRJJCFLOKH2M3KWASR6VAU3,6,5
41,4,object_10,object_05,-1.0,-1,-1,-1.0,0.0,-,0,1,308,0,9,2,restaurant_1,2,memory-2step-stake-s,535,2293163,0.0-19.0-0.0-0.41,A14LASEXBQ8C5W,30UZJB2PPKSSO21QHKUJ0S8JS3B35M,3R3YRB5GRJJCFLOKH2M3KWASR6VAU3,8,7
42,1,object_09,object_08,1136.200000003,2,1,656.29999999702,0.3333333333333333,2,object_01,5,323,0,8,3,desert_3,2,memory-2step-stake-s,536,2301423,0.0-19.0-0.0-0.42,A14LASEXBQ8C5W,30UZJB2PPKSSO21QHKUJ0S8JS3B35M,3R3YRB5GRJJCFLOKH2M3KWASR6VAU3,2,1
43,2,object_07,object_02,1021.0,3,2,633.09999999404,1.0,1,object_04,5,368,0,9,7,forest_3,2,memory-2step-stake-s,537,2310297,0.0-19.0-0.0-0.43,A14LASEXBQ8C5W,30UZJB2PPKSSO21QHKUJ0S8JS3B35M,3R3YRB5GRJJCFLOKH2M3KWASR6VAU3,4,3
44,1,object_09,object_08,776.79999999702,1,2,526.5,1.0,1,object_04,5,413,0,9,7,desert_8,2,memory-2step-stake-s,538,2319091,0.0-19.0-0.0-0.44,A14LASEXBQ8C5W,30UZJB2PPKSSO21QHKUJ0S8JS3B35M,3R3YRB5GRJJCFLOKH2M3KWASR6VAU3,2,1
45,2,object_07,object_02,849.39999999106,3,2,582.29999999702,0.6666666666666666,1,object_04,5,443,0,6,8,forest_1,2,memory-2step-stake-s,539,2327576,0.0-19.0-0.0-0.45,A14LASEXBQ8C5W,30UZJB2PPKSSO21QHKUJ0S8JS3B35M,3R3YRB5GRJJCFLOKH2M3KWASR6VAU3,4,3
46,3,object_03,object_06,901.39999999106,5,2,489.59999999404,0.5555555555555556,1,object_04,5,468,0,5,7,library_1,2,memory-2step-stake-s,540,2335927,0.0-19.0-0.0-0.46,A14LASEXBQ8C5W,30UZJB2PPKSSO21QHKUJ0S8JS3B35M,3R3YRB5GRJJCFLOKH2M3KWASR6VAU3,6,5
47,3,object_03,object_06,729.70000000298,6,1,418.79999999702,1.0,2,object_01,1,477,0,8,9,library_6,2,memory-2step-stake-s,541,2344586,0.0-19.0-0.0-0.47,A14LASEXBQ8C5W,30UZJB2PPKSSO21QHKUJ0S8JS3B35M,3R3YRB5GRJJCFLOKH2M3KWASR6VAU3,6,5
48,2,object_07,object_02,1228.1000000089,4,1,609.40000000596,1.0,2,object_01,5,522,0,9,9,forest_3,2,memory-2step-stake-s,542,2353414,0.0-19.0-0.0-0.48,A14LASEXBQ8C5W,30UZJB2PPKSSO21QHKUJ0S8JS3B35M,3R3YRB5GRJJCFLOKH2M3KWASR6VAU3,4,3
49,3,object_03,object_06,1486.900000006,5,2,601.0,0.5555555555555556,1,object_04,1,527,0,5,7,library_4,2,memory-2step-stake-s,543,2361851,0.0-19.0-0.0-0.49,A14LASEXBQ8C5W,30UZJB2PPKSSO21QHKUJ0S8JS3B35M,3R3YRB5GRJJCFLOKH2M3KWASR6VAU3,6,5
50,1,object_09,object_08,1440.8000000119,2,1,536.79999999702,0.7777777777777778,2,object_01,5,562,0,5,7,desert_3,2,memory-2step-stake-s,544,2370409,0.0-19.0-0.0-0.50,A14LASEXBQ8C5W,30UZJB2PPKSSO21QHKUJ0S8JS3B35M,3R3YRB5GRJJCFLOKH2M3KWASR6VAU3,2,1
51,3,object_03,object_06,707.20000000298,6,1,1240.099999994,0.8888888888888888,2,object_01,1,570,0,4,8,library_6,2,memory-2step-stake-s,545,2379795,0.0-19.0-0.0-0.51,A14LASEXBQ8C5W,30UZJB2PPKSSO21QHKUJ0S8JS3B35M,3R3YRB5GRJJCFLOKH2M3KWASR6VAU3,6,5
52,4,object_05,object_10,880.70000000298,7,1,532.70000000298,0.2222222222222222,1,object_04,5,580,0,2,7,restaurant_7,2,memory-2step-stake-s,546,2387821,0.0-19.0-0.0-0.52,A14LASEXBQ8C5W,30UZJB2PPKSSO21QHKUJ0S8JS3B35M,3R3YRB5GRJJCFLOKH2M3KWASR6VAU3,7,8
53,3,object_06,object_03,-1.0,-1,-1,-1.0,0.0,-,0,5,580,0,1,6,library_5,2,memory-2step-stake-s,547,2394383,0.0-19.0-0.0-0.53,A14LASEXBQ8C5W,30UZJB2PPKSSO21QHKUJ0S8JS3B35M,3R3YRB5GRJJCFLOKH2M3KWASR6VAU3,5,6
54,3,object_03,object_06,1109.0,6,1,389.80000001192,0.8888888888888888,2,object_01,1,588,0,1,8,library_6,2,memory-2step-stake-s,548,2402911,0.0-19.0-0.0-0.54,A14LASEXBQ8C5W,30UZJB2PPKSSO21QHKUJ0S8JS3B35M,3R3YRB5GRJJCFLOKH2M3KWASR6VAU3,6,5
55,3,object_06,object_03,908.30000001192,5,1,473.0,0.0,1,object_04,1,588,0,0,8,library_4,2,memory-2step-stake-s,549,2410670,0.0-19.0-0.0-0.55,A14LASEXBQ8C5W,30UZJB2PPKSSO21QHKUJ0S8JS3B35M,3R3YRB5GRJJCFLOKH2M3KWASR6VAU3,5,6
56,2,object_02,object_07,649.09999999404,4,2,566.60000000894,0.8888888888888888,2,object_01,1,596,0,0,8,forest_4,2,memory-2step-stake-s,550,2419378,0.0-19.0-0.0-0.56,A14LASEXBQ8C5W,30UZJB2PPKSSO21QHKUJ0S8JS3B35M,3R3YRB5GRJJCFLOKH2M3KWASR6VAU3,3,4
57,2,object_02,object_07,1327.700000003,3,1,446.59999999404,0.2222222222222222,1,object_04,1,598,0,2,6,forest_1,2,memory-2step-stake-s,551,2427305,0.0-19.0-0.0-0.57,A14LASEXBQ8C5W,30UZJB2PPKSSO21QHKUJ0S8JS3B35M,3R3YRB5GRJJCFLOKH2M3KWASR6VAU3,3,4
58,1,object_09,object_08,567.89999999106,1,2,536.0,0.1111111111111111,1,object_04,1,599,0,1,7,desert_3,2,memory-2step-stake-s,552,2435210,0.0-19.0-0.0-0.58,A14LASEXBQ8C5W,30UZJB2PPKSSO21QHKUJ0S8JS3B35M,3R3YRB5GRJJCFLOKH2M3KWASR6VAU3,2,1
59,3,object_06,object_03,711.0,6,2,497.10000000894,0.8888888888888888,2,object_01,1,607,0,5,8,library_1,2,memory-2step-stake-s,553,2443865,0.0-19.0-0.0-0.59,A14LASEXBQ8C5W,30UZJB2PPKSSO21QHKUJ0S8JS3B35M,3R3YRB5GRJJCFLOKH2M3KWASR6VAU3,5,6
60,4,object_05,object_10,698.39999999106,7,1,487.20000000298,0.5555555555555556,1,object_04,1,612,0,5,8,restaurant_2,2,memory-2step-stake-s,554,2452157,0.0-19.0-0.0-0.60,A14LASEXBQ8C5W,30UZJB2PPKSSO21QHKUJ0S8JS3B35M,3R3YRB5GRJJCFLOKH2M3KWASR6VAU3,7,8
61,3,object_03,object_06,981.5,6,1,475.5,0.8888888888888888,2,object_01,5,652,0,6,8,library_5,2,memory-2step-stake-s,555,2460790,0.0-19.0-0.0-0.61,A14LASEXBQ8C5W,30UZJB2PPKSSO21QHKUJ0S8JS3B35M,3R3YRB5GRJJCFLOKH2M3KWASR6VAU3,6,5
62,1,object_09,object_08,612.79999999702,2,1,457.69999998808,1.0,2,object_01,5,697,0,6,9,desert_3,2,memory-2step-stake-s,556,2469459,0.0-19.0-0.0-0.62,A14LASEXBQ8C5W,30UZJB2PPKSSO21QHKUJ0S8JS3B35M,3R3YRB5GRJJCFLOKH2M3KWASR6VAU3,2,1
63,2,object_02,object_07,1319.599999994,4,2,622.0,0.5555555555555556,2,object_01,5,722,0,6,5,forest_6,2,memory-2step-stake-s,557,2477917,0.0-19.0-0.0-0.63,A14LASEXBQ8C5W,30UZJB2PPKSSO21QHKUJ0S8JS3B35M,3R3YRB5GRJJCFLOKH2M3KWASR6VAU3,3,4
64,4,object_05,object_10,744.09999999404,7,1,515.89999999106,0.3333333333333333,1,object_04,5,737,0,3,2,restaurant_7,2,memory-2step-stake-s,558,2486040,0.0-19.0-0.0-0.64,A14LASEXBQ8C5W,30UZJB2PPKSSO21QHKUJ0S8JS3B35M,3R3YRB5GRJJCFLOKH2M3KWASR6VAU3,7,8
65,2,object_02,object_07,846.29999999702,4,2,578.89999999106,0.2222222222222222,2,object_01,5,747,0,6,2,forest_6,2,memory-2step-stake-s,559,2494116,0.0-19.0-0.0-0.65,A14LASEXBQ8C5W,30UZJB2PPKSSO21QHKUJ0S8JS3B35M,3R3YRB5GRJJCFLOKH2M3KWASR6VAU3,3,4
66,2,object_07,object_02,688.0,3,2,565.59999999404,0.8888888888888888,1,object_04,5,787,0,8,1,forest_3,2,memory-2step-stake-s,560,2502769,0.0-19.0-0.0-0.66,A14LASEXBQ8C5W,30UZJB2PPKSSO21QHKUJ0S8JS3B35M,3R3YRB5GRJJCFLOKH2M3KWASR6VAU3,4,3
67,3,object_03,object_06,732.70000000298,5,2,548.20000000298,1.0,1,object_04,5,832,0,9,0,library_6,2,memory-2step-stake-s,561,2511599,0.0-19.0-0.0-0.67,A14LASEXBQ8C5W,30UZJB2PPKSSO21QHKUJ0S8JS3B35M,3R3YRB5GRJJCFLOKH2M3KWASR6VAU3,6,5
68,1,object_09,object_08,1162.299999997,1,2,458.89999999106,0.8888888888888888,1,object_04,5,872,0,8,2,desert_8,2,memory-2step-stake-s,562,2520158,0.0-19.0-0.0-0.68,A14LASEXBQ8C5W,30UZJB2PPKSSO21QHKUJ0S8JS3B35M,3R3YRB5GRJJCFLOKH2M3KWASR6VAU3,2,1
69,1,object_09,object_08,869.19999998808,1,2,480.0,0.3333333333333333,1,object_04,1,875,0,3,4,desert_8,2,memory-2step-stake-s,563,2528234,0.0-19.0-0.0-0.69,A14LASEXBQ8C5W,30UZJB2PPKSSO21QHKUJ0S8JS3B35M,3R3YRB5GRJJCFLOKH2M3KWASR6VAU3,2,1
70,1,object_09,object_08,604.59999999404,2,1,454.79999999702,0.1111111111111111,2,object_01,5,880,0,4,1,desert_8,2,memory-2step-stake-s,564,2536042,0.0-19.0-0.0-0.70,A14LASEXBQ8C5W,30UZJB2PPKSSO21QHKUJ0S8JS3B35M,3R3YRB5GRJJCFLOKH2M3KWASR6VAU3,2,1
71,2,object_07,object_02,721.59999999404,3,2,580.39999999106,0.3333333333333333,1,object_04,5,895,0,3,5,forest_1,2,memory-2step-stake-s,565,2544215,0.0-19.0-0.0-0.71,A14LASEXBQ8C5W,30UZJB2PPKSSO21QHKUJ0S8JS3B35M,3R3YRB5GRJJCFLOKH2M3KWASR6VAU3,4,3
72,2,object_02,object_07,806.09999999404,4,2,639.20000000298,0.3333333333333333,2,object_01,5,910,0,3,3,forest_6,2,memory-2step-stake-s,566,2552441,0.0-19.0-0.0-0.72,A14LASEXBQ8C5W,30UZJB2PPKSSO21QHKUJ0S8JS3B35M,3R3YRB5GRJJCFLOKH2M3KWASR6VAU3,3,4
73,3,object_03,object_06,827.0,6,1,548.5,0.5555555555555556,2,object_01,1,915,0,3,5,library_6,2,memory-2step-stake-s,567,2560837,0.0-19.0-0.0-0.73,A14LASEXBQ8C5W,30UZJB2PPKSSO21QHKUJ0S8JS3B35M,3R3YRB5GRJJCFLOKH2M3KWASR6VAU3,6,5
74,3,object_03,object_06,1073.400000006,6,1,697.59999999404,0.2222222222222222,2,object_01,1,917,0,3,2,library_1,2,memory-2step-stake-s,568,2569007,0.0-19.0-0.0-0.74,A14LASEXBQ8C5W,30UZJB2PPKSSO21QHKUJ0S8JS3B35M,3R3YRB5GRJJCFLOKH2M3KWASR6VAU3,6,5
75,1,object_09,object_08,791.59999999404,1,2,419.70000000298,0.2222222222222222,1,object_04,5,927,0,2,3,desert_2,2,memory-2step-stake-s,569,2576931,0.0-19.0-0.0-0.75,A14LASEXBQ8C5W,30UZJB2PPKSSO21QHKUJ0S8JS3B35M,3R3YRB5GRJJCFLOKH2M3KWASR6VAU3,2,1
76,1,object_08,object_09,675.60000000894,2,2,544.09999999404,0.6666666666666666,2,object_01,5,957,0,2,6,desert_8,2,memory-2step-stake-s,570,2585407,0.0-19.0-0.0-0.76,A14LASEXBQ8C5W,30UZJB2PPKSSO21QHKUJ0S8JS3B35M,3R3YRB5GRJJCFLOKH2M3KWASR6VAU3,1,2
77,1,object_08,object_09,733.0,2,2,524.79999999702,0.8888888888888888,2,object_01,5,997,0,2,8,desert_4,2,memory-2step-stake-s,571,2594082,0.0-19.0-0.0-0.77,A14LASEXBQ8C5W,30UZJB2PPKSSO21QHKUJ0S8JS3B35M,3R3YRB5GRJJCFLOKH2M3KWASR6VAU3,1,2
78,4,object_05,object_10,1091.3000000119,8,2,1418.0,0.7777777777777778,2,object_01,5,1032,0,3,7,restaurant_1,2,memory-2step-stake-s,572,2603541,0.0-19.0-0.0-0.78,A14LASEXBQ8C5W,30UZJB2PPKSSO21QHKUJ0S8JS3B35M,3R3YRB5GRJJCFLOKH2M3KWASR6VAU3,7,8
79,4,object_10,object_05,532.40000000596,8,1,472.79999999702,0.7777777777777778,2,object_01,1,1039,0,3,7,restaurant_6,2,memory-2step-stake-s,573,2612066,0.0-19.0-0.0-0.79,A14LASEXBQ8C5W,30UZJB2PPKSSO21QHKUJ0S8JS3B35M,3R3YRB5GRJJCFLOKH2M3KWASR6VAU3,8,7
80,1,object_08,object_09,670.30000001192,2,2,458.5,0.5555555555555556,2,object_01,5,1064,0,3,5,desert_4,2,memory-2step-stake-s,574,2620341,0.0-19.0-0.0-0.80,A14LASEXBQ8C5W,30UZJB2PPKSSO21QHKUJ0S8JS3B35M,3R3YRB5GRJJCFLOKH2M3KWASR6VAU3,1,2
81,3,object_06,object_03,884.89999999106,6,2,431.20000000298,0.3333333333333333,2,object_01,5,1079,0,3,3,library_5,2,memory-2step-stake-s,575,2628348,0.0-19.0-0.0-0.81,A14LASEXBQ8C5W,30UZJB2PPKSSO21QHKUJ0S8JS3B35M,3R3YRB5GRJJCFLOKH2M3KWASR6VAU3,5,6
82,1,object_08,object_09,566.09999999404,1,1,395.20000000298,0.1111111111111111,1,object_04,5,1084,0,1,3,desert_4,2,memory-2step-stake-s,576,2636140,0.0-19.0-0.0-0.82,A14LASEXBQ8C5W,30UZJB2PPKSSO21QHKUJ0S8JS3B35M,3R3YRB5GRJJCFLOKH2M3KWASR6VAU3,1,2
83,1,object_09,object_08,792.5,2,1,729.5,0.3333333333333333,2,object_01,5,1099,0,1,3,desert_2,2,memory-2step-stake-s,577,2644465,0.0-19.0-0.0-0.83,A14LASEXBQ8C5W,30UZJB2PPKSSO21QHKUJ0S8JS3B35M,3R3YRB5GRJJCFLOKH2M3KWASR6VAU3,2,1
84,3,object_03,object_06,736.79999999702,6,1,541.39999999106,0.3333333333333333,2,object_01,5,1114,0,1,3,library_4,2,memory-2step-stake-s,578,2652587,0.0-19.0-0.0-0.84,A14LASEXBQ8C5W,30UZJB2PPKSSO21QHKUJ0S8JS3B35M,3R3YRB5GRJJCFLOKH2M3KWASR6VAU3,6,5
85,1,object_09,object_08,741.79999999702,1,2,522.20000000298,0.0,1,object_04,5,1114,0,0,2,desert_8,2,memory-2step-stake-s,579,2660383,0.0-19.0-0.0-0.85,A14LASEXBQ8C5W,30UZJB2PPKSSO21QHKUJ0S8JS3B35M,3R3YRB5GRJJCFLOKH2M3KWASR6VAU3,2,1
86,4,object_05,object_10,990.09999999404,8,2,510.70000000298,0.2222222222222222,2,object_01,1,1116,0,2,2,restaurant_6,2,memory-2step-stake-s,580,2668405,0.0-19.0-0.0-0.86,A14LASEXBQ8C5W,30UZJB2PPKSSO21QHKUJ0S8JS3B35M,3R3YRB5GRJJCFLOKH2M3KWASR6VAU3,7,8
87,1,object_08,object_09,940.59999999404,2,2,649.59999999404,0.1111111111111111,2,object_01,5,1121,0,3,1,desert_3,2,memory-2step-stake-s,581,2676431,0.0-19.0-0.0-0.87,A14LASEXBQ8C5W,30UZJB2PPKSSO21QHKUJ0S8JS3B35M,3R3YRB5GRJJCFLOKH2M3KWASR6VAU3,1,2
88,3,object_06,object_03,731.20000000298,5,1,495.29999999702,0.1111111111111111,1,object_04,1,1122,0,1,3,library_1,2,memory-2step-stake-s,582,2684322,0.0-19.0-0.0-0.88,A14LASEXBQ8C5W,30UZJB2PPKSSO21QHKUJ0S8JS3B35M,3R3YRB5GRJJCFLOKH2M3KWASR6VAU3,5,6
89,1,object_09,object_08,1017.3999999911,1,2,799.89999999106,0.1111111111111111,1,object_04,1,1123,0,1,0,desert_4,2,memory-2step-stake-s,583,2692497,0.0-19.0-0.0-0.89,A14LASEXBQ8C5W,30UZJB2PPKSSO21QHKUJ0S8JS3B35M,3R3YRB5GRJJCFLOKH2M3KWASR6VAU3,2,1
90,3,object_03,object_06,810.40000000596,5,2,447.10000000894,0.2222222222222222,1,object_04,1,1125,0,2,3,library_5,2,memory-2step-stake-s,584,2700447,0.0-19.0-0.0-0.90,A14LASEXBQ8C5W,30UZJB2PPKSSO21QHKUJ0S8JS3B35M,3R3YRB5GRJJCFLOKH2M3KWASR6VAU3,6,5
91,4,object_05,object_10,1042.599999994,8,2,601.59999999404,0.2222222222222222,2,object_01,1,1127,0,3,2,restaurant_2,2,memory-2step-stake-s,585,2708540,0.0-19.0-0.0-0.91,A14LASEXBQ8C5W,30UZJB2PPKSSO21QHKUJ0S8JS3B35M,3R3YRB5GRJJCFLOKH2M3KWASR6VAU3,7,8
92,4,object_05,object_10,799.90000000596,7,1,491.59999999404,0.0,1,object_04,1,1127,0,0,3,restaurant_7,2,memory-2step-stake-s,586,2716317,0.0-19.0-0.0-0.92,A14LASEXBQ8C5W,30UZJB2PPKSSO21QHKUJ0S8JS3B35M,3R3YRB5GRJJCFLOKH2M3KWASR6VAU3,7,8
93,4,object_05,object_10,651.5,8,2,526.09999999404,0.3333333333333333,2,object_01,1,1130,0,1,3,restaurant_6,2,memory-2step-stake-s,587,2724447,0.0-19.0-0.0-0.93,A14LASEXBQ8C5W,30UZJB2PPKSSO21QHKUJ0S8JS3B35M,3R3YRB5GRJJCFLOKH2M3KWASR6VAU3,7,8
94,1,object_08,object_09,706.40000000596,2,2,498.70000000298,0.3333333333333333,2,object_01,5,1145,0,0,3,desert_8,2,memory-2step-stake-s,588,2732549,0.0-19.0-0.0-0.94,A14LASEXBQ8C5W,30UZJB2PPKSSO21QHKUJ0S8JS3B35M,3R3YRB5GRJJCFLOKH2M3KWASR6VAU3,1,2
95,1,object_08,object_09,633.89999999106,2,2,566.79999999702,0.6666666666666666,2,object_01,5,1175,0,5,6,desert_2,2,memory-2step-stake-s,589,2741046,0.0-19.0-0.0-0.95,A14LASEXBQ8C5W,30UZJB2PPKSSO21QHKUJ0S8JS3B35M,3R3YRB5GRJJCFLOKH2M3KWASR6VAU3,1,2
96,2,object_07,object_02,942.0,3,2,596.10000000894,0.2222222222222222,1,object_04,5,1185,0,2,6,forest_4,2,memory-2step-stake-s,590,2749120,0.0-19.0-0.0-0.96,A14LASEXBQ8C5W,30UZJB2PPKSSO21QHKUJ0S8JS3B35M,3R3YRB5GRJJCFLOKH2M3KWASR6VAU3,4,3
97,1,object_08,object_09,856.20000000298,2,2,520.0,0.3333333333333333,2,object_01,5,1200,0,1,3,desert_2,2,memory-2step-stake-s,591,2757212,0.0-19.0-0.0-0.97,A14LASEXBQ8C5W,30UZJB2PPKSSO21QHKUJ0S8JS3B35M,3R3YRB5GRJJCFLOKH2M3KWASR6VAU3,1,2
98,2,object_02,object_07,809.20000000298,4,2,594.40000000596,0.0,2,object_01,5,1200,0,2,0,forest_6,2,memory-2step-stake-s,592,2765073,0.0-19.0-0.0-0.98,A14LASEXBQ8C5W,30UZJB2PPKSSO21QHKUJ0S8JS3B35M,3R3YRB5GRJJCFLOKH2M3KWASR6VAU3,3,4
99,1,object_08,object_09,596.89999999106,1,1,521.0,0.0,1,object_04,5,1200,0,0,1,desert_8,2,memory-2step-stake-s,593,2772852,0.0-19.0-0.0-0.99,A14LASEXBQ8C5W,30UZJB2PPKSSO21QHKUJ0S8JS3B35M,3R3YRB5GRJJCFLOKH2M3KWASR6VAU3,1,2
100,4,object_05,object_10,448.20000000298,7,1,415.29999999702,0.4444444444444444,1,object_04,1,1204,0,4,2,restaurant_1,2,memory-2step-stake-s,594,2780956,0.0-19.0-0.0-0.100,A14LASEXBQ8C5W,30UZJB2PPKSSO21QHKUJ0S8JS3B35M,3R3YRB5GRJJCFLOKH2M3KWASR6VAU3,7,8
101,2,object_07,object_02,814.30000001192,3,2,609.70000000298,0.5555555555555556,1,object_04,1,1209,0,5,1,forest_4,2,memory-2step-stake-s,595,2789371,0.0-19.0-0.0-0.101,A14LASEXBQ8C5W,30UZJB2PPKSSO21QHKUJ0S8JS3B35M,3R3YRB5GRJJCFLOKH2M3KWASR6VAU3,4,3
102,1,object_09,object_08,757.89999999106,2,1,928.5,0.1111111111111111,2,object_01,1,1210,0,6,1,desert_2,2,memory-2step-stake-s,596,2797685,0.0-19.0-0.0-0.102,A14LASEXBQ8C5W,30UZJB2PPKSSO21QHKUJ0S8JS3B35M,3R3YRB5GRJJCFLOKH2M3KWASR6VAU3,2,1
103,2,object_02,object_07,689.5,4,2,795.0,0.4444444444444444,2,object_01,5,1230,0,4,4,forest_3,2,memory-2step-stake-s,597,2806160,0.0-19.0-0.0-0.103,A14LASEXBQ8C5W,30UZJB2PPKSSO21QHKUJ0S8JS3B35M,3R3YRB5GRJJCFLOKH2M3KWASR6VAU3,3,4
104,2,object_02,object_07,569.09999999404,3,1,655.60000000894,0.6666666666666666,1,object_04,1,1236,0,6,2,forest_4,2,memory-2step-stake-s,598,2814719,0.0-19.0-0.0-0.104,A14LASEXBQ8C5W,30UZJB2PPKSSO21QHKUJ0S8JS3B35M,3R3YRB5GRJJCFLOKH2M3KWASR6VAU3,3,4
105,3,object_03,object_06,611.5,6,1,554.69999998808,0.1111111111111111,2,object_01,1,1237,0,7,1,library_5,2,memory-2step-stake-s,599,2822647,0.0-19.0-0.0-0.105,A14LASEXBQ8C5W,30UZJB2PPKSSO21QHKUJ0S8JS3B35M,3R3YRB5GRJJCFLOKH2M3KWASR6VAU3,6,5
106,4,object_10,object_05,719.79999999702,7,2,673.09999999404,0.8888888888888888,1,object_04,1,1245,0,8,2,restaurant_1,2,memory-2step-stake-s,600,2831436,0.0-19.0-0.0-0.106,A14LASEXBQ8C5W,30UZJB2PPKSSO21QHKUJ0S8JS3B35M,3R3YRB5GRJJCFLOKH2M3KWASR6VAU3,8,7
107,3,object_03,object_06,621.90000000596,5,2,499.19999998808,0.8888888888888888,1,object_04,1,1253,0,8,3,library_6,2,memory-2step-stake-s,601,2840077,0.0-19.0-0.0-0.107,A14LASEXBQ8C5W,30UZJB2PPKSSO21QHKUJ0S8JS3B35M,3R3YRB5GRJJCFLOKH2M3KWASR6VAU3,6,5
108,4,object_05,object_10,1486.700000003,8,2,760.89999999106,0.2222222222222222,2,object_01,5,1263,0,7,2,restaurant_7,2,memory-2step-stake-s,602,2848333,0.0-19.0-0.0-0.108,A14LASEXBQ8C5W,30UZJB2PPKSSO21QHKUJ0S8JS3B35M,3R3YRB5GRJJCFLOKH2M3KWASR6VAU3,7,8
109,3,object_06,object_03,740.59999999404,5,1,749.5,0.8888888888888888,1,object_04,1,1271,0,8,3,library_6,2,memory-2step-stake-s,603,2857227,0.0-19.0-0.0-0.109,A14LASEXBQ8C5W,30UZJB2PPKSSO21QHKUJ0S8JS3B35M,3R3YRB5GRJJCFLOKH2M3KWASR6VAU3,5,6
110,1,object_08,object_09,946.80000001192,2,2,510.90000000596,0.6666666666666666,2,object_01,1,1277,0,8,6,desert_8,2,memory-2step-stake-s,604,2865669,0.0-19.0-0.0-0.110,A14LASEXBQ8C5W,30UZJB2PPKSSO21QHKUJ0S8JS3B35M,3R3YRB5GRJJCFLOKH2M3KWASR6VAU3,1,2
111,1,object_09,object_08,-1.0,-1,-1,-1.0,0.0,-,0,1,1277,0,8,3,desert_3,2,memory-2step-stake-s,605,2872209,0.0-19.0-0.0-0.111,A14LASEXBQ8C5W,30UZJB2PPKSSO21QHKUJ0S8JS3B35M,3R3YRB5GRJJCFLOKH2M3KWASR6VAU3,2,1
112,4,object_05,object_10,519.69999998808,7,1,502.70000000298,0.3333333333333333,1,object_04,1,1280,0,3,2,restaurant_2,2,memory-2step-stake-s,606,2880310,0.0-19.0-0.0-0.112,A14LASEXBQ8C5W,30UZJB2PPKSSO21QHKUJ0S8JS3B35M,3R3YRB5GRJJCFLOKH2M3KWASR6VAU3,7,8
113,1,object_08,object_09,805.89999999106,2,2,384.5,0.1111111111111111,2,object_01,5,1285,0,8,1,desert_2,2,memory-2step-stake-s,607,2888041,0.0-19.0-0.0-0.113,A14LASEXBQ8C5W,30UZJB2PPKSSO21QHKUJ0S8JS3B35M,3R3YRB5GRJJCFLOKH2M3KWASR6VAU3,1,2
114,3,object_06,object_03,357.60000000894,5,1,338.90000000596,0.8888888888888888,1,object_04,1,1293,0,8,1,library_6,2,memory-2step-stake-s,608,2896513,0.0-19.0-0.0-0.114,A14LASEXBQ8C5W,30UZJB2PPKSSO21QHKUJ0S8JS3B35M,3R3YRB5GRJJCFLOKH2M3KWASR6VAU3,5,6
115,2,object_02,object_07,755.60000000894,4,2,418.5,0.2222222222222222,2,object_01,1,1295,0,7,2,forest_6,2,memory-2step-stake-s,609,2904412,0.0-19.0-0.0-0.115,A14LASEXBQ8C5W,30UZJB2PPKSSO21QHKUJ0S8JS3B35M,3R3YRB5GRJJCFLOKH2M3KWASR6VAU3,3,4
116,4,object_10,object_05,-1.0,-1,-1,-1.0,0.0,-,0,1,1295,0,6,2,restaurant_7,2,memory-2step-stake-s,610,2910985,0.0-19.0-0.0-0.116,A14LASEXBQ8C5W,30UZJB2PPKSSO21QHKUJ0S8JS3B35M,3R3YRB5GRJJCFLOKH2M3KWASR6VAU3,8,7
117,3,object_03,object_06,768.59999999404,6,1,580.70000000298,0.0,2,object_01,1,1295,0,4,0,library_6,2,memory-2step-stake-s,611,2918859,0.0-19.0-0.0-0.117,A14LASEXBQ8C5W,30UZJB2PPKSSO21QHKUJ0S8JS3B35M,3R3YRB5GRJJCFLOKH2M3KWASR6VAU3,6,5
118,1,object_08,object_09,787.0,2,2,322.10000000894,0.1111111111111111,2,object_01,1,1296,0,2,1,desert_3,2,memory-2step-stake-s,612,2926571,0.0-19.0-0.0-0.118,A14LASEXBQ8C5W,30UZJB2PPKSSO21QHKUJ0S8JS3B35M,3R3YRB5GRJJCFLOKH2M3KWASR6VAU3,1,2
119,2,object_02,object_07,1053.1000000089,3,1,648.10000000894,0.5555555555555556,1,object_04,5,1321,0,5,3,forest_6,2,memory-2step-stake-s,613,2934989,0.0-19.0-0.0-0.119,A14LASEXBQ8C5W,30UZJB2PPKSSO21QHKUJ0S8JS3B35M,3R3YRB5GRJJCFLOKH2M3KWASR6VAU3,3,4
120,1,object_08,object_09,1252.6000000089,1,1,482.09999999404,0.8888888888888888,1,object_04,1,1329,0,8,7,desert_2,2,memory-2step-stake-s,614,2943613,0.0-19.0-0.0-0.120,A14LASEXBQ8C5W,30UZJB2PPKSSO21QHKUJ0S8JS3B35M,3R3YRB5GRJJCFLOKH2M3KWASR6VAU3,1,2
121,1,object_09,object_08,1014.299999997,1,2,536.90000000596,0.6666666666666666,1,object_04,5,1359,0,6,8,desert_3,2,memory-2step-stake-s,615,2952073,0.0-19.0-0.0-0.121,A14LASEXBQ8C5W,30UZJB2PPKSSO21QHKUJ0S8JS3B35M,3R3YRB5GRJJCFLOKH2M3KWASR6VAU3,2,1
122,2,object_07,object_02,1482.3999999911,3,2,492.79999999702,0.5555555555555556,1,object_04,5,1384,0,5,7,forest_6,2,memory-2step-stake-s,616,2960381,0.0-19.0-0.0-0.122,A14LASEXBQ8C5W,30UZJB2PPKSSO21QHKUJ0S8JS3B35M,3R3YRB5GRJJCFLOKH2M3KWASR6VAU3,4,3
123,2,object_02,object_07,942.30000001192,3,1,434.40000000596,0.2222222222222222,1,object_04,5,1394,0,2,8,forest_4,2,memory-2step-stake-s,617,2968326,0.0-19.0-0.0-0.123,A14LASEXBQ8C5W,30UZJB2PPKSSO21QHKUJ0S8JS3B35M,3R3YRB5GRJJCFLOKH2M3KWASR6VAU3,3,4
124,4,object_05,object_10,1201.6999999881,8,2,614.09999999404,0.7777777777777778,2,object_01,5,1429,0,5,7,restaurant_1,2,memory-2step-stake-s,618,2976929,0.0-19.0-0.0-0.124,A14LASEXBQ8C5W,30UZJB2PPKSSO21QHKUJ0S8JS3B35M,3R3YRB5GRJJCFLOKH2M3KWASR6VAU3,7,8
125,2,object_02,object_07,1289.0,4,2,641.19999998808,0.6666666666666666,2,object_01,5,1459,0,7,6,forest_6,2,memory-2step-stake-s,619,2985475,0.0-19.0-0.0-0.125,A14LASEXBQ8C5W,30UZJB2PPKSSO21QHKUJ0S8JS3B35M,3R3YRB5GRJJCFLOKH2M3KWASR6VAU3,3,4
126,3,object_06,object_03,849.10000000894,6,2,530.90000000596,0.6666666666666666,2,object_01,5,1489,0,8,6,library_1,2,memory-2step-stake-s,620,2993914,0.0-19.0-0.0-0.126,A14LASEXBQ8C5W,30UZJB2PPKSSO21QHKUJ0S8JS3B35M,3R3YRB5GRJJCFLOKH2M3KWASR6VAU3,5,6
127,3,object_06,object_03,602.79999999702,5,1,521.39999999106,0.8888888888888888,1,object_04,1,1497,0,8,6,library_4,2,memory-2step-stake-s,621,3002540,0.0-19.0-0.0-0.127,A14LASEXBQ8C5W,30UZJB2PPKSSO21QHKUJ0S8JS3B35M,3R3YRB5GRJJCFLOKH2M3KWASR6VAU3,5,6
128,2,object_02,object_07,1049.299999997,4,2,517.5,0.7777777777777778,2,object_01,5,1532,0,9,7,forest_3,2,memory-2step-stake-s,623,3188756,0.0-19.0-0.1-0.128,A14LASEXBQ8C5W,30UZJB2PPKSSO21QHKUJ0S8JS3B35M,3R3YRB5GRJJCFLOKH2M3KWASR6VAU3,3,4
129,4,object_10,object_05,568.29999999702,8,1,418.89999999106,0.7777777777777778,2,object_01,1,1539,0,9,7,restaurant_6,2,memory-2step-stake-s,624,3197230,0.0-19.0-0.1-0.129,A14LASEXBQ8C5W,30UZJB2PPKSSO21QHKUJ0S8JS3B35M,3R3YRB5GRJJCFLOKH2M3KWASR6VAU3,8,7
130,4,object_10,object_05,622.60000000894,7,2,565.19999998808,0.7777777777777778,1,object_04,1,1546,0,7,8,restaurant_2,2,memory-2step-stake-s,625,3205808,0.0-19.0-0.1-0.130,A14LASEXBQ8C5W,30UZJB2PPKSSO21QHKUJ0S8JS3B35M,3R3YRB5GRJJCFLOKH2M3KWASR6VAU3,8,7
131,4,object_05,object_10,664.09999999404,7,1,-1.0,0.0,1,object_04,5,1546,0,7,8,restaurant_7,2,memory-2step-stake-s,626,3214395,0.0-19.0-0.1-0.131,A14LASEXBQ8C5W,30UZJB2PPKSSO21QHKUJ0S8JS3B35M,3R3YRB5GRJJCFLOKH2M3KWASR6VAU3,7,8
132,3,object_03,object_06,694.89999999106,6,1,960.0,0.8888888888888888,2,object_01,1,1554,0,7,8,library_5,2,memory-2step-stake-s,627,3223474,0.0-19.0-0.1-0.132,A14LASEXBQ8C5W,30UZJB2PPKSSO21QHKUJ0S8JS3B35M,3R3YRB5GRJJCFLOKH2M3KWASR6VAU3,6,5
133,2,object_07,object_02,509.0,3,2,717.5,0.4444444444444444,1,object_04,5,1574,0,4,7,forest_4,2,memory-2step-stake-s,628,3231915,0.0-19.0-0.1-0.133,A14LASEXBQ8C5W,30UZJB2PPKSSO21QHKUJ0S8JS3B35M,3R3YRB5GRJJCFLOKH2M3KWASR6VAU3,4,3
134,3,object_03,object_06,417.10000000894,5,2,343.20000000298,0.4444444444444444,1,object_04,1,1578,0,4,4,library_4,2,memory-2step-stake-s,629,3239958,0.0-19.0-0.1-0.134,A14LASEXBQ8C5W,30UZJB2PPKSSO21QHKUJ0S8JS3B35M,3R3YRB5GRJJCFLOKH2M3KWASR6VAU3,6,5
135,3,object_06,object_03,620.10000000894,6,2,418.70000000298,0.4444444444444444,2,object_01,1,1582,0,7,4,library_1,2,memory-2step-stake-s,630,3248101,0.0-19.0-0.1-0.135,A14LASEXBQ8C5W,30UZJB2PPKSSO21QHKUJ0S8JS3B35M,3R3YRB5GRJJCFLOKH2M3KWASR6VAU3,5,6
136,2,object_07,object_02,543.5,4,1,1316.799999997,0.3333333333333333,2,object_01,5,1597,0,5,3,forest_1,2,memory-2step-stake-s,631,3257011,0.0-19.0-0.1-0.136,A14LASEXBQ8C5W,30UZJB2PPKSSO21QHKUJ0S8JS3B35M,3R3YRB5GRJJCFLOKH2M3KWASR6VAU3,4,3
137,2,object_07,object_02,485.70000000298,3,2,80.899999991059,0.7777777777777778,1,object_04,5,1632,0,7,6,forest_3,2,memory-2step-stake-s,632,3265136,0.0-19.0-0.1-0.137,A14LASEXBQ8C5W,30UZJB2PPKSSO21QHKUJ0S8JS3B35M,3R3YRB5GRJJCFLOKH2M3KWASR6VAU3,4,3
138,3,object_03,object_06,519.79999999702,6,1,1020.1000000089,0.7777777777777778,2,object_01,1,1639,0,7,7,library_4,2,memory-2step-stake-s,633,3274148,0.0-19.0-0.1-0.138,A14LASEXBQ8C5W,30UZJB2PPKSSO21QHKUJ0S8JS3B35M,3R3YRB5GRJJCFLOKH2M3KWASR6VAU3,6,5
139,4,object_05,object_10,606.0,8,2,497.59999999404,0.6666666666666666,2,object_01,1,1645,0,8,6,restaurant_2,2,memory-2step-stake-s,634,3282605,0.0-19.0-0.1-0.139,A14LASEXBQ8C5W,30UZJB2PPKSSO21QHKUJ0S8JS3B35M,3R3YRB5GRJJCFLOKH2M3KWASR6VAU3,7,8
140,1,object_08,object_09,552.20000000298,1,1,422.0,0.6666666666666666,1,object_04,1,1651,0,6,5,desert_4,2,memory-2step-stake-s,635,3290946,0.0-19.0-0.1-0.140,A14LASEXBQ8C5W,30UZJB2PPKSSO21QHKUJ0S8JS3B35M,3R3YRB5GRJJCFLOKH2M3KWASR6VAU3,1,2
141,1,object_09,object_08,493.10000000894,1,2,524.29999999702,0.5555555555555556,1,object_04,5,1676,0,5,5,desert_4,2,memory-2step-stake-s,636,3299303,0.0-19.0-0.1-0.141,A14LASEXBQ8C5W,30UZJB2PPKSSO21QHKUJ0S8JS3B35M,3R3YRB5GRJJCFLOKH2M3KWASR6VAU3,2,1
142,4,object_10,object_05,411.5,8,1,550.70000000298,0.4444444444444444,2,object_01,1,1680,0,6,4,restaurant_7,2,memory-2step-stake-s,637,3307569,0.0-19.0-0.1-0.142,A14LASEXBQ8C5W,30UZJB2PPKSSO21QHKUJ0S8JS3B35M,3R3YRB5GRJJCFLOKH2M3KWASR6VAU3,8,7
143,1,object_08,object_09,529.60000000894,2,2,497.89999999106,0.8888888888888888,2,object_01,1,1688,0,5,8,desert_4,2,memory-2step-stake-s,638,3316204,0.0-19.0-0.1-0.143,A14LASEXBQ8C5W,30UZJB2PPKSSO21QHKUJ0S8JS3B35M,3R3YRB5GRJJCFLOKH2M3KWASR6VAU3,1,2
144,3,object_03,object_06,637.60000000894,6,1,677.10000000894,0.8888888888888888,2,object_01,1,1696,0,7,8,library_5,2,memory-2step-stake-s,639,3324998,0.0-19.0-0.1-0.144,A14LASEXBQ8C5W,30UZJB2PPKSSO21QHKUJ0S8JS3B35M,3R3YRB5GRJJCFLOKH2M3KWASR6VAU3,6,5
145,3,object_03,object_06,590.0,6,1,433.39999999106,0.7777777777777778,2,object_01,1,1703,0,8,7,library_5,2,memory-2step-stake-s,640,3333445,0.0-19.0-0.1-0.145,A14LASEXBQ8C5W,30UZJB2PPKSSO21QHKUJ0S8JS3B35M,3R3YRB5GRJJCFLOKH2M3KWASR6VAU3,6,5
146,4,object_10,object_05,1146.6000000089,8,1,483.0,0.6666666666666666,2,object_01,1,1709,0,7,6,restaurant_6,2,memory-2step-stake-s,641,3341844,0.0-19.0-0.1-0.146,A14LASEXBQ8C5W,30UZJB2PPKSSO21QHKUJ0S8JS3B35M,3R3YRB5GRJJCFLOKH2M3KWASR6VAU3,8,7
147,3,object_03,object_06,912.29999999702,5,2,369.90000000596,0.5555555555555556,1,object_04,1,1714,0,5,8,library_1,2,memory-2step-stake-s,642,3350036,0.0-19.0-0.1-0.147,A14LASEXBQ8C5W,30UZJB2PPKSSO21QHKUJ0S8JS3B35M,3R3YRB5GRJJCFLOKH2M3KWASR6VAU3,6,5
148,1,object_08,object_09,757.09999999404,1,1,525.29999999702,0.3333333333333333,1,object_04,1,1717,0,3,9,desert_2,2,memory-2step-stake-s,643,3358161,0.0-19.0-0.1-0.148,A14LASEXBQ8C5W,30UZJB2PPKSSO21QHKUJ0S8JS3B35M,3R3YRB5GRJJCFLOKH2M3KWASR6VAU3,1,2
149,3,object_03,object_06,1321.0,6,1,661.60000000894,1.0,2,object_01,1,1726,0,7,9,library_6,2,memory-2step-stake-s,644,3367070,0.0-19.0-0.1-0.149,A14LASEXBQ8C5W,30UZJB2PPKSSO21QHKUJ0S8JS3B35M,3R3YRB5GRJJCFLOKH2M3KWASR6VAU3,6,5
150,4,object_05,object_10,1165.799999997,8,2,406.0,0.7777777777777778,2,object_01,1,1733,0,4,7,restaurant_1,2,memory-2step-stake-s,645,3375508,0.0-19.0-0.1-0.150,A14LASEXBQ8C5W,30UZJB2PPKSSO21QHKUJ0S8JS3B35M,3R3YRB5GRJJCFLOKH2M3KWASR6VAU3,7,8
151,3,object_06,object_03,772.60000000894,5,1,417.40000000596,0.0,1,object_04,1,1733,0,0,6,library_1,2,memory-2step-stake-s,646,3383202,0.0-19.0-0.1-0.151,A14LASEXBQ8C5W,30UZJB2PPKSSO21QHKUJ0S8JS3B35M,3R3YRB5GRJJCFLOKH2M3KWASR6VAU3,5,6
152,2,object_02,object_07,866.60000000894,4,2,516.89999999106,0.7777777777777778,2,object_01,1,1740,0,0,7,forest_6,2,memory-2step-stake-s,647,3391762,0.0-19.0-0.1-0.152,A14LASEXBQ8C5W,30UZJB2PPKSSO21QHKUJ0S8JS3B35M,3R3YRB5GRJJCFLOKH2M3KWASR6VAU3,3,4
153,4,object_05,object_10,1167.0,8,2,477.40000000596,0.7777777777777778,2,object_01,1,1747,0,1,7,restaurant_2,2,memory-2step-stake-s,648,3400303,0.0-19.0-0.1-0.153,A14LASEXBQ8C5W,30UZJB2PPKSSO21QHKUJ0S8JS3B35M,3R3YRB5GRJJCFLOKH2M3KWASR6VAU3,7,8
154,4,object_05,object_10,1194.700000003,8,2,431.69999998808,0.8888888888888888,2,object_01,1,1755,0,1,8,restaurant_2,2,memory-2step-stake-s,649,3408886,0.0-19.0-0.1-0.154,A14LASEXBQ8C5W,30UZJB2PPKSSO21QHKUJ0S8JS3B35M,3R3YRB5GRJJCFLOKH2M3KWASR6VAU3,7,8
155,2,object_07,object_02,1383.6999999881,3,2,589.10000000894,0.2222222222222222,1,object_04,5,1765,0,2,7,forest_1,2,memory-2step-stake-s,650,3416944,0.0-19.0-0.1-0.155,A14LASEXBQ8C5W,30UZJB2PPKSSO21QHKUJ0S8JS3B35M,3R3YRB5GRJJCFLOKH2M3KWASR6VAU3,4,3
156,2,object_02,object_07,772.29999999702,4,2,336.39999999106,0.8888888888888888,2,object_01,5,1805,0,3,8,forest_3,2,memory-2step-stake-s,651,3425428,0.0-19.0-0.1-0.156,A14LASEXBQ8C5W,30UZJB2PPKSSO21QHKUJ0S8JS3B35M,3R3YRB5GRJJCFLOKH2M3KWASR6VAU3,3,4
157,2,object_02,object_07,765.70000000298,4,2,398.79999999702,1.0,2,object_01,5,1850,0,3,9,forest_4,2,memory-2step-stake-s,652,3434036,0.0-19.0-0.1-0.157,A14LASEXBQ8C5W,30UZJB2PPKSSO21QHKUJ0S8JS3B35M,3R3YRB5GRJJCFLOKH2M3KWASR6VAU3,3,4
158,2,object_02,object_07,747.19999998808,4,2,447.70000000298,0.8888888888888888,2,object_01,5,1890,0,3,8,forest_4,2,memory-2step-stake-s,653,3442649,0.0-19.0-0.1-0.158,A14LASEXBQ8C5W,30UZJB2PPKSSO21QHKUJ0S8JS3B35M,3R3YRB5GRJJCFLOKH2M3KWASR6VAU3,3,4
159,4,object_10,object_05,948.29999999702,8,1,359.20000000298,0.6666666666666666,2,object_01,1,1896,0,2,6,restaurant_1,2,memory-2step-stake-s,654,3450953,0.0-19.0-0.1-0.159,A14LASEXBQ8C5W,30UZJB2PPKSSO21QHKUJ0S8JS3B35M,3R3YRB5GRJJCFLOKH2M3KWASR6VAU3,8,7
160,4,object_05,object_10,1200.8999999911,8,2,438.80000001192,0.7777777777777778,2,object_01,1,1903,0,0,7,restaurant_7,2,memory-2step-stake-s,655,3459432,0.0-19.0-0.1-0.160,A14LASEXBQ8C5W,30UZJB2PPKSSO21QHKUJ0S8JS3B35M,3R3YRB5GRJJCFLOKH2M3KWASR6VAU3,7,8
161,3,object_03,object_06,701.39999999106,6,1,449.79999999702,0.6666666666666666,2,object_01,5,1933,0,1,6,library_5,2,memory-2step-stake-s,656,3467789,0.0-19.0-0.1-0.161,A14LASEXBQ8C5W,30UZJB2PPKSSO21QHKUJ0S8JS3B35M,3R3YRB5GRJJCFLOKH2M3KWASR6VAU3,6,5
162,1,object_08,object_09,942.40000000596,2,2,376.59999999404,0.6666666666666666,2,object_01,5,1963,0,1,6,desert_2,2,memory-2step-stake-s,657,3476103,0.0-19.0-0.1-0.162,A14LASEXBQ8C5W,30UZJB2PPKSSO21QHKUJ0S8JS3B35M,3R3YRB5GRJJCFLOKH2M3KWASR6VAU3,1,2
163,1,object_09,object_08,948.39999999106,2,1,311.10000000894,0.8888888888888888,2,object_01,1,1971,0,3,8,desert_8,2,memory-2step-stake-s,658,3484538,0.0-19.0-0.1-0.163,A14LASEXBQ8C5W,30UZJB2PPKSSO21QHKUJ0S8JS3B35M,3R3YRB5GRJJCFLOKH2M3KWASR6VAU3,2,1
164,1,object_09,object_08,635.10000000894,2,1,419.5,0.6666666666666666,2,object_01,5,2001,0,2,6,desert_4,2,memory-2step-stake-s,659,3492912,0.0-19.0-0.1-0.164,A14LASEXBQ8C5W,30UZJB2PPKSSO21QHKUJ0S8JS3B35M,3R3YRB5GRJJCFLOKH2M3KWASR6VAU3,2,1
165,1,object_09,object_08,602.79999999702,2,1,444.0,0.7777777777777778,2,object_01,5,2036,0,2,7,desert_4,2,memory-2step-stake-s,660,3501371,0.0-19.0-0.1-0.165,A14LASEXBQ8C5W,30UZJB2PPKSSO21QHKUJ0S8JS3B35M,3R3YRB5GRJJCFLOKH2M3KWASR6VAU3,2,1
166,2,object_07,object_02,1248.0,4,1,412.80000001192,0.4444444444444444,2,object_01,5,2056,0,2,4,forest_4,2,memory-2step-stake-s,661,3509480,0.0-19.0-0.1-0.166,A14LASEXBQ8C5W,30UZJB2PPKSSO21QHKUJ0S8JS3B35M,3R3YRB5GRJJCFLOKH2M3KWASR6VAU3,4,3
167,1,object_09,object_08,890.5,1,2,369.5,0.1111111111111111,1,object_04,5,2061,0,1,2,desert_2,2,memory-2step-stake-s,662,3517204,0.0-19.0-0.1-0.167,A14LASEXBQ8C5W,30UZJB2PPKSSO21QHKUJ0S8JS3B35M,3R3YRB5GRJJCFLOKH2M3KWASR6VAU3,2,1
168,4,object_05,object_10,623.19999998808,7,1,544.59999999404,0.1111111111111111,1,object_04,1,2062,0,1,1,restaurant_6,2,memory-2step-stake-s,663,3525095,0.0-19.0-0.1-0.168,A14LASEXBQ8C5W,30UZJB2PPKSSO21QHKUJ0S8JS3B35M,3R3YRB5GRJJCFLOKH2M3KWASR6VAU3,7,8
169,3,object_03,object_06,860.29999999702,5,2,763.20000000298,0.0,1,object_04,1,2062,0,0,2,library_4,2,memory-2step-stake-s,664,3533119,0.0-19.0-0.1-0.169,A14LASEXBQ8C5W,30UZJB2PPKSSO21QHKUJ0S8JS3B35M,3R3YRB5GRJJCFLOKH2M3KWASR6VAU3,6,5
170,4,object_05,object_10,694.89999999106,7,1,619.29999999702,0.4444444444444444,1,object_04,1,2066,0,4,1,restaurant_6,2,memory-2step-stake-s,665,3541461,0.0-19.0-0.1-0.170,A14LASEXBQ8C5W,30UZJB2PPKSSO21QHKUJ0S8JS3B35M,3R3YRB5GRJJCFLOKH2M3KWASR6VAU3,7,8
171,2,object_02,object_07,845.79999999702,4,2,499.20000000298,0.1111111111111111,2,object_01,1,2067,0,2,1,forest_4,2,memory-2step-stake-s,666,3549356,0.0-19.0-0.1-0.171,A14LASEXBQ8C5W,30UZJB2PPKSSO21QHKUJ0S8JS3B35M,3R3YRB5GRJJCFLOKH2M3KWASR6VAU3,3,4
172,3,object_06,object_03,765.40000000596,6,2,432.0,0.2222222222222222,2,object_01,1,2069,0,4,2,library_1,2,memory-2step-stake-s,667,3557289,0.0-19.0-0.1-0.172,A14LASEXBQ8C5W,30UZJB2PPKSSO21QHKUJ0S8JS3B35M,3R3YRB5GRJJCFLOKH2M3KWASR6VAU3,5,6
173,2,object_02,object_07,1449.0,4,2,1421.299999997,0.2222222222222222,2,object_01,5,2079,0,7,2,forest_1,2,memory-2step-stake-s,668,3566168,0.0-19.0-0.1-0.173,A14LASEXBQ8C5W,30UZJB2PPKSSO21QHKUJ0S8JS3B35M,3R3YRB5GRJJCFLOKH2M3KWASR6VAU3,3,4
174,2,object_07,object_02,1320.8999999911,4,1,808.79999999702,0.4444444444444444,2,object_01,1,2083,0,8,4,forest_1,2,memory-2step-stake-s,669,3574679,0.0-19.0-0.1-0.174,A14LASEXBQ8C5W,30UZJB2PPKSSO21QHKUJ0S8JS3B35M,3R3YRB5GRJJCFLOKH2M3KWASR6VAU3,4,3
175,2,object_02,object_07,540.59999999404,4,2,657.5,0.0,2,object_01,1,2083,0,7,0,forest_3,2,memory-2step-stake-s,670,3582607,0.0-19.0-0.1-0.175,A14LASEXBQ8C5W,30UZJB2PPKSSO21QHKUJ0S8JS3B35M,3R3YRB5GRJJCFLOKH2M3KWASR6VAU3,3,4
176,4,object_10,object_05,544.10000000894,8,1,1145.400000006,0.3333333333333333,2,object_01,1,2086,0,7,3,restaurant_1,2,memory-2step-stake-s,671,3591325,0.0-19.0-0.1-0.176,A14LASEXBQ8C5W,30UZJB2PPKSSO21QHKUJ0S8JS3B35M,3R3YRB5GRJJCFLOKH2M3KWASR6VAU3,8,7
177,2,object_07,object_02,588.0,3,2,375.40000000596,0.4444444444444444,1,object_04,5,2106,0,4,2,forest_3,2,memory-2step-stake-s,672,3599403,0.0-19.0-0.1-0.177,A14LASEXBQ8C5W,30UZJB2PPKSSO21QHKUJ0S8JS3B35M,3R3YRB5GRJJCFLOKH2M3KWASR6VAU3,4,3
178,1,object_09,object_08,544.0,2,1,447.40000000596,0.3333333333333333,2,object_01,5,2121,0,5,3,desert_3,2,memory-2step-stake-s,673,3607426,0.0-19.0-0.1-0.178,A14LASEXBQ8C5W,30UZJB2PPKSSO21QHKUJ0S8JS3B35M,3R3YRB5GRJJCFLOKH2M3KWASR6VAU3,2,1
179,4,object_10,object_05,640.09999999404,7,2,524.90000000596,0.3333333333333333,1,object_04,1,2124,0,3,2,restaurant_2,2,memory-2step-stake-s,674,3615568,0.0-19.0-0.1-0.179,A14LASEXBQ8C5W,30UZJB2PPKSSO21QHKUJ0S8JS3B35M,3R3YRB5GRJJCFLOKH2M3KWASR6VAU3,8,7
180,1,object_09,object_08,625.90000000596,2,1,590.39999999106,0.0,2,object_01,5,2124,0,3,0,desert_2,2,memory-2step-stake-s,675,3623414,0.0-19.0-0.1-0.180,A14LASEXBQ8C5W,30UZJB2PPKSSO21QHKUJ0S8JS3B35M,3R3YRB5GRJJCFLOKH2M3KWASR6VAU3,2,1
181,1,object_08,object_09,829.39999999106,1,1,715.29999999702,0.2222222222222222,1,object_04,5,2134,0,2,2,desert_3,2,memory-2step-stake-s,676,3631616,0.0-19.0-0.1-0.181,A14LASEXBQ8C5W,30UZJB2PPKSSO21QHKUJ0S8JS3B35M,3R3YRB5GRJJCFLOKH2M3KWASR6VAU3,1,2
182,3,object_03,object_06,720.70000000298,5,2,423.5,0.1111111111111111,1,object_04,1,2135,0,1,1,library_5,2,memory-2step-stake-s,677,3639411,0.0-19.0-0.1-0.182,A14LASEXBQ8C5W,30UZJB2PPKSSO21QHKUJ0S8JS3B35M,3R3YRB5GRJJCFLOKH2M3KWASR6VAU3,6,5
183,1,object_08,object_09,546.10000000894,1,1,82.0,0.2222222222222222,1,object_04,5,2145,0,2,1,desert_8,2,memory-2step-stake-s,678,3646983,0.0-19.0-0.1-0.183,A14LASEXBQ8C5W,30UZJB2PPKSSO21QHKUJ0S8JS3B35M,3R3YRB5GRJJCFLOKH2M3KWASR6VAU3,1,2
184,1,object_08,object_09,954.20000000298,2,2,550.29999999702,0.1111111111111111,2,object_01,5,2150,0,4,1,desert_3,2,memory-2step-stake-s,679,3654913,0.0-19.0-0.1-0.184,A14LASEXBQ8C5W,30UZJB2PPKSSO21QHKUJ0S8JS3B35M,3R3YRB5GRJJCFLOKH2M3KWASR6VAU3,1,2
185,4,object_10,object_05,729.89999999106,8,1,419.70000000298,0.2222222222222222,2,object_01,1,2152,0,3,2,restaurant_2,2,memory-2step-stake-s,680,3662802,0.0-19.0-0.1-0.185,A14LASEXBQ8C5W,30UZJB2PPKSSO21QHKUJ0S8JS3B35M,3R3YRB5GRJJCFLOKH2M3KWASR6VAU3,8,7
186,2,object_02,object_07,1044.0,3,1,311.59999999404,0.2222222222222222,1,object_04,5,2162,0,2,3,forest_4,2,memory-2step-stake-s,681,3670582,0.0-19.0-0.1-0.186,A14LASEXBQ8C5W,30UZJB2PPKSSO21QHKUJ0S8JS3B35M,3R3YRB5GRJJCFLOKH2M3KWASR6VAU3,3,4
187,3,object_06,object_03,1094.5,6,2,583.0,0.3333333333333333,2,object_01,1,2165,0,0,3,library_4,2,memory-2step-stake-s,682,3678771,0.0-19.0-0.1-0.187,A14LASEXBQ8C5W,30UZJB2PPKSSO21QHKUJ0S8JS3B35M,3R3YRB5GRJJCFLOKH2M3KWASR6VAU3,5,6
188,4,object_10,object_05,630.09999999404,7,2,442.0,0.3333333333333333,1,object_04,1,2168,0,3,5,restaurant_2,2,memory-2step-stake-s,683,3686791,0.0-19.0-0.1-0.188,A14LASEXBQ8C5W,30UZJB2PPKSSO21QHKUJ0S8JS3B35M,3R3YRB5GRJJCFLOKH2M3KWASR6VAU3,8,7
189,2,object_07,object_02,636.0,4,1,592.5,0.4444444444444444,2,object_01,5,2188,0,1,4,forest_6,2,memory-2step-stake-s,684,3695047,0.0-19.0-0.1-0.189,A14LASEXBQ8C5W,30UZJB2PPKSSO21QHKUJ0S8JS3B35M,3R3YRB5GRJJCFLOKH2M3KWASR6VAU3,4,3
190,1,object_09,object_08,585.20000000298,2,1,167.5,0.2222222222222222,2,object_01,1,2190,0,2,2,desert_4,2,memory-2step-stake-s,685,3702709,0.0-19.0-0.1-0.190,A14LASEXBQ8C5W,30UZJB2PPKSSO21QHKUJ0S8JS3B35M,3R3YRB5GRJJCFLOKH2M3KWASR6VAU3,2,1
191,3,object_03,object_06,1106.599999994,5,2,-1.0,0.0,1,object_04,1,2190,0,5,2,library_4,2,memory-2step-stake-s,686,3711290,0.0-19.0-0.1-0.191,A14LASEXBQ8C5W,30UZJB2PPKSSO21QHKUJ0S8JS3B35M,3R3YRB5GRJJCFLOKH2M3KWASR6VAU3,6,5
192,4,object_05,object_10,618.70000000298,8,2,525.79999999702,0.3333333333333333,2,object_01,1,2193,0,4,3,restaurant_1,2,memory-2step-stake-s,687,3719405,0.0-19.0-0.1-0.192,A14LASEXBQ8C5W,30UZJB2PPKSSO21QHKUJ0S8JS3B35M,3R3YRB5GRJJCFLOKH2M3KWASR6VAU3,7,8
193,4,object_05,object_10,825.5,8,2,384.60000000894,0.1111111111111111,2,object_01,5,2198,0,5,1,restaurant_1,2,memory-2step-stake-s,688,3727151,0.0-19.0-0.1-0.193,A14LASEXBQ8C5W,30UZJB2PPKSSO21QHKUJ0S8JS3B35M,3R3YRB5GRJJCFLOKH2M3KWASR6VAU3,7,8
194,1,object_09,object_08,806.5,1,2,410.0,0.4444444444444444,1,object_04,5,2218,0,4,1,desert_4,2,memory-2step-stake-s,689,3735243,0.0-19.0-0.1-0.194,A14LASEXBQ8C5W,30UZJB2PPKSSO21QHKUJ0S8JS3B35M,3R3YRB5GRJJCFLOKH2M3KWASR6VAU3,2,1
195,4,object_05,object_10,514.29999999702,7,1,578.0,0.5555555555555556,1,object_04,1,2223,0,5,0,restaurant_1,2,memory-2step-stake-s,690,3743633,0.0-19.0-0.1-0.195,A14LASEXBQ8C5W,30UZJB2PPKSSO21QHKUJ0S8JS3B35M,3R3YRB5GRJJCFLOKH2M3KWASR6VAU3,7,8
196,4,object_05,object_10,876.79999999702,8,2,355.39999999106,0.1111111111111111,2,object_01,5,2228,0,2,1,restaurant_1,2,memory-2step-stake-s,691,3751370,0.0-19.0-0.1-0.196,A14LASEXBQ8C5W,30UZJB2PPKSSO21QHKUJ0S8JS3B35M,3R3YRB5GRJJCFLOKH2M3KWASR6VAU3,7,8
197,3,object_06,object_03,894.59999999404,5,1,406.89999999106,0.3333333333333333,1,object_04,1,2231,0,3,1,library_6,2,memory-2step-stake-s,692,3759352,0.0-19.0-0.1-0.197,A14LASEXBQ8C5W,30UZJB2PPKSSO21QHKUJ0S8JS3B35M,3R3YRB5GRJJCFLOKH2M3KWASR6VAU3,5,6
198,4,object_05,object_10,612.09999999404,7,1,441.29999999702,0.3333333333333333,1,object_04,1,2234,0,3,0,restaurant_6,2,memory-2step-stake-s,693,3767400,0.0-19.0-0.1-0.198,A14LASEXBQ8C5W,30UZJB2PPKSSO21QHKUJ0S8JS3B35M,3R3YRB5GRJJCFLOKH2M3KWASR6VAU3,7,8
199,2,object_07,object_02,835.5,4,1,312.29999999702,0.3333333333333333,2,object_01,5,2249,0,4,3,forest_1,2,memory-2step-stake-s,694,3775294,0.0-19.0-0.1-0.199,A14LASEXBQ8C5W,30UZJB2PPKSSO21QHKUJ0S8JS3B35M,3R3YRB5GRJJCFLOKH2M3KWASR6VAU3,4,3
200,2,object_02,object_07,997.29999999702,3,1,379.79999999702,0.4444444444444444,1,object_04,5,2269,0,4,4,forest_1,2,memory-2step-stake-s,695,3783385,0.0-19.0-0.1-0.200,A14LASEXBQ8C5W,30UZJB2PPKSSO21QHKUJ0S8JS3B35M,3R3YRB5GRJJCFLOKH2M3KWASR6VAU3,3,4
201,4,object_10,object_05,694.79999999702,8,1,481.70000000298,0.2222222222222222,2,object_01,1,2271,0,4,2,restaurant_7,2,memory-2step-stake-s,696,3791321,0.0-19.0-0.1-0.201,A14LASEXBQ8C5W,30UZJB2PPKSSO21QHKUJ0S8JS3B35M,3R3YRB5GRJJCFLOKH2M3KWASR6VAU3,8,7
202,4,object_05,object_10,548.69999998808,8,2,430.39999999106,0.2222222222222222,2,object_01,1,2273,0,4,2,restaurant_1,2,memory-2step-stake-s,697,3799200,0.0-19.0-0.1-0.202,A14LASEXBQ8C5W,30UZJB2PPKSSO21QHKUJ0S8JS3B35M,3R3YRB5GRJJCFLOKH2M3KWASR6VAU3,7,8
203,2,object_02,object_07,731.29999999702,3,1,627.60000000894,0.4444444444444444,1,object_04,5,2293,0,4,0,forest_1,2,memory-2step-stake-s,698,3807526,0.0-19.0-0.1-0.203,A14LASEXBQ8C5W,30UZJB2PPKSSO21QHKUJ0S8JS3B35M,3R3YRB5GRJJCFLOKH2M3KWASR6VAU3,3,4
204,4,object_05,object_10,732.59999999404,8,2,348.40000000596,0.1111111111111111,2,object_01,1,2294,0,4,1,restaurant_2,2,memory-2step-stake-s,699,3815251,0.0-19.0-0.1-0.204,A14LASEXBQ8C5W,30UZJB2PPKSSO21QHKUJ0S8JS3B35M,3R3YRB5GRJJCFLOKH2M3KWASR6VAU3,7,8
205,2,object_02,object_07,1135.8000000119,4,2,673.69999998808,0.2222222222222222,2,object_01,1,2296,0,5,2,forest_3,2,memory-2step-stake-s,700,3823409,0.0-19.0-0.1-0.205,A14LASEXBQ8C5W,30UZJB2PPKSSO21QHKUJ0S8JS3B35M,3R3YRB5GRJJCFLOKH2M3KWASR6VAU3,3,4
206,4,object_10,object_05,561.40000000596,8,1,1260.299999997,0.2222222222222222,2,object_01,1,2298,0,5,2,restaurant_7,2,memory-2step-stake-s,701,3832184,0.0-19.0-0.1-0.206,A14LASEXBQ8C5W,30UZJB2PPKSSO21QHKUJ0S8JS3B35M,3R3YRB5GRJJCFLOKH2M3KWASR6VAU3,8,7
207,4,object_10,object_05,1190.8999999911,8,1,930.40000000596,0.1111111111111111,2,object_01,1,2299,0,2,1,restaurant_7,2,memory-2step-stake-s,702,3840478,0.0-19.0-0.1-0.207,A14LASEXBQ8C5W,30UZJB2PPKSSO21QHKUJ0S8JS3B35M,3R3YRB5GRJJCFLOKH2M3KWASR6VAU3,8,7
208,3,object_06,object_03,-1.0,-1,-1,-1.0,0.0,-,0,5,2299,0,3,1,library_5,2,memory-2step-stake-s,703,3847038,0.0-19.0-0.1-0.208,A14LASEXBQ8C5W,30UZJB2PPKSSO21QHKUJ0S8JS3B35M,3R3YRB5GRJJCFLOKH2M3KWASR6VAU3,5,6
209,2,object_07,object_02,464.70000000298,3,2,303.69999998808,0.0,1,object_04,5,2299,0,0,1,forest_3,2,memory-2step-stake-s,704,3854598,0.0-19.0-0.1-0.209,A14LASEXBQ8C5W,30UZJB2PPKSSO21QHKUJ0S8JS3B35M,3R3YRB5GRJJCFLOKH2M3KWASR6VAU3,4,3
210,2,object_07,object_02,427.29999999702,4,1,297.5,0.6666666666666666,2,object_01,5,2329,0,1,6,forest_6,2,memory-2step-stake-s,705,3862864,0.0-19.0-0.1-0.210,A14LASEXBQ8C5W,30UZJB2PPKSSO21QHKUJ0S8JS3B35M,3R3YRB5GRJJCFLOKH2M3KWASR6VAU3,4,3
211,1,object_08,object_09,719.09999999404,2,2,471.89999999106,0.4444444444444444,2,object_01,5,2349,0,4,4,desert_2,2,memory-2step-stake-s,706,3870991,0.0-19.0-0.1-0.211,A14LASEXBQ8C5W,30UZJB2PPKSSO21QHKUJ0S8JS3B35M,3R3YRB5GRJJCFLOKH2M3KWASR6VAU3,1,2
212,4,object_05,object_10,528.80000001192,7,1,491.0,0.6666666666666666,1,object_04,1,2355,0,6,6,restaurant_2,2,memory-2step-stake-s,707,3879432,0.0-19.0-0.1-0.212,A14LASEXBQ8C5W,30UZJB2PPKSSO21QHKUJ0S8JS3B35M,3R3YRB5GRJJCFLOKH2M3KWASR6VAU3,7,8
213,1,object_08,object_09,521.10000000894,2,2,328.20000000298,0.5555555555555556,2,object_01,5,2380,0,2,5,desert_8,2,memory-2step-stake-s,708,3887536,0.0-19.0-0.1-0.213,A14LASEXBQ8C5W,30UZJB2PPKSSO21QHKUJ0S8JS3B35M,3R3YRB5GRJJCFLOKH2M3KWASR6VAU3,1,2
214,3,object_03,object_06,749.30000001192,5,2,328.60000000894,0.4444444444444444,1,object_04,1,2384,0,4,9,library_4,2,memory-2step-stake-s,709,3895576,0.0-19.0-0.1-0.214,A14LASEXBQ8C5W,30UZJB2PPKSSO21QHKUJ0S8JS3B35M,3R3YRB5GRJJCFLOKH2M3KWASR6VAU3,6,5
215,1,object_08,object_09,950.79999999702,1,1,860.59999999404,0.1111111111111111,1,object_04,1,2385,0,1,7,desert_3,2,memory-2step-stake-s,710,3903801,0.0-19.0-0.1-0.215,A14LASEXBQ8C5W,30UZJB2PPKSSO21QHKUJ0S8JS3B35M,3R3YRB5GRJJCFLOKH2M3KWASR6VAU3,1,2
216,4,object_05,object_10,1175.599999994,8,2,936.79999999702,0.8888888888888888,2,object_01,1,2393,0,1,8,restaurant_1,2,memory-2step-stake-s,711,3912898,0.0-19.0-0.1-0.216,A14LASEXBQ8C5W,30UZJB2PPKSSO21QHKUJ0S8JS3B35M,3R3YRB5GRJJCFLOKH2M3KWASR6VAU3,7,8
217,4,object_10,object_05,1385.5,8,1,336.5,1.0,2,object_01,1,2402,0,1,9,restaurant_6,2,memory-2step-stake-s,712,3921508,0.0-19.0-0.1-0.217,A14LASEXBQ8C5W,30UZJB2PPKSSO21QHKUJ0S8JS3B35M,3R3YRB5GRJJCFLOKH2M3KWASR6VAU3,8,7
218,2,object_02,object_07,726.60000000894,4,2,386.79999999702,0.8888888888888888,2,object_01,5,2442,0,2,8,forest_1,2,memory-2step-stake-s,713,3930073,0.0-19.0-0.1-0.218,A14LASEXBQ8C5W,30UZJB2PPKSSO21QHKUJ0S8JS3B35M,3R3YRB5GRJJCFLOKH2M3KWASR6VAU3,3,4
219,2,object_07,object_02,679.70000000298,4,1,451.29999999702,0.5555555555555556,2,object_01,1,2447,0,1,5,forest_3,2,memory-2step-stake-s,714,3938340,0.0-19.0-0.1-0.219,A14LASEXBQ8C5W,30UZJB2PPKSSO21QHKUJ0S8JS3B35M,3R3YRB5GRJJCFLOKH2M3KWASR6VAU3,4,3
220,3,object_03,object_06,731.5,6,1,641.20000000298,0.6666666666666666,2,object_01,1,2453,0,4,6,library_5,2,memory-2step-stake-s,715,3946885,0.0-19.0-0.1-0.220,A14LASEXBQ8C5W,30UZJB2PPKSSO21QHKUJ0S8JS3B35M,3R3YRB5GRJJCFLOKH2M3KWASR6VAU3,6,5
221,2,object_07,object_02,725.90000000596,4,1,563.09999999404,0.3333333333333333,2,object_01,5,2468,0,1,3,forest_6,2,memory-2step-stake-s,716,3955058,0.0-19.0-0.1-0.221,A14LASEXBQ8C5W,30UZJB2PPKSSO21QHKUJ0S8JS3B35M,3R3YRB5GRJJCFLOKH2M3KWASR6VAU3,4,3
222,3,object_03,object_06,550.20000000298,5,2,382.5,0.4444444444444444,1,object_04,5,2488,0,4,5,library_4,2,memory-2step-stake-s,717,3963182,0.0-19.0-0.1-0.222,A14LASEXBQ8C5W,30UZJB2PPKSSO21QHKUJ0S8JS3B35M,3R3YRB5GRJJCFLOKH2M3KWASR6VAU3,6,5
223,3,object_03,object_06,707.29999999702,6,1,411.09999999404,0.5555555555555556,2,object_01,1,2493,0,4,5,library_6,2,memory-2step-stake-s,718,3971424,0.0-19.0-0.1-0.223,A14LASEXBQ8C5W,30UZJB2PPKSSO21QHKUJ0S8JS3B35M,3R3YRB5GRJJCFLOKH2M3KWASR6VAU3,6,5
224,3,object_06,object_03,607.69999998808,6,2,567.0,0.4444444444444444,2,object_01,1,2497,0,3,4,library_1,2,memory-2step-stake-s,719,3979667,0.0-19.0-0.1-0.224,A14LASEXBQ8C5W,30UZJB2PPKSSO21QHKUJ0S8JS3B35M,3R3YRB5GRJJCFLOKH2M3KWASR6VAU3,5,6
225,3,object_03,object_06,880.79999999702,6,1,455.70000000298,0.4444444444444444,2,object_01,1,2501,0,3,4,library_1,2,memory-2step-stake-s,720,3987864,0.0-19.0-0.1-0.225,A14LASEXBQ8C5W,30UZJB2PPKSSO21QHKUJ0S8JS3B35M,3R3YRB5GRJJCFLOKH2M3KWASR6VAU3,6,5
226,2,object_02,object_07,432.70000000298,4,2,382.70000000298,0.7777777777777778,2,object_01,5,2536,0,5,7,forest_6,2,memory-2step-stake-s,721,3996261,0.0-19.0-0.1-0.226,A14LASEXBQ8C5W,30UZJB2PPKSSO21QHKUJ0S8JS3B35M,3R3YRB5GRJJCFLOKH2M3KWASR6VAU3,3,4
227,4,object_05,object_10,899.89999999106,7,1,416.5,0.8888888888888888,1,object_04,1,2544,0,8,8,restaurant_7,2,memory-2step-stake-s,722,4004848,0.0-19.0-0.1-0.227,A14LASEXBQ8C5W,30UZJB2PPKSSO21QHKUJ0S8JS3B35M,3R3YRB5GRJJCFLOKH2M3KWASR6VAU3,7,8
228,2,object_07,object_02,619.79999999702,3,2,481.80000001192,0.8888888888888888,1,object_04,5,2584,0,8,9,forest_4,2,memory-2step-stake-s,723,4013449,0.0-19.0-0.1-0.228,A14LASEXBQ8C5W,30UZJB2PPKSSO21QHKUJ0S8JS3B35M,3R3YRB5GRJJCFLOKH2M3KWASR6VAU3,4,3
229,1,object_09,object_08,766.79999999702,1,2,379.79999999702,0.5555555555555556,1,object_04,5,2609,0,5,8,desert_4,2,memory-2step-stake-s,724,4021659,0.0-19.0-0.1-0.229,A14LASEXBQ8C5W,30UZJB2PPKSSO21QHKUJ0S8JS3B35M,3R3YRB5GRJJCFLOKH2M3KWASR6VAU3,2,1
230,4,object_10,object_05,700.0,8,1,393.40000000596,0.7777777777777778,2,object_01,1,2616,0,8,7,restaurant_7,2,memory-2step-stake-s,725,4030041,0.0-19.0-0.1-0.230,A14LASEXBQ8C5W,30UZJB2PPKSSO21QHKUJ0S8JS3B35M,3R3YRB5GRJJCFLOKH2M3KWASR6VAU3,8,7
231,1,object_08,object_09,800.70000000298,2,2,423.79999999702,0.8888888888888888,2,object_01,5,2656,0,9,8,desert_2,2,memory-2step-stake-s,726,4038657,0.0-19.0-0.1-0.231,A14LASEXBQ8C5W,30UZJB2PPKSSO21QHKUJ0S8JS3B35M,3R3YRB5GRJJCFLOKH2M3KWASR6VAU3,1,2
232,2,object_02,object_07,687.5,4,2,458.0,0.8888888888888888,2,object_01,5,2696,0,9,8,forest_3,2,memory-2step-stake-s,727,4047269,0.0-19.0-0.1-0.232,A14LASEXBQ8C5W,30UZJB2PPKSSO21QHKUJ0S8JS3B35M,3R3YRB5GRJJCFLOKH2M3KWASR6VAU3,3,4
233,2,object_02,object_07,614.79999999702,4,2,551.40000000596,0.8888888888888888,2,object_01,5,2736,0,8,8,forest_1,2,memory-2step-stake-s,728,4055992,0.0-19.0-0.1-0.233,A14LASEXBQ8C5W,30UZJB2PPKSSO21QHKUJ0S8JS3B35M,3R3YRB5GRJJCFLOKH2M3KWASR6VAU3,3,4
234,1,object_08,object_09,555.0,2,2,540.0,0.8888888888888888,2,object_01,5,2776,0,9,8,desert_3,2,memory-2step-stake-s,729,4064718,0.0-19.0-0.1-0.234,A14LASEXBQ8C5W,30UZJB2PPKSSO21QHKUJ0S8JS3B35M,3R3YRB5GRJJCFLOKH2M3KWASR6VAU3,1,2
235,1,object_09,object_08,469.70000000298,2,1,538.29999999702,0.7777777777777778,2,object_01,1,2783,0,9,7,desert_8,2,memory-2step-stake-s,730,4073293,0.0-19.0-0.1-0.235,A14LASEXBQ8C5W,30UZJB2PPKSSO21QHKUJ0S8JS3B35M,3R3YRB5GRJJCFLOKH2M3KWASR6VAU3,2,1
236,4,object_10,object_05,678.70000000298,7,2,368.80000001192,0.8888888888888888,1,object_04,1,2791,0,8,5,restaurant_6,2,memory-2step-stake-s,731,4081837,0.0-19.0-0.1-0.236,A14LASEXBQ8C5W,30UZJB2PPKSSO21QHKUJ0S8JS3B35M,3R3YRB5GRJJCFLOKH2M3KWASR6VAU3,8,7
237,3,object_06,object_03,533.79999999702,5,1,457.0,0.8888888888888888,1,object_04,1,2799,0,8,7,library_1,2,memory-2step-stake-s,732,4090425,0.0-19.0-0.1-0.237,A14LASEXBQ8C5W,30UZJB2PPKSSO21QHKUJ0S8JS3B35M,3R3YRB5GRJJCFLOKH2M3KWASR6VAU3,5,6
238,3,object_06,object_03,463.79999999702,6,2,554.70000000298,0.7777777777777778,2,object_01,5,2834,0,5,7,library_6,2,memory-2step-stake-s,733,4099084,0.0-19.0-0.1-0.238,A14LASEXBQ8C5W,30UZJB2PPKSSO21QHKUJ0S8JS3B35M,3R3YRB5GRJJCFLOKH2M3KWASR6VAU3,5,6
239,4,object_05,object_10,783.29999999702,7,1,334.80000001192,0.7777777777777778,1,object_04,1,2841,0,7,7,restaurant_6,2,memory-2step-stake-s,734,4107442,0.0-19.0-0.1-0.239,A14LASEXBQ8C5W,30UZJB2PPKSSO21QHKUJ0S8JS3B35M,3R3YRB5GRJJCFLOKH2M3KWASR6VAU3,7,8
240,1,object_08,object_09,445.20000000298,2,2,439.29999999702,0.6666666666666666,2,object_01,5,2871,0,6,6,desert_4,2,memory-2step-stake-s,735,4115784,0.0-19.0-0.1-0.240,A14LASEXBQ8C5W,30UZJB2PPKSSO21QHKUJ0S8JS3B35M,3R3YRB5GRJJCFLOKH2M3KWASR6VAU3,1,2
241,2,object_07,object_02,769.0,3,2,1076.6999999881,0.6666666666666666,1,object_04,5,2901,0,6,5,forest_1,2,memory-2step-stake-s,736,4124744,0.0-19.0-0.1-0.241,A14LASEXBQ8C5W,30UZJB2PPKSSO21QHKUJ0S8JS3B35M,3R3YRB5GRJJCFLOKH2M3KWASR6VAU3,4,3
242,3,object_03,object_06,389.09999999404,6,1,379.29999999702,0.6666666666666666,2,object_01,1,2907,0,5,6,library_4,2,memory-2step-stake-s,737,4133067,0.0-19.0-0.1-0.242,A14LASEXBQ8C5W,30UZJB2PPKSSO21QHKUJ0S8JS3B35M,3R3YRB5GRJJCFLOKH2M3KWASR6VAU3,6,5
243,2,object_07,object_02,967.90000000596,4,1,531.10000000894,1.0,2,object_01,1,2916,0,5,9,forest_1,2,memory-2step-stake-s,738,4141803,0.0-19.0-0.1-0.243,A14LASEXBQ8C5W,30UZJB2PPKSSO21QHKUJ0S8JS3B35M,3R3YRB5GRJJCFLOKH2M3KWASR6VAU3,4,3
244,2,object_07,object_02,518.0,3,2,411.20000000298,0.7777777777777778,1,object_04,5,2951,0,7,8,forest_6,2,memory-2step-stake-s,739,4150210,0.0-19.0-0.1-0.244,A14LASEXBQ8C5W,30UZJB2PPKSSO21QHKUJ0S8JS3B35M,3R3YRB5GRJJCFLOKH2M3KWASR6VAU3,4,3
245,3,object_06,object_03,619.29999999702,5,1,306.29999999702,0.8888888888888888,1,object_04,1,2959,0,8,7,library_5,2,memory-2step-stake-s,740,4158648,0.0-19.0-0.1-0.245,A14LASEXBQ8C5W,30UZJB2PPKSSO21QHKUJ0S8JS3B35M,3R3YRB5GRJJCFLOKH2M3KWASR6VAU3,5,6
246,1,object_09,object_08,758.70000000298,1,2,432.5,1.0,1,object_04,5,3004,0,9,7,desert_8,2,memory-2step-stake-s,741,4167318,0.0-19.0-0.1-0.246,A14LASEXBQ8C5W,30UZJB2PPKSSO21QHKUJ0S8JS3B35M,3R3YRB5GRJJCFLOKH2M3KWASR6VAU3,2,1
247,4,object_05,object_10,844.0,8,2,400.79999999702,0.6666666666666666,2,object_01,5,3034,0,9,6,restaurant_6,2,memory-2step-stake-s,742,4175632,0.0-19.0-0.1-0.247,A14LASEXBQ8C5W,30UZJB2PPKSSO21QHKUJ0S8JS3B35M,3R3YRB5GRJJCFLOKH2M3KWASR6VAU3,7,8
248,3,object_03,object_06,637.69999998808,6,1,416.70000000298,0.8888888888888888,2,object_01,5,3074,0,8,8,library_1,2,memory-2step-stake-s,743,4184152,0.0-19.0-0.1-0.248,A14LASEXBQ8C5W,30UZJB2PPKSSO21QHKUJ0S8JS3B35M,3R3YRB5GRJJCFLOKH2M3KWASR6VAU3,6,5
249,1,object_09,object_08,987.60000000894,1,2,371.20000000298,0.7777777777777778,1,object_04,5,3109,0,7,8,desert_4,2,memory-2step-stake-s,744,4192512,0.0-19.0-0.1-0.249,A14LASEXBQ8C5W,30UZJB2PPKSSO21QHKUJ0S8JS3B35M,3R3YRB5GRJJCFLOKH2M3KWASR6VAU3,2,1
250,3,object_03,object_06,738.79999999702,5,2,1147.799999997,0.5555555555555556,1,object_04,1,3114,0,5,8,library_5,2,memory-2step-stake-s,745,4201453,0.0-19.0-0.1-0.250,A14LASEXBQ8C5W,30UZJB2PPKSSO21QHKUJ0S8JS3B35M,3R3YRB5GRJJCFLOKH2M3KWASR6VAU3,6,5
251,1,object_09,object_08,577.29999999702,2,1,274.20000000298,0.7777777777777778,2,object_01,5,3149,0,4,7,desert_2,2,memory-2step-stake-s,746,4209730,0.0-19.0-0.1-0.251,A14LASEXBQ8C5W,30UZJB2PPKSSO21QHKUJ0S8JS3B35M,3R3YRB5GRJJCFLOKH2M3KWASR6VAU3,2,1
252,4,object_05,object_10,629.5,7,1,785.79999999702,0.1111111111111111,1,object_04,1,3150,0,1,7,restaurant_2,2,memory-2step-stake-s,747,4217889,0.0-19.0-0.1-0.252,A14LASEXBQ8C5W,30UZJB2PPKSSO21QHKUJ0S8JS3B35M,3R3YRB5GRJJCFLOKH2M3KWASR6VAU3,7,8
253,3,object_06,object_03,529.70000000298,5,1,397.5,0.2222222222222222,1,object_04,1,3152,0,2,6,library_6,2,memory-2step-stake-s,748,4225761,0.0-19.0-0.1-0.253,A14LASEXBQ8C5W,30UZJB2PPKSSO21QHKUJ0S8JS3B35M,3R3YRB5GRJJCFLOKH2M3KWASR6VAU3,5,6
254,4,object_10,object_05,1139.900000006,8,1,405.90000000596,0.8888888888888888,2,object_01,1,3160,0,2,8,restaurant_6,2,memory-2step-stake-s,749,4234253,0.0-19.0-0.1-0.254,A14LASEXBQ8C5W,30UZJB2PPKSSO21QHKUJ0S8JS3B35M,3R3YRB5GRJJCFLOKH2M3KWASR6VAU3,8,7
255,1,object_08,object_09,986.5,2,2,417.60000000894,0.7777777777777778,2,object_01,5,3195,0,1,7,desert_2,2,memory-2step-stake-s,750,4242695,0.0-19.0-0.1-0.255,A14LASEXBQ8C5W,30UZJB2PPKSSO21QHKUJ0S8JS3B35M,3R3YRB5GRJJCFLOKH2M3KWASR6VAU3,1,2
