,state1,stim_left,stim_right,rt_1,choice1,response1,rt_2,points,state2,stim_state2,stake,score,practice,rews1,rews2,background,high_arm,trial_type,trial_index,time_elapsed,internal_node_id,subid,hitid,assignmentid,stim_left_num,stim_right_num
0,4,object_01,object_06,627.22999998368,7,1,1436.9599999627,0.1111111111111111,1,object_09,5,5,0,1,1,restaurant_6,1,memory-2step-stake-s,499,1075943,0.0-19.0-0.0-0.0,A3TDA1NWHNQFE3,306996CF7Z0Y3F4KVQ7DFLTE4FJB13,34V1S5K3GWHD8ROETEA08VLSI2V69I,7,8
1,4,object_01,object_06,796.53000005055,8,2,900.09499993175,0.2222222222222222,2,object_10,5,15,0,1,2,restaurant_8,1,memory-2step-stake-s,500,1084286,0.0-19.0-0.0-0.1,A3TDA1NWHNQFE3,306996CF7Z0Y3F4KVQ7DFLTE4FJB13,34V1S5K3GWHD8ROETEA08VLSI2V69I,7,8
2,3,object_02,object_03,873.06000001263,5,1,640.6399999978,0.4444444444444444,1,object_09,1,19,0,4,3,library_3,1,memory-2step-stake-s,501,1092566,0.0-19.0-0.0-0.2,A3TDA1NWHNQFE3,306996CF7Z0Y3F4KVQ7DFLTE4FJB13,34V1S5K3GWHD8ROETEA08VLSI2V69I,5,6
3,4,object_01,object_06,563.64000006579,8,2,496.4199999813,0.4444444444444444,2,object_10,1,23,0,3,4,restaurant_1,1,memory-2step-stake-s,502,1100703,0.0-19.0-0.0-0.3,A3TDA1NWHNQFE3,306996CF7Z0Y3F4KVQ7DFLTE4FJB13,34V1S5K3GWHD8ROETEA08VLSI2V69I,7,8
4,1,object_08,object_05,948.55500000995,1,1,638.90000001993,0.2222222222222222,1,object_09,1,25,0,2,3,desert_1,1,memory-2step-stake-s,503,1108779,0.0-19.0-0.0-0.4,A3TDA1NWHNQFE3,306996CF7Z0Y3F4KVQ7DFLTE4FJB13,34V1S5K3GWHD8ROETEA08VLSI2V69I,1,2
5,2,object_07,object_04,876.05500000063,4,1,370.2049999265,0.4444444444444444,2,object_10,1,29,0,1,4,forest_6,1,memory-2step-stake-s,504,1116782,0.0-19.0-0.0-0.5,A3TDA1NWHNQFE3,306996CF7Z0Y3F4KVQ7DFLTE4FJB13,34V1S5K3GWHD8ROETEA08VLSI2V69I,4,3
6,4,object_01,object_06,556.79500009865,8,2,365.15499989036,0.2222222222222222,2,object_10,5,39,0,2,2,restaurant_8,1,memory-2step-stake-s,505,1124586,0.0-19.0-0.0-0.6,A3TDA1NWHNQFE3,306996CF7Z0Y3F4KVQ7DFLTE4FJB13,34V1S5K3GWHD8ROETEA08VLSI2V69I,7,8
7,2,object_07,object_04,842.2000000719,4,1,383.74499999918,0.5555555555555556,2,object_10,1,44,0,1,5,forest_7,1,memory-2step-stake-s,506,1132699,0.0-19.0-0.0-0.7,A3TDA1NWHNQFE3,306996CF7Z0Y3F4KVQ7DFLTE4FJB13,34V1S5K3GWHD8ROETEA08VLSI2V69I,4,3
8,2,object_04,object_07,1223.5099999234,4,2,332.98000006471,0.7777777777777778,2,object_10,1,51,0,1,7,forest_5,1,memory-2step-stake-s,507,1140970,0.0-19.0-0.0-0.8,A3TDA1NWHNQFE3,306996CF7Z0Y3F4KVQ7DFLTE4FJB13,34V1S5K3GWHD8ROETEA08VLSI2V69I,3,4
9,3,object_03,object_02,792.93500003405,5,2,336.5000000922,0.2222222222222222,1,object_09,5,61,0,2,7,library_2,1,memory-2step-stake-s,508,1148737,0.0-19.0-0.0-0.9,A3TDA1NWHNQFE3,306996CF7Z0Y3F4KVQ7DFLTE4FJB13,34V1S5K3GWHD8ROETEA08VLSI2V69I,6,5
10,1,object_05,object_08,1073.2000001008,1,2,397.57500006817,0.1111111111111111,1,object_09,1,62,0,1,5,desert_6,1,memory-2step-stake-s,509,1156452,0.0-19.0-0.0-0.10,A3TDA1NWHNQFE3,306996CF7Z0Y3F4KVQ7DFLTE4FJB13,34V1S5K3GWHD8ROETEA08VLSI2V69I,2,1
11,1,object_08,object_05,1073.7299999455,2,2,408.3100000862,0.7777777777777778,2,object_10,1,69,0,0,7,desert_5,1,memory-2step-stake-s,510,1164806,0.0-19.0-0.0-0.11,A3TDA1NWHNQFE3,306996CF7Z0Y3F4KVQ7DFLTE4FJB13,34V1S5K3GWHD8ROETEA08VLSI2V69I,1,2
12,3,object_03,object_02,1174.4600000093,6,1,436.99499999639,0.4444444444444444,2,object_10,5,89,0,3,4,library_6,1,memory-2step-stake-s,511,1172877,0.0-19.0-0.0-0.12,A3TDA1NWHNQFE3,306996CF7Z0Y3F4KVQ7DFLTE4FJB13,34V1S5K3GWHD8ROETEA08VLSI2V69I,6,5
13,3,object_02,object_03,1003.4750000341,6,2,371.87999999151,0.4444444444444444,2,object_10,5,109,0,5,4,library_2,1,memory-2step-stake-s,512,1180880,0.0-19.0-0.0-0.13,A3TDA1NWHNQFE3,306996CF7Z0Y3F4KVQ7DFLTE4FJB13,34V1S5K3GWHD8ROETEA08VLSI2V69I,5,6
14,4,object_06,object_01,847.35000005458,7,2,464.08499998506,0.6666666666666666,1,object_09,5,139,0,6,6,restaurant_4,1,memory-2step-stake-s,513,1189179,0.0-19.0-0.0-0.14,A3TDA1NWHNQFE3,306996CF7Z0Y3F4KVQ7DFLTE4FJB13,34V1S5K3GWHD8ROETEA08VLSI2V69I,8,7
15,3,object_03,object_02,833.47999991383,6,1,312.12999997661,0.2222222222222222,2,object_10,5,149,0,5,2,library_6,1,memory-2step-stake-s,514,1196925,0.0-19.0-0.0-0.15,A3TDA1NWHNQFE3,306996CF7Z0Y3F4KVQ7DFLTE4FJB13,34V1S5K3GWHD8ROETEA08VLSI2V69I,6,5
16,4,object_01,object_06,1008.4449999267,7,1,404.45000003092,0.4444444444444444,1,object_09,5,169,0,4,1,restaurant_8,1,memory-2step-stake-s,515,1204964,0.0-19.0-0.0-0.16,A3TDA1NWHNQFE3,306996CF7Z0Y3F4KVQ7DFLTE4FJB13,34V1S5K3GWHD8ROETEA08VLSI2V69I,7,8
17,4,object_01,object_06,1031.1199999414,8,2,332.70000002813,0.2222222222222222,2,object_10,5,179,0,3,2,restaurant_6,1,memory-2step-stake-s,516,1212731,0.0-19.0-0.0-0.17,A3TDA1NWHNQFE3,306996CF7Z0Y3F4KVQ7DFLTE4FJB13,34V1S5K3GWHD8ROETEA08VLSI2V69I,7,8
18,1,object_08,object_05,874.89500001539,2,2,290.3149999911,0.2222222222222222,2,object_10,1,181,0,3,2,desert_5,1,memory-2step-stake-s,517,1220450,0.0-19.0-0.0-0.18,A3TDA1NWHNQFE3,306996CF7Z0Y3F4KVQ7DFLTE4FJB13,34V1S5K3GWHD8ROETEA08VLSI2V69I,1,2
19,4,object_06,object_01,1030.075000017,7,2,554.83499995898,0.2222222222222222,1,object_09,1,183,0,2,1,restaurant_6,1,memory-2step-stake-s,518,1228439,0.0-19.0-0.0-0.19,A3TDA1NWHNQFE3,306996CF7Z0Y3F4KVQ7DFLTE4FJB13,34V1S5K3GWHD8ROETEA08VLSI2V69I,8,7
20,3,object_02,object_03,1153.7249999819,5,1,337.48999994714,0.0,1,object_09,5,183,0,0,1,library_7,1,memory-2step-stake-s,519,1235999,0.0-19.0-0.0-0.20,A3TDA1NWHNQFE3,306996CF7Z0Y3F4KVQ7DFLTE4FJB13,34V1S5K3GWHD8ROETEA08VLSI2V69I,5,6
21,2,object_07,object_04,868.73500002548,4,1,351.09499993268,0.1111111111111111,2,object_10,1,184,0,3,1,forest_2,1,memory-2step-stake-s,520,1243677,0.0-19.0-0.0-0.21,A3TDA1NWHNQFE3,306996CF7Z0Y3F4KVQ7DFLTE4FJB13,34V1S5K3GWHD8ROETEA08VLSI2V69I,4,3
22,3,object_03,object_02,1392.7900000708,5,2,325.70000004489,0.0,1,object_09,5,184,0,0,2,library_2,1,memory-2step-stake-s,521,1251223,0.0-19.0-0.0-0.22,A3TDA1NWHNQFE3,306996CF7Z0Y3F4KVQ7DFLTE4FJB13,34V1S5K3GWHD8ROETEA08VLSI2V69I,6,5
23,3,object_03,object_02,956.75999997184,6,1,274.48000002187,0.1111111111111111,2,object_10,5,189,0,1,1,library_2,1,memory-2step-stake-s,522,1258825,0.0-19.0-0.0-0.23,A3TDA1NWHNQFE3,306996CF7Z0Y3F4KVQ7DFLTE4FJB13,34V1S5K3GWHD8ROETEA08VLSI2V69I,6,5
24,1,object_05,object_08,1136.129999999,1,2,555.46499998309,0.1111111111111111,1,object_09,1,190,0,1,3,desert_5,1,memory-2step-stake-s,523,1266714,0.0-19.0-0.0-0.24,A3TDA1NWHNQFE3,306996CF7Z0Y3F4KVQ7DFLTE4FJB13,34V1S5K3GWHD8ROETEA08VLSI2V69I,2,1
25,1,object_08,object_05,935.22500002291,1,1,408.53999997489,0.1111111111111111,1,object_09,1,191,0,1,7,desert_1,1,memory-2step-stake-s,524,1274453,0.0-19.0-0.0-0.25,A3TDA1NWHNQFE3,306996CF7Z0Y3F4KVQ7DFLTE4FJB13,34V1S5K3GWHD8ROETEA08VLSI2V69I,1,2
26,2,object_07,object_04,759.21000004746,4,1,396.1249999702,0.7777777777777778,2,object_10,1,198,0,3,7,forest_5,1,memory-2step-stake-s,525,1282787,0.0-19.0-0.0-0.26,A3TDA1NWHNQFE3,306996CF7Z0Y3F4KVQ7DFLTE4FJB13,34V1S5K3GWHD8ROETEA08VLSI2V69I,4,3
27,4,object_06,object_01,-1.0,-1,-1,-1.0,0.0,-,0,1,198,0,1,7,restaurant_4,1,memory-2step-stake-s,526,1289304,0.0-19.0-0.0-0.27,A3TDA1NWHNQFE3,306996CF7Z0Y3F4KVQ7DFLTE4FJB13,34V1S5K3GWHD8ROETEA08VLSI2V69I,8,7
28,1,object_05,object_08,739.77500002366,2,1,348.74499996658,0.7777777777777778,2,object_10,5,233,0,1,7,desert_1,1,memory-2step-stake-s,527,1297594,0.0-19.0-0.0-0.28,A3TDA1NWHNQFE3,306996CF7Z0Y3F4KVQ7DFLTE4FJB13,34V1S5K3GWHD8ROETEA08VLSI2V69I,2,1
29,1,object_05,object_08,1007.115000044,2,1,318.87499999721,1.0,2,object_10,1,242,0,2,9,desert_8,1,memory-2step-stake-s,528,1306055,0.0-19.0-0.0-0.29,A3TDA1NWHNQFE3,306996CF7Z0Y3F4KVQ7DFLTE4FJB13,34V1S5K3GWHD8ROETEA08VLSI2V69I,2,1
30,2,object_04,object_07,764.54000000376,4,2,463.9699999243,0.8888888888888888,2,object_10,1,250,0,2,8,forest_7,1,memory-2step-stake-s,529,1314562,0.0-19.0-0.0-0.30,A3TDA1NWHNQFE3,306996CF7Z0Y3F4KVQ7DFLTE4FJB13,34V1S5K3GWHD8ROETEA08VLSI2V69I,3,4
31,3,object_03,object_02,854.10500003491,6,1,365.04499998409,1.0,2,object_10,5,295,0,2,9,library_7,1,memory-2step-stake-s,530,1323068,0.0-19.0-0.0-0.31,A3TDA1NWHNQFE3,306996CF7Z0Y3F4KVQ7DFLTE4FJB13,34V1S5K3GWHD8ROETEA08VLSI2V69I,6,5
32,4,object_06,object_01,1446.3250000263,7,2,370.86999998428,0.2222222222222222,1,object_09,5,305,0,2,6,restaurant_1,1,memory-2step-stake-s,531,1330866,0.0-19.0-0.0-0.32,A3TDA1NWHNQFE3,306996CF7Z0Y3F4KVQ7DFLTE4FJB13,34V1S5K3GWHD8ROETEA08VLSI2V69I,8,7
33,3,object_02,object_03,733.83000004105,6,2,412.69500006456,1.0,2,object_10,5,350,0,3,9,library_3,1,memory-2step-stake-s,532,1339432,0.0-19.0-0.0-0.33,A3TDA1NWHNQFE3,306996CF7Z0Y3F4KVQ7DFLTE4FJB13,34V1S5K3GWHD8ROETEA08VLSI2V69I,5,6
34,3,object_02,object_03,679.99999993481,6,2,283.06000004523,0.6666666666666666,2,object_10,5,380,0,5,6,library_2,1,memory-2step-stake-s,533,1347557,0.0-19.0-0.0-0.34,A3TDA1NWHNQFE3,306996CF7Z0Y3F4KVQ7DFLTE4FJB13,34V1S5K3GWHD8ROETEA08VLSI2V69I,5,6
35,2,object_07,object_04,749.43500000518,4,1,408.04499993101,0.5555555555555556,2,object_10,1,385,0,8,5,forest_7,1,memory-2step-stake-s,534,1355697,0.0-19.0-0.0-0.35,A3TDA1NWHNQFE3,306996CF7Z0Y3F4KVQ7DFLTE4FJB13,34V1S5K3GWHD8ROETEA08VLSI2V69I,4,3
36,2,object_04,object_07,650.37499996834,4,2,381.59500004258,0.6666666666666666,2,object_10,1,391,0,6,6,forest_6,1,memory-2step-stake-s,535,1363918,0.0-19.0-0.0-0.36,A3TDA1NWHNQFE3,306996CF7Z0Y3F4KVQ7DFLTE4FJB13,34V1S5K3GWHD8ROETEA08VLSI2V69I,3,4
37,2,object_07,object_04,628.28000006266,4,1,777.30999991763,0.3333333333333333,2,object_10,1,394,0,9,3,forest_7,1,memory-2step-stake-s,536,1372226,0.0-19.0-0.0-0.37,A3TDA1NWHNQFE3,306996CF7Z0Y3F4KVQ7DFLTE4FJB13,34V1S5K3GWHD8ROETEA08VLSI2V69I,4,3
38,1,object_05,object_08,930.65999995451,1,2,368.89000004157,0.8888888888888888,1,object_09,1,402,0,8,1,desert_6,1,memory-2step-stake-s,537,1380639,0.0-19.0-0.0-0.38,A3TDA1NWHNQFE3,306996CF7Z0Y3F4KVQ7DFLTE4FJB13,34V1S5K3GWHD8ROETEA08VLSI2V69I,2,1
39,1,object_05,object_08,1470.2850000467,1,2,430.41499995161,0.8888888888888888,1,object_09,1,410,0,8,1,desert_6,1,memory-2step-stake-s,538,1389117,0.0-19.0-0.0-0.39,A3TDA1NWHNQFE3,306996CF7Z0Y3F4KVQ7DFLTE4FJB13,34V1S5K3GWHD8ROETEA08VLSI2V69I,2,1
40,2,object_07,object_04,835.26999992318,3,2,526.89500001725,0.7777777777777778,1,object_09,5,445,0,7,2,forest_7,1,memory-2step-stake-s,539,1397580,0.0-19.0-0.0-0.40,A3TDA1NWHNQFE3,306996CF7Z0Y3F4KVQ7DFLTE4FJB13,34V1S5K3GWHD8ROETEA08VLSI2V69I,4,3
41,1,object_05,object_08,-1.0,-1,-1,-1.0,0.0,-,0,1,445,0,7,3,desert_8,1,memory-2step-stake-s,540,1404101,0.0-19.0-0.0-0.41,A3TDA1NWHNQFE3,306996CF7Z0Y3F4KVQ7DFLTE4FJB13,34V1S5K3GWHD8ROETEA08VLSI2V69I,2,1
42,2,object_04,object_07,839.14500009269,3,1,419.35000009835,0.3333333333333333,1,object_09,1,448,0,3,6,forest_5,1,memory-2step-stake-s,541,1412052,0.0-19.0-0.0-0.42,A3TDA1NWHNQFE3,306996CF7Z0Y3F4KVQ7DFLTE4FJB13,34V1S5K3GWHD8ROETEA08VLSI2V69I,3,4
43,1,object_08,object_05,838.54000002611,1,1,289.16000004392,0.4444444444444444,1,object_09,1,452,0,4,5,desert_5,1,memory-2step-stake-s,542,1419970,0.0-19.0-0.0-0.43,A3TDA1NWHNQFE3,306996CF7Z0Y3F4KVQ7DFLTE4FJB13,34V1S5K3GWHD8ROETEA08VLSI2V69I,1,2
44,3,object_03,object_02,446.55500003137,5,2,334.89000005648,0.4444444444444444,1,object_09,5,472,0,4,5,library_2,1,memory-2step-stake-s,543,1427933,0.0-19.0-0.0-0.44,A3TDA1NWHNQFE3,306996CF7Z0Y3F4KVQ7DFLTE4FJB13,34V1S5K3GWHD8ROETEA08VLSI2V69I,6,5
45,1,object_05,object_08,816.83000002522,1,2,272.72000000812,0.2222222222222222,1,object_09,1,474,0,2,1,desert_1,1,memory-2step-stake-s,544,1435634,0.0-19.0-0.0-0.45,A3TDA1NWHNQFE3,306996CF7Z0Y3F4KVQ7DFLTE4FJB13,34V1S5K3GWHD8ROETEA08VLSI2V69I,2,1
46,1,object_08,object_05,794.5999999065,1,1,364.37500000466,0.0,1,object_09,1,474,0,0,2,desert_1,1,memory-2step-stake-s,545,1443223,0.0-19.0-0.0-0.46,A3TDA1NWHNQFE3,306996CF7Z0Y3F4KVQ7DFLTE4FJB13,34V1S5K3GWHD8ROETEA08VLSI2V69I,1,2
47,4,object_01,object_06,838.02500006277,8,2,421.00000008941,0.1111111111111111,2,object_10,5,479,0,2,1,restaurant_4,1,memory-2step-stake-s,546,1450967,0.0-19.0-0.0-0.47,A3TDA1NWHNQFE3,306996CF7Z0Y3F4KVQ7DFLTE4FJB13,34V1S5K3GWHD8ROETEA08VLSI2V69I,7,8
48,3,object_03,object_02,766.94999996107,5,2,263.05499998853,0.2222222222222222,1,object_09,5,489,0,2,1,library_3,1,memory-2step-stake-s,547,1458660,0.0-19.0-0.0-0.48,A3TDA1NWHNQFE3,306996CF7Z0Y3F4KVQ7DFLTE4FJB13,34V1S5K3GWHD8ROETEA08VLSI2V69I,6,5
49,1,object_05,object_08,700.97999996506,2,1,373.80999990273,0.4444444444444444,2,object_10,1,493,0,0,4,desert_6,1,memory-2step-stake-s,548,1466676,0.0-19.0-0.0-0.49,A3TDA1NWHNQFE3,306996CF7Z0Y3F4KVQ7DFLTE4FJB13,34V1S5K3GWHD8ROETEA08VLSI2V69I,2,1
50,4,object_01,object_06,899.27000005264,8,2,497.58500000462,0.4444444444444444,2,object_10,5,513,0,2,4,restaurant_4,1,memory-2step-stake-s,549,1474798,0.0-19.0-0.0-0.50,A3TDA1NWHNQFE3,306996CF7Z0Y3F4KVQ7DFLTE4FJB13,34V1S5K3GWHD8ROETEA08VLSI2V69I,7,8
51,3,object_02,object_03,818.1999999797,6,2,407.96499990392,0.3333333333333333,2,object_10,5,528,0,1,3,library_3,1,memory-2step-stake-s,550,1482741,0.0-19.0-0.0-0.51,A3TDA1NWHNQFE3,306996CF7Z0Y3F4KVQ7DFLTE4FJB13,34V1S5K3GWHD8ROETEA08VLSI2V69I,5,6
52,1,object_05,object_08,838.57999998145,1,2,654.9450000748,0.4444444444444444,1,object_09,1,532,0,4,2,desert_6,1,memory-2step-stake-s,551,1491034,0.0-19.0-0.0-0.52,A3TDA1NWHNQFE3,306996CF7Z0Y3F4KVQ7DFLTE4FJB13,34V1S5K3GWHD8ROETEA08VLSI2V69I,2,1
53,3,object_03,object_02,1094.625000027,6,1,382.28000001982,0.1111111111111111,2,object_10,5,537,0,4,1,library_7,1,memory-2step-stake-s,552,1498736,0.0-19.0-0.0-0.53,A3TDA1NWHNQFE3,306996CF7Z0Y3F4KVQ7DFLTE4FJB13,34V1S5K3GWHD8ROETEA08VLSI2V69I,6,5
54,1,object_05,object_08,628.46999999601,1,2,304.39499998465,0.1111111111111111,1,object_09,1,538,0,1,1,desert_5,1,memory-2step-stake-s,553,1506361,0.0-19.0-0.0-0.54,A3TDA1NWHNQFE3,306996CF7Z0Y3F4KVQ7DFLTE4FJB13,34V1S5K3GWHD8ROETEA08VLSI2V69I,2,1
55,4,object_06,object_01,661.37500002515,8,1,360.93000008259,0.2222222222222222,2,object_10,1,540,0,1,2,restaurant_6,1,memory-2step-stake-s,554,1514154,0.0-19.0-0.0-0.55,A3TDA1NWHNQFE3,306996CF7Z0Y3F4KVQ7DFLTE4FJB13,34V1S5K3GWHD8ROETEA08VLSI2V69I,8,7
56,3,object_03,object_02,723.4799999278,5,2,238.7850000523,0.3333333333333333,1,object_09,5,555,0,3,4,library_2,1,memory-2step-stake-s,555,1521919,0.0-19.0-0.0-0.56,A3TDA1NWHNQFE3,306996CF7Z0Y3F4KVQ7DFLTE4FJB13,34V1S5K3GWHD8ROETEA08VLSI2V69I,6,5
57,4,object_06,object_01,996.96000001859,8,1,370.06999994628,0.1111111111111111,2,object_10,5,560,0,3,1,restaurant_4,1,memory-2step-stake-s,556,1529614,0.0-19.0-0.0-0.57,A3TDA1NWHNQFE3,306996CF7Z0Y3F4KVQ7DFLTE4FJB13,34V1S5K3GWHD8ROETEA08VLSI2V69I,8,7
58,1,object_08,object_05,731.48000007495,2,2,445.94000000507,0.1111111111111111,2,object_10,1,561,0,1,1,desert_1,1,memory-2step-stake-s,557,1537385,0.0-19.0-0.0-0.58,A3TDA1NWHNQFE3,306996CF7Z0Y3F4KVQ7DFLTE4FJB13,34V1S5K3GWHD8ROETEA08VLSI2V69I,1,2
59,3,object_02,object_03,1027.410000097,6,2,318.65000003017,0.3333333333333333,2,object_10,5,576,0,1,3,library_3,1,memory-2step-stake-s,558,1545238,0.0-19.0-0.0-0.59,A3TDA1NWHNQFE3,306996CF7Z0Y3F4KVQ7DFLTE4FJB13,34V1S5K3GWHD8ROETEA08VLSI2V69I,5,6
60,1,object_05,object_08,591.8000000529,2,1,440.93000004068,0.1111111111111111,2,object_10,1,577,0,1,1,desert_5,1,memory-2step-stake-s,559,1553001,0.0-19.0-0.0-0.60,A3TDA1NWHNQFE3,306996CF7Z0Y3F4KVQ7DFLTE4FJB13,34V1S5K3GWHD8ROETEA08VLSI2V69I,2,1
61,1,object_08,object_05,599.10499991383,2,2,556.10499996692,0.0,2,object_10,1,577,0,1,0,desert_1,1,memory-2step-stake-s,560,1560779,0.0-19.0-0.0-0.61,A3TDA1NWHNQFE3,306996CF7Z0Y3F4KVQ7DFLTE4FJB13,34V1S5K3GWHD8ROETEA08VLSI2V69I,1,2
62,1,object_08,object_05,255.22499997169,1,1,381.97499990929,0.3333333333333333,1,object_09,1,580,0,3,3,desert_8,1,memory-2step-stake-s,561,1568690,0.0-19.0-0.0-0.62,A3TDA1NWHNQFE3,306996CF7Z0Y3F4KVQ7DFLTE4FJB13,34V1S5K3GWHD8ROETEA08VLSI2V69I,1,2
63,2,object_07,object_04,1072.0899999142,4,1,335.88499994949,0.4444444444444444,2,object_10,1,584,0,5,4,forest_2,1,memory-2step-stake-s,562,1576656,0.0-19.0-0.0-0.63,A3TDA1NWHNQFE3,306996CF7Z0Y3F4KVQ7DFLTE4FJB13,34V1S5K3GWHD8ROETEA08VLSI2V69I,4,3
64,3,object_02,object_03,608.96500002127,6,2,302.08000005223,0.3333333333333333,2,object_10,5,599,0,3,3,library_7,1,memory-2step-stake-s,563,1584484,0.0-19.0-0.0-0.64,A3TDA1NWHNQFE3,306996CF7Z0Y3F4KVQ7DFLTE4FJB13,34V1S5K3GWHD8ROETEA08VLSI2V69I,5,6
65,1,object_08,object_05,801.89499992412,1,1,434.87499991897,0.3333333333333333,1,object_09,1,602,0,3,2,desert_6,1,memory-2step-stake-s,564,1592452,0.0-19.0-0.0-0.65,A3TDA1NWHNQFE3,306996CF7Z0Y3F4KVQ7DFLTE4FJB13,34V1S5K3GWHD8ROETEA08VLSI2V69I,1,2
66,4,object_01,object_06,646.7249999987,8,2,440.18999999389,0.2222222222222222,2,object_10,5,612,0,5,2,restaurant_6,1,memory-2step-stake-s,565,1600319,0.0-19.0-0.0-0.66,A3TDA1NWHNQFE3,306996CF7Z0Y3F4KVQ7DFLTE4FJB13,34V1S5K3GWHD8ROETEA08VLSI2V69I,7,8
67,3,object_02,object_03,593.62499997951,6,2,442.33500002883,0.2222222222222222,2,object_10,5,622,0,9,2,library_2,1,memory-2step-stake-s,566,1608191,0.0-19.0-0.0-0.67,A3TDA1NWHNQFE3,306996CF7Z0Y3F4KVQ7DFLTE4FJB13,34V1S5K3GWHD8ROETEA08VLSI2V69I,5,6
68,4,object_01,object_06,880.56499999948,7,1,571.3949999772,0.4444444444444444,1,object_09,5,642,0,4,1,restaurant_1,1,memory-2step-stake-s,567,1616393,0.0-19.0-0.0-0.68,A3TDA1NWHNQFE3,306996CF7Z0Y3F4KVQ7DFLTE4FJB13,34V1S5K3GWHD8ROETEA08VLSI2V69I,7,8
69,3,object_03,object_02,950.48500003759,5,2,405.37499997299,0.7777777777777778,1,object_09,5,677,0,7,3,library_7,1,memory-2step-stake-s,568,1624741,0.0-19.0-0.0-0.69,A3TDA1NWHNQFE3,306996CF7Z0Y3F4KVQ7DFLTE4FJB13,34V1S5K3GWHD8ROETEA08VLSI2V69I,6,5
70,4,object_01,object_06,976.3100000564,7,1,394.93499998935,0.8888888888888888,1,object_09,5,717,0,8,1,restaurant_4,1,memory-2step-stake-s,569,1633188,0.0-19.0-0.0-0.70,A3TDA1NWHNQFE3,306996CF7Z0Y3F4KVQ7DFLTE4FJB13,34V1S5K3GWHD8ROETEA08VLSI2V69I,7,8
71,2,object_04,object_07,918.59000001568,3,1,362.55999992136,1.0,1,object_09,1,726,0,9,2,forest_6,1,memory-2step-stake-s,570,1641702,0.0-19.0-0.0-0.71,A3TDA1NWHNQFE3,306996CF7Z0Y3F4KVQ7DFLTE4FJB13,34V1S5K3GWHD8ROETEA08VLSI2V69I,3,4
72,2,object_04,object_07,765.4549999861,3,1,601.61000001244,0.8888888888888888,1,object_09,1,734,0,8,1,forest_5,1,memory-2step-stake-s,571,1650336,0.0-19.0-0.0-0.72,A3TDA1NWHNQFE3,306996CF7Z0Y3F4KVQ7DFLTE4FJB13,34V1S5K3GWHD8ROETEA08VLSI2V69I,3,4
73,4,object_06,object_01,791.3750000298,7,2,376.94000010379,0.4444444444444444,1,object_09,5,754,0,4,1,restaurant_1,1,memory-2step-stake-s,572,1658359,0.0-19.0-0.0-0.73,A3TDA1NWHNQFE3,306996CF7Z0Y3F4KVQ7DFLTE4FJB13,34V1S5K3GWHD8ROETEA08VLSI2V69I,8,7
74,1,object_05,object_08,835.46500001103,2,1,493.2399999816,0.1111111111111111,2,object_10,1,755,0,4,1,desert_1,1,memory-2step-stake-s,573,1666175,0.0-19.0-0.0-0.74,A3TDA1NWHNQFE3,306996CF7Z0Y3F4KVQ7DFLTE4FJB13,34V1S5K3GWHD8ROETEA08VLSI2V69I,2,1
75,3,object_02,object_03,802.74000007194,5,1,280.44500004034,0.4444444444444444,1,object_09,5,775,0,4,1,library_7,1,memory-2step-stake-s,574,1674085,0.0-19.0-0.0-0.75,A3TDA1NWHNQFE3,306996CF7Z0Y3F4KVQ7DFLTE4FJB13,34V1S5K3GWHD8ROETEA08VLSI2V69I,5,6
76,3,object_03,object_02,900.49000002909,5,2,299.43500005174,0.3333333333333333,1,object_09,5,790,0,3,1,library_6,1,memory-2step-stake-s,575,1681926,0.0-19.0-0.0-0.76,A3TDA1NWHNQFE3,306996CF7Z0Y3F4KVQ7DFLTE4FJB13,34V1S5K3GWHD8ROETEA08VLSI2V69I,6,5
77,1,object_08,object_05,767.61000009719,2,2,380.32500003465,0.3333333333333333,2,object_10,1,793,0,1,3,desert_5,1,memory-2step-stake-s,576,1689837,0.0-19.0-0.0-0.77,A3TDA1NWHNQFE3,306996CF7Z0Y3F4KVQ7DFLTE4FJB13,34V1S5K3GWHD8ROETEA08VLSI2V69I,1,2
78,1,object_08,object_05,901.58499998506,2,2,236.40499997418,0.5555555555555556,2,object_10,1,798,0,2,5,desert_1,1,memory-2step-stake-s,577,1697812,0.0-19.0-0.0-0.78,A3TDA1NWHNQFE3,306996CF7Z0Y3F4KVQ7DFLTE4FJB13,34V1S5K3GWHD8ROETEA08VLSI2V69I,1,2
79,2,object_04,object_07,1120.4450000077,3,1,369.76499995217,0.1111111111111111,1,object_09,5,803,0,1,3,forest_6,1,memory-2step-stake-s,578,1705504,0.0-19.0-0.0-0.79,A3TDA1NWHNQFE3,306996CF7Z0Y3F4KVQ7DFLTE4FJB13,34V1S5K3GWHD8ROETEA08VLSI2V69I,3,4
80,1,object_08,object_05,837.97500003129,2,2,300.09000003338,0.1111111111111111,2,object_10,1,804,0,0,1,desert_8,1,memory-2step-stake-s,579,1713127,0.0-19.0-0.0-0.80,A3TDA1NWHNQFE3,306996CF7Z0Y3F4KVQ7DFLTE4FJB13,34V1S5K3GWHD8ROETEA08VLSI2V69I,1,2
81,1,object_08,object_05,707.7350000618,2,2,576.04499999434,0.1111111111111111,2,object_10,1,805,0,1,1,desert_6,1,memory-2step-stake-s,580,1721031,0.0-19.0-0.0-0.81,A3TDA1NWHNQFE3,306996CF7Z0Y3F4KVQ7DFLTE4FJB13,34V1S5K3GWHD8ROETEA08VLSI2V69I,1,2
82,2,object_07,object_04,936.60499993712,4,1,485.46999995597,0.3333333333333333,2,object_10,1,808,0,2,3,forest_2,1,memory-2step-stake-s,581,1729112,0.0-19.0-0.0-0.82,A3TDA1NWHNQFE3,306996CF7Z0Y3F4KVQ7DFLTE4FJB13,34V1S5K3GWHD8ROETEA08VLSI2V69I,4,3
83,4,object_06,object_01,1100.8300000103,7,2,274.18999990914,0.3333333333333333,1,object_09,5,823,0,3,4,restaurant_8,1,memory-2step-stake-s,582,1736914,0.0-19.0-0.0-0.83,A3TDA1NWHNQFE3,306996CF7Z0Y3F4KVQ7DFLTE4FJB13,34V1S5K3GWHD8ROETEA08VLSI2V69I,8,7
84,2,object_07,object_04,809.81999996584,4,1,332.73999998346,0.8888888888888888,2,object_10,5,863,0,1,8,forest_5,1,memory-2step-stake-s,583,1745293,0.0-19.0-0.0-0.84,A3TDA1NWHNQFE3,306996CF7Z0Y3F4KVQ7DFLTE4FJB13,34V1S5K3GWHD8ROETEA08VLSI2V69I,4,3
85,2,object_04,object_07,724.96999998111,4,2,340.83000000101,1.0,2,object_10,1,872,0,6,9,forest_6,1,memory-2step-stake-s,584,1753785,0.0-19.0-0.0-0.85,A3TDA1NWHNQFE3,306996CF7Z0Y3F4KVQ7DFLTE4FJB13,34V1S5K3GWHD8ROETEA08VLSI2V69I,3,4
86,2,object_07,object_04,679.08499995247,4,1,349.51500000898,0.6666666666666666,2,object_10,1,878,0,7,6,forest_7,1,memory-2step-stake-s,585,1761966,0.0-19.0-0.0-0.86,A3TDA1NWHNQFE3,306996CF7Z0Y3F4KVQ7DFLTE4FJB13,34V1S5K3GWHD8ROETEA08VLSI2V69I,4,3
87,3,object_02,object_03,1168.70499996,6,2,281.50499996264,1.0,2,object_10,5,923,0,8,9,library_3,1,memory-2step-stake-s,586,1770388,0.0-19.0-0.0-0.87,A3TDA1NWHNQFE3,306996CF7Z0Y3F4KVQ7DFLTE4FJB13,34V1S5K3GWHD8ROETEA08VLSI2V69I,5,6
88,3,object_02,object_03,-1.0,-1,-1,-1.0,0.0,-,0,1,923,0,7,8,library_7,1,memory-2step-stake-s,587,1776906,0.0-19.0-0.0-0.88,A3TDA1NWHNQFE3,306996CF7Z0Y3F4KVQ7DFLTE4FJB13,34V1S5K3GWHD8ROETEA08VLSI2V69I,5,6
89,1,object_05,object_08,763.50499992259,1,2,248.81500005722,0.7777777777777778,1,object_09,1,930,0,7,6,desert_8,1,memory-2step-stake-s,588,1785104,0.0-19.0-0.0-0.89,A3TDA1NWHNQFE3,306996CF7Z0Y3F4KVQ7DFLTE4FJB13,34V1S5K3GWHD8ROETEA08VLSI2V69I,2,1
90,1,object_05,object_08,781.54500003438,1,2,299.26999995951,0.7777777777777778,1,object_09,5,965,0,7,6,desert_8,1,memory-2step-stake-s,589,1793350,0.0-19.0-0.0-0.90,A3TDA1NWHNQFE3,306996CF7Z0Y3F4KVQ7DFLTE4FJB13,34V1S5K3GWHD8ROETEA08VLSI2V69I,2,1
91,2,object_04,object_07,1063.5100000072,4,2,408.14499999397,0.7777777777777778,2,object_10,1,972,0,9,7,forest_5,1,memory-2step-stake-s,590,1801697,0.0-19.0-0.0-0.91,A3TDA1NWHNQFE3,306996CF7Z0Y3F4KVQ7DFLTE4FJB13,34V1S5K3GWHD8ROETEA08VLSI2V69I,3,4
92,2,object_04,object_07,585.37999994587,4,2,305.17000006512,0.3333333333333333,2,object_10,5,987,0,7,3,forest_6,1,memory-2step-stake-s,591,1809532,0.0-19.0-0.0-0.92,A3TDA1NWHNQFE3,306996CF7Z0Y3F4KVQ7DFLTE4FJB13,34V1S5K3GWHD8ROETEA08VLSI2V69I,3,4
93,4,object_01,object_06,728.81999996025,7,1,425.75000005309,0.5555555555555556,1,object_09,5,1012,0,5,0,restaurant_1,1,memory-2step-stake-s,592,1817693,0.0-19.0-0.0-0.93,A3TDA1NWHNQFE3,306996CF7Z0Y3F4KVQ7DFLTE4FJB13,34V1S5K3GWHD8ROETEA08VLSI2V69I,7,8
94,3,object_02,object_03,727.32499998529,5,1,294.06500002369,0.3333333333333333,1,object_09,5,1027,0,3,2,library_7,1,memory-2step-stake-s,593,1825523,0.0-19.0-0.0-0.94,A3TDA1NWHNQFE3,306996CF7Z0Y3F4KVQ7DFLTE4FJB13,34V1S5K3GWHD8ROETEA08VLSI2V69I,5,6
95,4,object_01,object_06,698.42999998946,7,1,553.78999991808,0.1111111111111111,1,object_09,5,1032,0,1,3,restaurant_6,1,memory-2step-stake-s,594,1833409,0.0-19.0-0.0-0.95,A3TDA1NWHNQFE3,306996CF7Z0Y3F4KVQ7DFLTE4FJB13,34V1S5K3GWHD8ROETEA08VLSI2V69I,7,8
96,3,object_02,object_03,746.41500005964,6,2,288.67499995977,0.3333333333333333,2,object_10,5,1047,0,6,3,library_2,1,memory-2step-stake-s,595,1841230,0.0-19.0-0.0-0.96,A3TDA1NWHNQFE3,306996CF7Z0Y3F4KVQ7DFLTE4FJB13,34V1S5K3GWHD8ROETEA08VLSI2V69I,5,6
97,4,object_01,object_06,579.66499996837,7,1,270.39999992121,0.8888888888888888,1,object_09,5,1087,0,8,0,restaurant_8,1,memory-2step-stake-s,596,1849544,0.0-19.0-0.0-0.97,A3TDA1NWHNQFE3,306996CF7Z0Y3F4KVQ7DFLTE4FJB13,34V1S5K3GWHD8ROETEA08VLSI2V69I,7,8
98,3,object_03,object_02,844.01499992236,6,1,385.05499996245,0.2222222222222222,2,object_10,5,1097,0,8,2,library_6,1,memory-2step-stake-s,597,1857358,0.0-19.0-0.0-0.98,A3TDA1NWHNQFE3,306996CF7Z0Y3F4KVQ7DFLTE4FJB13,34V1S5K3GWHD8ROETEA08VLSI2V69I,6,5
99,1,object_08,object_05,1037.5299999723,2,2,1415.9449998988,0.4444444444444444,2,object_10,1,1101,0,6,4,desert_8,1,memory-2step-stake-s,598,1866395,0.0-19.0-0.0-0.99,A3TDA1NWHNQFE3,306996CF7Z0Y3F4KVQ7DFLTE4FJB13,34V1S5K3GWHD8ROETEA08VLSI2V69I,1,2
100,4,object_06,object_01,775.6099998951,7,2,251.84000004083,0.5555555555555556,1,object_09,1,1106,0,5,4,restaurant_6,1,memory-2step-stake-s,599,1874380,0.0-19.0-0.0-0.100,A3TDA1NWHNQFE3,306996CF7Z0Y3F4KVQ7DFLTE4FJB13,34V1S5K3GWHD8ROETEA08VLSI2V69I,8,7
101,4,object_01,object_06,483.22499997448,7,1,254.79499995708,0.4444444444444444,1,object_09,5,1126,0,4,4,restaurant_1,1,memory-2step-stake-s,600,1882268,0.0-19.0-0.0-0.101,A3TDA1NWHNQFE3,306996CF7Z0Y3F4KVQ7DFLTE4FJB13,34V1S5K3GWHD8ROETEA08VLSI2V69I,7,8
102,1,object_05,object_08,765.20499994513,2,1,404.48000002652,0.5555555555555556,2,object_10,1,1131,0,3,5,desert_8,1,memory-2step-stake-s,601,1890408,0.0-19.0-0.0-0.102,A3TDA1NWHNQFE3,306996CF7Z0Y3F4KVQ7DFLTE4FJB13,34V1S5K3GWHD8ROETEA08VLSI2V69I,2,1
103,2,object_04,object_07,831.40000002459,4,2,300.00000004657,0.4444444444444444,2,object_10,1,1135,0,4,4,forest_5,1,memory-2step-stake-s,602,1898351,0.0-19.0-0.0-0.103,A3TDA1NWHNQFE3,306996CF7Z0Y3F4KVQ7DFLTE4FJB13,34V1S5K3GWHD8ROETEA08VLSI2V69I,3,4
104,2,object_07,object_04,680.92499999329,4,1,249.11500001326,0.5555555555555556,2,object_10,1,1140,0,4,5,forest_5,1,memory-2step-stake-s,603,1906338,0.0-19.0-0.0-0.104,A3TDA1NWHNQFE3,306996CF7Z0Y3F4KVQ7DFLTE4FJB13,34V1S5K3GWHD8ROETEA08VLSI2V69I,4,3
105,3,object_03,object_02,739.6899999585,6,1,293.16999996081,0.4444444444444444,2,object_10,5,1160,0,1,4,library_3,1,memory-2step-stake-s,604,1914266,0.0-19.0-0.0-0.105,A3TDA1NWHNQFE3,306996CF7Z0Y3F4KVQ7DFLTE4FJB13,34V1S5K3GWHD8ROETEA08VLSI2V69I,6,5
106,3,object_02,object_03,774.16500006802,6,2,344.70999997575,0.3333333333333333,2,object_10,5,1175,0,3,3,library_7,1,memory-2step-stake-s,605,1922150,0.0-19.0-0.0-0.106,A3TDA1NWHNQFE3,306996CF7Z0Y3F4KVQ7DFLTE4FJB13,34V1S5K3GWHD8ROETEA08VLSI2V69I,5,6
107,3,object_02,object_03,756.65499991737,5,1,287.565000006,0.3333333333333333,1,object_09,5,1190,0,3,3,library_7,1,memory-2step-stake-s,606,1929980,0.0-19.0-0.0-0.107,A3TDA1NWHNQFE3,306996CF7Z0Y3F4KVQ7DFLTE4FJB13,34V1S5K3GWHD8ROETEA08VLSI2V69I,5,6
108,3,object_03,object_02,809.35500003397,5,2,314.1600000672,0.1111111111111111,1,object_09,5,1195,0,1,0,library_7,1,memory-2step-stake-s,607,1937619,0.0-19.0-0.0-0.108,A3TDA1NWHNQFE3,306996CF7Z0Y3F4KVQ7DFLTE4FJB13,34V1S5K3GWHD8ROETEA08VLSI2V69I,6,5
109,4,object_06,object_01,671.79000005126,7,2,333.4399999585,0.1111111111111111,1,object_09,5,1200,0,1,3,restaurant_1,1,memory-2step-stake-s,608,1945274,0.0-19.0-0.0-0.109,A3TDA1NWHNQFE3,306996CF7Z0Y3F4KVQ7DFLTE4FJB13,34V1S5K3GWHD8ROETEA08VLSI2V69I,8,7
110,2,object_07,object_04,867.00000008568,4,1,357.79999999795,0.2222222222222222,2,object_10,1,1202,0,1,2,forest_7,1,memory-2step-stake-s,609,1953063,0.0-19.0-0.0-0.110,A3TDA1NWHNQFE3,306996CF7Z0Y3F4KVQ7DFLTE4FJB13,34V1S5K3GWHD8ROETEA08VLSI2V69I,4,3
111,2,object_07,object_04,661.29500011448,4,1,513.66500009317,0.3333333333333333,2,object_10,5,1217,0,2,3,forest_5,1,memory-2step-stake-s,610,1961106,0.0-19.0-0.0-0.111,A3TDA1NWHNQFE3,306996CF7Z0Y3F4KVQ7DFLTE4FJB13,34V1S5K3GWHD8ROETEA08VLSI2V69I,4,3
112,3,object_03,object_02,785.58500006329,5,2,325.11000009254,0.2222222222222222,1,object_09,1,1219,0,2,5,library_7,1,memory-2step-stake-s,611,1968862,0.0-19.0-0.0-0.112,A3TDA1NWHNQFE3,306996CF7Z0Y3F4KVQ7DFLTE4FJB13,34V1S5K3GWHD8ROETEA08VLSI2V69I,6,5
113,2,object_04,object_07,683.48000000697,4,2,322.38999998663,0.5555555555555556,2,object_10,1,1224,0,3,5,forest_2,1,memory-2step-stake-s,612,1976920,0.0-19.0-0.0-0.113,A3TDA1NWHNQFE3,306996CF7Z0Y3F4KVQ7DFLTE4FJB13,34V1S5K3GWHD8ROETEA08VLSI2V69I,3,4
114,2,object_04,object_07,609.26000005566,4,2,486.18500004523,0.4444444444444444,2,object_10,1,1228,0,4,4,forest_2,1,memory-2step-stake-s,613,1985042,0.0-19.0-0.0-0.114,A3TDA1NWHNQFE3,306996CF7Z0Y3F4KVQ7DFLTE4FJB13,34V1S5K3GWHD8ROETEA08VLSI2V69I,3,4
115,4,object_01,object_06,585.30999999493,7,1,261.27499993891,0.5555555555555556,1,object_09,5,1253,0,5,8,restaurant_4,1,memory-2step-stake-s,614,1993039,0.0-19.0-0.0-0.115,A3TDA1NWHNQFE3,306996CF7Z0Y3F4KVQ7DFLTE4FJB13,34V1S5K3GWHD8ROETEA08VLSI2V69I,7,8
116,4,object_06,object_01,730.33499997109,7,2,396.25999995042,0.2222222222222222,1,object_09,5,1263,0,2,7,restaurant_8,1,memory-2step-stake-s,615,2000869,0.0-19.0-0.0-0.116,A3TDA1NWHNQFE3,306996CF7Z0Y3F4KVQ7DFLTE4FJB13,34V1S5K3GWHD8ROETEA08VLSI2V69I,8,7
117,3,object_03,object_02,909.06499989796,5,2,253.17000003997,0.0,1,object_09,5,1263,0,0,5,library_2,1,memory-2step-stake-s,616,2008345,0.0-19.0-0.0-0.117,A3TDA1NWHNQFE3,306996CF7Z0Y3F4KVQ7DFLTE4FJB13,34V1S5K3GWHD8ROETEA08VLSI2V69I,6,5
118,1,object_08,object_05,776.81000006851,1,1,357.36000002362,0.2222222222222222,1,object_09,1,1265,0,2,5,desert_5,1,memory-2step-stake-s,617,2016123,0.0-19.0-0.0-0.118,A3TDA1NWHNQFE3,306996CF7Z0Y3F4KVQ7DFLTE4FJB13,34V1S5K3GWHD8ROETEA08VLSI2V69I,1,2
119,4,object_01,object_06,693.06499999948,7,1,317.37000006251,0.1111111111111111,1,object_09,5,1270,0,1,2,restaurant_8,1,memory-2step-stake-s,618,2023769,0.0-19.0-0.0-0.119,A3TDA1NWHNQFE3,306996CF7Z0Y3F4KVQ7DFLTE4FJB13,34V1S5K3GWHD8ROETEA08VLSI2V69I,7,8
120,3,object_02,object_03,790.28499999549,5,1,372.99500009976,0.2222222222222222,1,object_09,5,1280,0,2,0,library_6,1,memory-2step-stake-s,619,2031571,0.0-19.0-0.0-0.120,A3TDA1NWHNQFE3,306996CF7Z0Y3F4KVQ7DFLTE4FJB13,34V1S5K3GWHD8ROETEA08VLSI2V69I,5,6
121,4,object_01,object_06,700.48500003759,7,1,357.89999994449,0.2222222222222222,1,object_09,5,1290,0,2,1,restaurant_6,1,memory-2step-stake-s,620,2039360,0.0-19.0-0.0-0.121,A3TDA1NWHNQFE3,306996CF7Z0Y3F4KVQ7DFLTE4FJB13,34V1S5K3GWHD8ROETEA08VLSI2V69I,7,8
122,2,object_04,object_07,830.70000004955,4,2,407.64499991201,0.1111111111111111,2,object_10,1,1291,0,3,1,forest_7,1,memory-2step-stake-s,621,2047090,0.0-19.0-0.0-0.122,A3TDA1NWHNQFE3,306996CF7Z0Y3F4KVQ7DFLTE4FJB13,34V1S5K3GWHD8ROETEA08VLSI2V69I,3,4
123,2,object_04,object_07,748.26000002213,4,2,780.8199999854,0.1111111111111111,2,object_10,1,1292,0,4,1,forest_2,1,memory-2step-stake-s,622,2055192,0.0-19.0-0.0-0.123,A3TDA1NWHNQFE3,306996CF7Z0Y3F4KVQ7DFLTE4FJB13,34V1S5K3GWHD8ROETEA08VLSI2V69I,3,4
124,1,object_05,object_08,666.50000005029,2,1,450.88999997824,0.3333333333333333,2,object_10,1,1295,0,2,3,desert_1,1,memory-2step-stake-s,623,2063180,0.0-19.0-0.0-0.124,A3TDA1NWHNQFE3,306996CF7Z0Y3F4KVQ7DFLTE4FJB13,34V1S5K3GWHD8ROETEA08VLSI2V69I,2,1
125,1,object_05,object_08,607.16499993578,1,2,31.810000073165,0.1111111111111111,1,object_09,1,1296,0,1,1,desert_6,1,memory-2step-stake-s,624,2070541,0.0-19.0-0.0-0.125,A3TDA1NWHNQFE3,306996CF7Z0Y3F4KVQ7DFLTE4FJB13,34V1S5K3GWHD8ROETEA08VLSI2V69I,2,1
126,2,object_04,object_07,757.99499999266,4,2,331.29499992356,0.0,2,object_10,5,1296,0,1,0,forest_6,1,memory-2step-stake-s,625,2078093,0.0-19.0-0.0-0.126,A3TDA1NWHNQFE3,306996CF7Z0Y3F4KVQ7DFLTE4FJB13,34V1S5K3GWHD8ROETEA08VLSI2V69I,3,4
127,1,object_05,object_08,575.26499999221,2,1,479.76500005461,0.1111111111111111,2,object_10,1,1297,0,1,1,desert_1,1,memory-2step-stake-s,626,2085897,0.0-19.0-0.0-0.127,A3TDA1NWHNQFE3,306996CF7Z0Y3F4KVQ7DFLTE4FJB13,34V1S5K3GWHD8ROETEA08VLSI2V69I,2,1
128,3,object_03,object_02,400.41999996174,6,1,532.13499998674,0.0,2,object_10,5,1297,0,0,0,library_3,1,memory-2step-stake-s,628,2526668,0.0-19.0-0.1-0.128,A3TDA1NWHNQFE3,306996CF7Z0Y3F4KVQ7DFLTE4FJB13,34V1S5K3GWHD8ROETEA08VLSI2V69I,6,5
129,1,object_08,object_05,1017.6599998958,1,1,448.08999996167,0.1111111111111111,1,object_09,1,1298,0,1,2,desert_5,1,memory-2step-stake-s,629,2534440,0.0-19.0-0.1-0.129,A3TDA1NWHNQFE3,306996CF7Z0Y3F4KVQ7DFLTE4FJB13,34V1S5K3GWHD8ROETEA08VLSI2V69I,1,2
130,3,object_03,object_02,861.48500000127,5,2,284.73500011023,0.2222222222222222,1,object_09,1,1300,0,2,2,library_6,1,memory-2step-stake-s,630,2542159,0.0-19.0-0.1-0.130,A3TDA1NWHNQFE3,306996CF7Z0Y3F4KVQ7DFLTE4FJB13,34V1S5K3GWHD8ROETEA08VLSI2V69I,6,5
131,2,object_04,object_07,1177.3900000844,4,2,372.70499998704,0.3333333333333333,2,object_10,5,1315,0,6,3,forest_5,1,memory-2step-stake-s,631,2550064,0.0-19.0-0.1-0.131,A3TDA1NWHNQFE3,306996CF7Z0Y3F4KVQ7DFLTE4FJB13,34V1S5K3GWHD8ROETEA08VLSI2V69I,3,4
132,2,object_04,object_07,730.42999999598,3,1,286.59000003245,0.5555555555555556,1,object_09,5,1340,0,5,3,forest_2,1,memory-2step-stake-s,632,2558087,0.0-19.0-0.1-0.132,A3TDA1NWHNQFE3,306996CF7Z0Y3F4KVQ7DFLTE4FJB13,34V1S5K3GWHD8ROETEA08VLSI2V69I,3,4
133,4,object_06,object_01,729.58000004292,7,2,294.3400000222,0.1111111111111111,1,object_09,5,1345,0,1,4,restaurant_8,1,memory-2step-stake-s,633,2565707,0.0-19.0-0.1-0.133,A3TDA1NWHNQFE3,306996CF7Z0Y3F4KVQ7DFLTE4FJB13,34V1S5K3GWHD8ROETEA08VLSI2V69I,8,7
134,2,object_04,object_07,731.40000004787,3,1,347.46999992058,0.1111111111111111,1,object_09,1,1346,0,1,1,forest_7,1,memory-2step-stake-s,634,2573390,0.0-19.0-0.1-0.134,A3TDA1NWHNQFE3,306996CF7Z0Y3F4KVQ7DFLTE4FJB13,34V1S5K3GWHD8ROETEA08VLSI2V69I,3,4
135,2,object_07,object_04,691.5100000333,3,2,428.10499994084,0.4444444444444444,1,object_09,1,1350,0,4,3,forest_5,1,memory-2step-stake-s,635,2581458,0.0-19.0-0.1-0.135,A3TDA1NWHNQFE3,306996CF7Z0Y3F4KVQ7DFLTE4FJB13,34V1S5K3GWHD8ROETEA08VLSI2V69I,4,3
136,4,object_06,object_01,674.08499994781,7,2,300.70999998134,1.0,1,object_09,1,1359,0,9,5,restaurant_1,1,memory-2step-stake-s,636,2589913,0.0-19.0-0.1-0.136,A3TDA1NWHNQFE3,306996CF7Z0Y3F4KVQ7DFLTE4FJB13,34V1S5K3GWHD8ROETEA08VLSI2V69I,8,7
137,2,object_04,object_07,1128.0849999748,4,2,264.09499999136,0.8888888888888888,2,object_10,1,1367,0,8,8,forest_6,1,memory-2step-stake-s,637,2598212,0.0-19.0-0.1-0.137,A3TDA1NWHNQFE3,306996CF7Z0Y3F4KVQ7DFLTE4FJB13,34V1S5K3GWHD8ROETEA08VLSI2V69I,3,4
138,1,object_05,object_08,815.79000002239,2,1,349.06999999657,0.7777777777777778,2,object_10,1,1374,0,8,7,desert_8,1,memory-2step-stake-s,638,2606507,0.0-19.0-0.1-0.138,A3TDA1NWHNQFE3,306996CF7Z0Y3F4KVQ7DFLTE4FJB13,34V1S5K3GWHD8ROETEA08VLSI2V69I,2,1
139,1,object_08,object_05,621.91500002518,2,2,491.80000007618,0.7777777777777778,2,object_10,1,1381,0,4,7,desert_6,1,memory-2step-stake-s,639,2614936,0.0-19.0-0.1-0.139,A3TDA1NWHNQFE3,306996CF7Z0Y3F4KVQ7DFLTE4FJB13,34V1S5K3GWHD8ROETEA08VLSI2V69I,1,2
140,1,object_05,object_08,1068.1300000288,1,2,262.32499990147,0.4444444444444444,1,object_09,5,1401,0,4,6,desert_6,1,memory-2step-stake-s,640,2622840,0.0-19.0-0.1-0.140,A3TDA1NWHNQFE3,306996CF7Z0Y3F4KVQ7DFLTE4FJB13,34V1S5K3GWHD8ROETEA08VLSI2V69I,2,1
141,3,object_03,object_02,959.13500001188,5,2,249.02000010479,0.3333333333333333,1,object_09,5,1416,0,3,4,library_3,1,memory-2step-stake-s,641,2630619,0.0-19.0-0.1-0.141,A3TDA1NWHNQFE3,306996CF7Z0Y3F4KVQ7DFLTE4FJB13,34V1S5K3GWHD8ROETEA08VLSI2V69I,6,5
142,3,object_03,object_02,581.61999995355,6,1,433.94499993883,0.6666666666666666,2,object_10,5,1446,0,4,6,library_7,1,memory-2step-stake-s,642,2638891,0.0-19.0-0.1-0.142,A3TDA1NWHNQFE3,306996CF7Z0Y3F4KVQ7DFLTE4FJB13,34V1S5K3GWHD8ROETEA08VLSI2V69I,6,5
143,4,object_01,object_06,669.7100000456,7,1,450.70499996655,0.5555555555555556,1,object_09,5,1471,0,5,8,restaurant_4,1,memory-2step-stake-s,643,2647076,0.0-19.0-0.1-0.143,A3TDA1NWHNQFE3,306996CF7Z0Y3F4KVQ7DFLTE4FJB13,34V1S5K3GWHD8ROETEA08VLSI2V69I,7,8
144,3,object_02,object_03,650.28499998152,6,2,457.15499995276,0.6666666666666666,2,object_10,5,1501,0,7,6,library_2,1,memory-2step-stake-s,644,2655372,0.0-19.0-0.1-0.144,A3TDA1NWHNQFE3,306996CF7Z0Y3F4KVQ7DFLTE4FJB13,34V1S5K3GWHD8ROETEA08VLSI2V69I,5,6
145,2,object_07,object_04,703.51999998093,4,1,424.65500009712,0.3333333333333333,2,object_10,1,1504,0,7,3,forest_2,1,memory-2step-stake-s,645,2663327,0.0-19.0-0.1-0.145,A3TDA1NWHNQFE3,306996CF7Z0Y3F4KVQ7DFLTE4FJB13,34V1S5K3GWHD8ROETEA08VLSI2V69I,4,3
146,2,object_07,object_04,544.88000005949,3,2,333.8399999775,0.8888888888888888,1,object_09,1,1512,0,8,1,forest_2,1,memory-2step-stake-s,646,2671707,0.0-19.0-0.1-0.146,A3TDA1NWHNQFE3,306996CF7Z0Y3F4KVQ7DFLTE4FJB13,34V1S5K3GWHD8ROETEA08VLSI2V69I,4,3
147,2,object_07,object_04,837.6350000035,3,2,711.56500000507,0.8888888888888888,1,object_09,5,1552,0,8,2,forest_6,1,memory-2step-stake-s,647,2680462,0.0-19.0-0.1-0.147,A3TDA1NWHNQFE3,306996CF7Z0Y3F4KVQ7DFLTE4FJB13,34V1S5K3GWHD8ROETEA08VLSI2V69I,4,3
148,1,object_05,object_08,921.60000000149,2,1,461.79000008851,0.4444444444444444,2,object_10,1,1556,0,9,4,desert_6,1,memory-2step-stake-s,648,2688562,0.0-19.0-0.1-0.148,A3TDA1NWHNQFE3,306996CF7Z0Y3F4KVQ7DFLTE4FJB13,34V1S5K3GWHD8ROETEA08VLSI2V69I,2,1
149,2,object_04,object_07,798.91000001226,3,1,397.65499997884,0.5555555555555556,1,object_09,1,1561,0,5,8,forest_5,1,memory-2step-stake-s,649,2696708,0.0-19.0-0.1-0.149,A3TDA1NWHNQFE3,306996CF7Z0Y3F4KVQ7DFLTE4FJB13,34V1S5K3GWHD8ROETEA08VLSI2V69I,3,4
150,2,object_07,object_04,909.68000004068,3,2,299.49499992654,0.3333333333333333,1,object_09,1,1564,0,3,7,forest_5,1,memory-2step-stake-s,650,2704545,0.0-19.0-0.1-0.150,A3TDA1NWHNQFE3,306996CF7Z0Y3F4KVQ7DFLTE4FJB13,34V1S5K3GWHD8ROETEA08VLSI2V69I,4,3
151,3,object_02,object_03,699.0250000963,5,1,241.11000006087,0.1111111111111111,1,object_09,5,1569,0,1,7,library_2,1,memory-2step-stake-s,651,2712115,0.0-19.0-0.1-0.151,A3TDA1NWHNQFE3,306996CF7Z0Y3F4KVQ7DFLTE4FJB13,34V1S5K3GWHD8ROETEA08VLSI2V69I,5,6
152,3,object_02,object_03,782.66000002623,6,2,252.79499997851,0.6666666666666666,2,object_10,5,1599,0,2,6,library_6,1,memory-2step-stake-s,652,2720218,0.0-19.0-0.1-0.152,A3TDA1NWHNQFE3,306996CF7Z0Y3F4KVQ7DFLTE4FJB13,34V1S5K3GWHD8ROETEA08VLSI2V69I,5,6
153,3,object_03,object_02,769.35499999672,6,1,320.01500006299,0.8888888888888888,2,object_10,5,1639,0,2,8,library_3,1,memory-2step-stake-s,653,2728591,0.0-19.0-0.1-0.153,A3TDA1NWHNQFE3,306996CF7Z0Y3F4KVQ7DFLTE4FJB13,34V1S5K3GWHD8ROETEA08VLSI2V69I,6,5
154,4,object_01,object_06,681.87500000931,8,2,416.10000003129,0.7777777777777778,2,object_10,5,1674,0,2,7,restaurant_1,1,memory-2step-stake-s,654,2736956,0.0-19.0-0.1-0.154,A3TDA1NWHNQFE3,306996CF7Z0Y3F4KVQ7DFLTE4FJB13,34V1S5K3GWHD8ROETEA08VLSI2V69I,7,8
155,1,object_08,object_05,905.52999998908,2,2,521.04999998119,0.5555555555555556,2,object_10,5,1699,0,4,5,desert_6,1,memory-2step-stake-s,655,2745216,0.0-19.0-0.1-0.155,A3TDA1NWHNQFE3,306996CF7Z0Y3F4KVQ7DFLTE4FJB13,34V1S5K3GWHD8ROETEA08VLSI2V69I,1,2
156,2,object_04,object_07,1185.2700000163,4,2,451.3900000602,0.3333333333333333,2,object_10,5,1714,0,7,3,forest_7,1,memory-2step-stake-s,656,2753195,0.0-19.0-0.1-0.156,A3TDA1NWHNQFE3,306996CF7Z0Y3F4KVQ7DFLTE4FJB13,34V1S5K3GWHD8ROETEA08VLSI2V69I,3,4
157,1,object_08,object_05,824.00499994401,2,2,1271.6050000163,0.5555555555555556,2,object_10,1,1719,0,7,5,desert_1,1,memory-2step-stake-s,657,2762196,0.0-19.0-0.1-0.157,A3TDA1NWHNQFE3,306996CF7Z0Y3F4KVQ7DFLTE4FJB13,34V1S5K3GWHD8ROETEA08VLSI2V69I,1,2
158,3,object_03,object_02,1317.8899999475,6,1,549.46000000928,0.5555555555555556,2,object_10,5,1744,0,5,5,library_6,1,memory-2step-stake-s,658,2770485,0.0-19.0-0.1-0.158,A3TDA1NWHNQFE3,306996CF7Z0Y3F4KVQ7DFLTE4FJB13,34V1S5K3GWHD8ROETEA08VLSI2V69I,6,5
159,1,object_05,object_08,812.85500002559,2,1,339.64000002015,0.1111111111111111,2,object_10,1,1745,0,7,1,desert_6,1,memory-2step-stake-s,659,2778154,0.0-19.0-0.1-0.159,A3TDA1NWHNQFE3,306996CF7Z0Y3F4KVQ7DFLTE4FJB13,34V1S5K3GWHD8ROETEA08VLSI2V69I,2,1
160,1,object_08,object_05,711.0049999319,2,2,232.63500002213,0.2222222222222222,2,object_10,1,1747,0,7,2,desert_5,1,memory-2step-stake-s,660,2785809,0.0-19.0-0.1-0.160,A3TDA1NWHNQFE3,306996CF7Z0Y3F4KVQ7DFLTE4FJB13,34V1S5K3GWHD8ROETEA08VLSI2V69I,1,2
161,1,object_05,object_08,663.02499989979,2,1,342.43999992032,0.5555555555555556,2,object_10,1,1752,0,7,5,desert_8,1,memory-2step-stake-s,661,2793889,0.0-19.0-0.1-0.161,A3TDA1NWHNQFE3,306996CF7Z0Y3F4KVQ7DFLTE4FJB13,34V1S5K3GWHD8ROETEA08VLSI2V69I,2,1
162,4,object_06,object_01,1199.6900000377,8,1,415.30499991495,0.4444444444444444,2,object_10,5,1772,0,8,4,restaurant_6,1,memory-2step-stake-s,662,2801943,0.0-19.0-0.1-0.162,A3TDA1NWHNQFE3,306996CF7Z0Y3F4KVQ7DFLTE4FJB13,34V1S5K3GWHD8ROETEA08VLSI2V69I,8,7
163,1,object_08,object_05,798.24000003282,2,2,279.67499999795,0.2222222222222222,2,object_10,1,1774,0,7,2,desert_6,1,memory-2step-stake-s,663,2809654,0.0-19.0-0.1-0.163,A3TDA1NWHNQFE3,306996CF7Z0Y3F4KVQ7DFLTE4FJB13,34V1S5K3GWHD8ROETEA08VLSI2V69I,1,2
164,2,object_04,object_07,1242.0000000857,3,1,312.50999995973,0.6666666666666666,1,object_09,5,1804,0,6,0,forest_6,1,memory-2step-stake-s,664,2817801,0.0-19.0-0.1-0.164,A3TDA1NWHNQFE3,306996CF7Z0Y3F4KVQ7DFLTE4FJB13,34V1S5K3GWHD8ROETEA08VLSI2V69I,3,4
165,3,object_02,object_03,976.65999992751,5,1,342.85000001546,0.5555555555555556,1,object_09,1,1809,0,5,2,library_3,1,memory-2step-stake-s,665,2825886,0.0-19.0-0.1-0.165,A3TDA1NWHNQFE3,306996CF7Z0Y3F4KVQ7DFLTE4FJB13,34V1S5K3GWHD8ROETEA08VLSI2V69I,5,6
166,1,object_05,object_08,830.14999993611,1,2,356.90000001341,0.3333333333333333,1,object_09,1,1812,0,3,4,desert_6,1,memory-2step-stake-s,666,2833765,0.0-19.0-0.1-0.166,A3TDA1NWHNQFE3,306996CF7Z0Y3F4KVQ7DFLTE4FJB13,34V1S5K3GWHD8ROETEA08VLSI2V69I,2,1
167,3,object_02,object_03,1109.6400000388,5,1,250.53499999922,0.4444444444444444,1,object_09,1,1816,0,4,5,library_3,1,memory-2step-stake-s,667,2841649,0.0-19.0-0.1-0.167,A3TDA1NWHNQFE3,306996CF7Z0Y3F4KVQ7DFLTE4FJB13,34V1S5K3GWHD8ROETEA08VLSI2V69I,5,6
168,2,object_07,object_04,853.77000004519,4,1,296.6899999883,0.7777777777777778,2,object_10,1,1823,0,0,7,forest_7,1,memory-2step-stake-s,668,2849894,0.0-19.0-0.1-0.168,A3TDA1NWHNQFE3,306996CF7Z0Y3F4KVQ7DFLTE4FJB13,34V1S5K3GWHD8ROETEA08VLSI2V69I,4,3
169,1,object_05,object_08,1001.0550000006,2,1,370.31000002753,1.0,2,object_10,1,1832,0,2,9,desert_8,1,memory-2step-stake-s,669,2858420,0.0-19.0-0.1-0.169,A3TDA1NWHNQFE3,306996CF7Z0Y3F4KVQ7DFLTE4FJB13,34V1S5K3GWHD8ROETEA08VLSI2V69I,2,1
170,3,object_03,object_02,764.28000000305,6,1,359.92999991868,0.8888888888888888,2,object_10,5,1872,0,1,8,library_7,1,memory-2step-stake-s,670,2866834,0.0-19.0-0.1-0.170,A3TDA1NWHNQFE3,306996CF7Z0Y3F4KVQ7DFLTE4FJB13,34V1S5K3GWHD8ROETEA08VLSI2V69I,6,5
171,4,object_06,object_01,954.73500003573,7,2,368.62500000279,0.1111111111111111,1,object_09,1,1873,0,1,8,restaurant_1,1,memory-2step-stake-s,671,2874541,0.0-19.0-0.1-0.171,A3TDA1NWHNQFE3,306996CF7Z0Y3F4KVQ7DFLTE4FJB13,34V1S5K3GWHD8ROETEA08VLSI2V69I,8,7
172,2,object_04,object_07,731.33499990217,3,1,278.56999996584,0.2222222222222222,1,object_09,1,1875,0,2,9,forest_5,1,memory-2step-stake-s,672,2882249,0.0-19.0-0.1-0.172,A3TDA1NWHNQFE3,306996CF7Z0Y3F4KVQ7DFLTE4FJB13,34V1S5K3GWHD8ROETEA08VLSI2V69I,3,4
173,4,object_06,object_01,785.83500010427,7,2,373.39500000235,0.2222222222222222,1,object_09,5,1885,0,2,8,restaurant_1,1,memory-2step-stake-s,673,2890052,0.0-19.0-0.1-0.173,A3TDA1NWHNQFE3,306996CF7Z0Y3F4KVQ7DFLTE4FJB13,34V1S5K3GWHD8ROETEA08VLSI2V69I,8,7
174,4,object_01,object_06,855.02500005532,8,2,256.11999991816,0.6666666666666666,2,object_10,5,1915,0,4,6,restaurant_4,1,memory-2step-stake-s,674,2898171,0.0-19.0-0.1-0.174,A3TDA1NWHNQFE3,306996CF7Z0Y3F4KVQ7DFLTE4FJB13,34V1S5K3GWHD8ROETEA08VLSI2V69I,7,8
175,4,object_06,object_01,1042.0550000854,8,1,384.6800000174,0.7777777777777778,2,object_10,5,1950,0,6,7,restaurant_4,1,memory-2step-stake-s,675,2906499,0.0-19.0-0.1-0.175,A3TDA1NWHNQFE3,306996CF7Z0Y3F4KVQ7DFLTE4FJB13,34V1S5K3GWHD8ROETEA08VLSI2V69I,8,7
176,1,object_08,object_05,803.53999999352,2,2,267.30999990832,0.8888888888888888,2,object_10,5,1990,0,5,8,desert_8,1,memory-2step-stake-s,676,2914807,0.0-19.0-0.1-0.176,A3TDA1NWHNQFE3,306996CF7Z0Y3F4KVQ7DFLTE4FJB13,34V1S5K3GWHD8ROETEA08VLSI2V69I,1,2
177,3,object_03,object_02,1009.5800000709,6,1,226.30500001833,0.8888888888888888,2,object_10,1,1998,0,7,8,library_6,1,memory-2step-stake-s,677,2923075,0.0-19.0-0.1-0.177,A3TDA1NWHNQFE3,306996CF7Z0Y3F4KVQ7DFLTE4FJB13,34V1S5K3GWHD8ROETEA08VLSI2V69I,6,5
178,2,object_07,object_04,905.38000001106,3,2,372.2500000149,0.7777777777777778,1,object_09,1,2005,0,7,6,forest_7,1,memory-2step-stake-s,678,2931388,0.0-19.0-0.1-0.178,A3TDA1NWHNQFE3,306996CF7Z0Y3F4KVQ7DFLTE4FJB13,34V1S5K3GWHD8ROETEA08VLSI2V69I,4,3
179,4,object_06,object_01,767.27499999106,7,2,337.50000002328,0.7777777777777778,1,object_09,5,2040,0,7,6,restaurant_6,1,memory-2step-stake-s,679,2939676,0.0-19.0-0.1-0.179,A3TDA1NWHNQFE3,306996CF7Z0Y3F4KVQ7DFLTE4FJB13,34V1S5K3GWHD8ROETEA08VLSI2V69I,8,7
180,3,object_02,object_03,1019.164999947,6,2,317.96000001486,0.8888888888888888,2,object_10,5,2080,0,5,8,library_6,1,memory-2step-stake-s,680,2948040,0.0-19.0-0.1-0.180,A3TDA1NWHNQFE3,306996CF7Z0Y3F4KVQ7DFLTE4FJB13,34V1S5K3GWHD8ROETEA08VLSI2V69I,5,6
181,1,object_05,object_08,982.02999995556,2,1,246.18499993812,0.8888888888888888,2,object_10,1,2088,0,7,8,desert_8,1,memory-2step-stake-s,681,2956333,0.0-19.0-0.1-0.181,A3TDA1NWHNQFE3,306996CF7Z0Y3F4KVQ7DFLTE4FJB13,34V1S5K3GWHD8ROETEA08VLSI2V69I,2,1
182,3,object_02,object_03,657.33000007458,6,2,329.46500007529,0.8888888888888888,2,object_10,5,2128,0,5,8,library_7,1,memory-2step-stake-s,682,2964713,0.0-19.0-0.1-0.182,A3TDA1NWHNQFE3,306996CF7Z0Y3F4KVQ7DFLTE4FJB13,34V1S5K3GWHD8ROETEA08VLSI2V69I,5,6
183,4,object_06,object_01,752.86000000779,7,2,351.80000006221,0.6666666666666666,1,object_09,5,2158,0,6,3,restaurant_8,1,memory-2step-stake-s,683,2972902,0.0-19.0-0.1-0.183,A3TDA1NWHNQFE3,306996CF7Z0Y3F4KVQ7DFLTE4FJB13,34V1S5K3GWHD8ROETEA08VLSI2V69I,8,7
184,3,object_02,object_03,822.04999995884,6,2,265.63499995973,0.0,2,object_10,5,2158,0,4,0,library_3,1,memory-2step-stake-s,684,2980388,0.0-19.0-0.1-0.184,A3TDA1NWHNQFE3,306996CF7Z0Y3F4KVQ7DFLTE4FJB13,34V1S5K3GWHD8ROETEA08VLSI2V69I,5,6
185,3,object_02,object_03,748.39500000235,5,1,303.24999999721,0.7777777777777778,1,object_09,1,2165,0,7,1,library_6,1,memory-2step-stake-s,685,2988629,0.0-19.0-0.1-0.185,A3TDA1NWHNQFE3,306996CF7Z0Y3F4KVQ7DFLTE4FJB13,34V1S5K3GWHD8ROETEA08VLSI2V69I,5,6
186,3,object_03,object_02,789.86500005703,6,1,12.935000006109,0.2222222222222222,2,object_10,5,2175,0,7,2,library_3,1,memory-2step-stake-s,686,2996073,0.0-19.0-0.1-0.186,A3TDA1NWHNQFE3,306996CF7Z0Y3F4KVQ7DFLTE4FJB13,34V1S5K3GWHD8ROETEA08VLSI2V69I,6,5
187,3,object_03,object_02,708.51000002585,5,2,259.15999989957,0.7777777777777778,1,object_09,5,2210,0,7,4,library_2,1,memory-2step-stake-s,687,3004274,0.0-19.0-0.1-0.187,A3TDA1NWHNQFE3,306996CF7Z0Y3F4KVQ7DFLTE4FJB13,34V1S5K3GWHD8ROETEA08VLSI2V69I,6,5
188,1,object_05,object_08,716.19500010274,1,2,270.62999992631,1.0,1,object_09,1,2219,0,9,6,desert_1,1,memory-2step-stake-s,688,3012688,0.0-19.0-0.1-0.188,A3TDA1NWHNQFE3,306996CF7Z0Y3F4KVQ7DFLTE4FJB13,34V1S5K3GWHD8ROETEA08VLSI2V69I,2,1
189,4,object_01,object_06,746.69000005815,8,2,428.0049999943,0.2222222222222222,2,object_10,5,2229,0,8,2,restaurant_1,1,memory-2step-stake-s,689,3020540,0.0-19.0-0.1-0.189,A3TDA1NWHNQFE3,306996CF7Z0Y3F4KVQ7DFLTE4FJB13,34V1S5K3GWHD8ROETEA08VLSI2V69I,7,8
190,4,object_06,object_01,1115.540000028,8,1,377.29500001296,0.0,2,object_10,1,2229,0,5,0,restaurant_8,1,memory-2step-stake-s,690,3028140,0.0-19.0-0.1-0.190,A3TDA1NWHNQFE3,306996CF7Z0Y3F4KVQ7DFLTE4FJB13,34V1S5K3GWHD8ROETEA08VLSI2V69I,8,7
191,2,object_04,object_07,719.96000001673,4,2,440.60500001069,0.2222222222222222,2,object_10,5,2239,0,5,2,forest_6,1,memory-2step-stake-s,691,3036013,0.0-19.0-0.1-0.191,A3TDA1NWHNQFE3,306996CF7Z0Y3F4KVQ7DFLTE4FJB13,34V1S5K3GWHD8ROETEA08VLSI2V69I,3,4
192,2,object_07,object_04,880.77499996871,3,2,218.21500000078,0.5555555555555556,1,object_09,1,2244,0,5,2,forest_6,1,memory-2step-stake-s,692,3043970,0.0-19.0-0.1-0.192,A3TDA1NWHNQFE3,306996CF7Z0Y3F4KVQ7DFLTE4FJB13,34V1S5K3GWHD8ROETEA08VLSI2V69I,4,3
193,1,object_08,object_05,765.36499999929,1,1,291.75999993458,0.6666666666666666,1,object_09,1,2250,0,6,2,desert_5,1,memory-2step-stake-s,693,3052110,0.0-19.0-0.1-0.193,A3TDA1NWHNQFE3,306996CF7Z0Y3F4KVQ7DFLTE4FJB13,34V1S5K3GWHD8ROETEA08VLSI2V69I,1,2
194,1,object_08,object_05,760.30500000343,1,1,305.59000000358,0.8888888888888888,1,object_09,5,2290,0,8,3,desert_5,1,memory-2step-stake-s,694,3060453,0.0-19.0-0.1-0.194,A3TDA1NWHNQFE3,306996CF7Z0Y3F4KVQ7DFLTE4FJB13,34V1S5K3GWHD8ROETEA08VLSI2V69I,1,2
195,3,object_03,object_02,609.58499996923,5,2,284.02499994263,0.7777777777777778,1,object_09,5,2325,0,7,1,library_6,1,memory-2step-stake-s,695,3068672,0.0-19.0-0.1-0.195,A3TDA1NWHNQFE3,306996CF7Z0Y3F4KVQ7DFLTE4FJB13,34V1S5K3GWHD8ROETEA08VLSI2V69I,6,5
196,2,object_07,object_04,1100.2299999818,3,2,598.4799999278,0.7777777777777778,1,object_09,1,2332,0,7,1,forest_5,1,memory-2step-stake-s,696,3077217,0.0-19.0-0.1-0.196,A3TDA1NWHNQFE3,306996CF7Z0Y3F4KVQ7DFLTE4FJB13,34V1S5K3GWHD8ROETEA08VLSI2V69I,4,3
197,3,object_02,object_03,689.27999993321,5,1,438.58499999624,0.4444444444444444,1,object_09,5,2352,0,4,1,library_2,1,memory-2step-stake-s,697,3085294,0.0-19.0-0.1-0.197,A3TDA1NWHNQFE3,306996CF7Z0Y3F4KVQ7DFLTE4FJB13,34V1S5K3GWHD8ROETEA08VLSI2V69I,5,6
198,4,object_06,object_01,1103.8200000767,7,2,527.60499995202,0.3333333333333333,1,object_09,5,2367,0,3,2,restaurant_8,1,memory-2step-stake-s,698,3093353,0.0-19.0-0.1-0.198,A3TDA1NWHNQFE3,306996CF7Z0Y3F4KVQ7DFLTE4FJB13,34V1S5K3GWHD8ROETEA08VLSI2V69I,8,7
199,2,object_04,object_07,927.78000002727,4,2,390.89000003878,0.1111111111111111,2,object_10,1,2368,0,3,1,forest_2,1,memory-2step-stake-s,699,3101070,0.0-19.0-0.1-0.199,A3TDA1NWHNQFE3,306996CF7Z0Y3F4KVQ7DFLTE4FJB13,34V1S5K3GWHD8ROETEA08VLSI2V69I,3,4
200,2,object_04,object_07,821.80500007235,4,2,420.6299999496,0.3333333333333333,2,object_10,1,2371,0,1,3,forest_2,1,memory-2step-stake-s,700,3109028,0.0-19.0-0.1-0.200,A3TDA1NWHNQFE3,306996CF7Z0Y3F4KVQ7DFLTE4FJB13,34V1S5K3GWHD8ROETEA08VLSI2V69I,3,4
201,4,object_01,object_06,761.73499994911,8,2,407.37000002991,0.5555555555555556,2,object_10,5,2396,0,1,5,restaurant_6,1,memory-2step-stake-s,701,3117170,0.0-19.0-0.1-0.201,A3TDA1NWHNQFE3,306996CF7Z0Y3F4KVQ7DFLTE4FJB13,34V1S5K3GWHD8ROETEA08VLSI2V69I,7,8
202,1,object_08,object_05,879.7950000735,2,2,298.56000002474,0.3333333333333333,2,object_10,5,2411,0,1,3,desert_5,1,memory-2step-stake-s,702,3124998,0.0-19.0-0.1-0.202,A3TDA1NWHNQFE3,306996CF7Z0Y3F4KVQ7DFLTE4FJB13,34V1S5K3GWHD8ROETEA08VLSI2V69I,1,2
203,4,object_06,object_01,977.67499997281,7,2,383.96000000648,0.1111111111111111,1,object_09,5,2416,0,1,4,restaurant_6,1,memory-2step-stake-s,703,3132709,0.0-19.0-0.1-0.203,A3TDA1NWHNQFE3,306996CF7Z0Y3F4KVQ7DFLTE4FJB13,34V1S5K3GWHD8ROETEA08VLSI2V69I,8,7
204,1,object_05,object_08,731.29999998491,2,1,256.76500005648,0.3333333333333333,2,object_10,5,2431,0,0,3,desert_1,1,memory-2step-stake-s,704,3140497,0.0-19.0-0.1-0.204,A3TDA1NWHNQFE3,306996CF7Z0Y3F4KVQ7DFLTE4FJB13,34V1S5K3GWHD8ROETEA08VLSI2V69I,2,1
205,2,object_07,object_04,730.63499992713,3,2,325.13500005007,0.1111111111111111,1,object_09,1,2432,0,1,3,forest_2,1,memory-2step-stake-s,705,3148160,0.0-19.0-0.1-0.205,A3TDA1NWHNQFE3,306996CF7Z0Y3F4KVQ7DFLTE4FJB13,34V1S5K3GWHD8ROETEA08VLSI2V69I,4,3
206,2,object_04,object_07,775.335000013,3,1,249.04999998398,0.1111111111111111,1,object_09,1,2433,0,1,5,forest_2,1,memory-2step-stake-s,706,3155737,0.0-19.0-0.1-0.206,A3TDA1NWHNQFE3,306996CF7Z0Y3F4KVQ7DFLTE4FJB13,34V1S5K3GWHD8ROETEA08VLSI2V69I,3,4
207,4,object_01,object_06,1028.1749999849,8,2,418.21499995422,0.3333333333333333,2,object_10,5,2448,0,1,3,restaurant_6,1,memory-2step-stake-s,707,3163684,0.0-19.0-0.1-0.207,A3TDA1NWHNQFE3,306996CF7Z0Y3F4KVQ7DFLTE4FJB13,34V1S5K3GWHD8ROETEA08VLSI2V69I,7,8
208,4,object_06,object_01,686.97499996051,8,1,292.93999995571,0.3333333333333333,2,object_10,5,2463,0,0,3,restaurant_8,1,memory-2step-stake-s,708,3171521,0.0-19.0-0.1-0.208,A3TDA1NWHNQFE3,306996CF7Z0Y3F4KVQ7DFLTE4FJB13,34V1S5K3GWHD8ROETEA08VLSI2V69I,8,7
209,2,object_07,object_04,951.37999998406,3,2,392.17500004452,0.1111111111111111,1,object_09,1,2464,0,1,5,forest_7,1,memory-2step-stake-s,709,3179237,0.0-19.0-0.1-0.209,A3TDA1NWHNQFE3,306996CF7Z0Y3F4KVQ7DFLTE4FJB13,34V1S5K3GWHD8ROETEA08VLSI2V69I,4,3
210,2,object_07,object_04,654.31999997236,4,1,357.46500000823,0.6666666666666666,2,object_10,1,2470,0,0,6,forest_6,1,memory-2step-stake-s,710,3187427,0.0-19.0-0.1-0.210,A3TDA1NWHNQFE3,306996CF7Z0Y3F4KVQ7DFLTE4FJB13,34V1S5K3GWHD8ROETEA08VLSI2V69I,4,3
211,4,object_01,object_06,808.72499989346,8,2,362.97500005458,0.8888888888888888,2,object_10,5,2510,0,6,8,restaurant_4,1,memory-2step-stake-s,711,3195836,0.0-19.0-0.1-0.211,A3TDA1NWHNQFE3,306996CF7Z0Y3F4KVQ7DFLTE4FJB13,34V1S5K3GWHD8ROETEA08VLSI2V69I,7,8
212,3,object_03,object_02,1034.6150000114,6,1,276.49000007659,0.6666666666666666,2,object_10,5,2540,0,5,6,library_6,1,memory-2step-stake-s,712,3203953,0.0-19.0-0.1-0.212,A3TDA1NWHNQFE3,306996CF7Z0Y3F4KVQ7DFLTE4FJB13,34V1S5K3GWHD8ROETEA08VLSI2V69I,6,5
213,2,object_07,object_04,1007.0999999298,3,2,277.07000006922,0.6666666666666666,1,object_09,5,2570,0,6,9,forest_6,1,memory-2step-stake-s,713,3212065,0.0-19.0-0.1-0.213,A3TDA1NWHNQFE3,306996CF7Z0Y3F4KVQ7DFLTE4FJB13,34V1S5K3GWHD8ROETEA08VLSI2V69I,4,3
214,4,object_06,object_01,811.48999999277,7,2,278.96499994677,0.8888888888888888,1,object_09,5,2610,0,8,8,restaurant_8,1,memory-2step-stake-s,714,3220402,0.0-19.0-0.1-0.214,A3TDA1NWHNQFE3,306996CF7Z0Y3F4KVQ7DFLTE4FJB13,34V1S5K3GWHD8ROETEA08VLSI2V69I,8,7
215,2,object_07,object_04,902.57999999449,3,2,264.45000001695,0.8888888888888888,1,object_09,1,2618,0,8,4,forest_2,1,memory-2step-stake-s,715,3228709,0.0-19.0-0.1-0.215,A3TDA1NWHNQFE3,306996CF7Z0Y3F4KVQ7DFLTE4FJB13,34V1S5K3GWHD8ROETEA08VLSI2V69I,4,3
216,4,object_06,object_01,1197.4399999017,8,1,259.2949999962,0.1111111111111111,2,object_10,5,2623,0,7,1,restaurant_4,1,memory-2step-stake-s,716,3236293,0.0-19.0-0.1-0.216,A3TDA1NWHNQFE3,306996CF7Z0Y3F4KVQ7DFLTE4FJB13,34V1S5K3GWHD8ROETEA08VLSI2V69I,8,7
217,1,object_05,object_08,879.8699999461,2,1,384.50499996543,0.0,2,object_10,1,2623,0,9,0,desert_5,1,memory-2step-stake-s,717,3243911,0.0-19.0-0.1-0.217,A3TDA1NWHNQFE3,306996CF7Z0Y3F4KVQ7DFLTE4FJB13,34V1S5K3GWHD8ROETEA08VLSI2V69I,2,1
218,2,object_04,object_07,967.13000000454,4,2,456.04499999899,0.2222222222222222,2,object_10,1,2625,0,9,2,forest_5,1,memory-2step-stake-s,718,3251786,0.0-19.0-0.1-0.218,A3TDA1NWHNQFE3,306996CF7Z0Y3F4KVQ7DFLTE4FJB13,34V1S5K3GWHD8ROETEA08VLSI2V69I,3,4
219,4,object_06,object_01,800.04499992356,7,2,359.30000001099,0.6666666666666666,1,object_09,5,2655,0,6,1,restaurant_4,1,memory-2step-stake-s,719,3259980,0.0-19.0-0.1-0.219,A3TDA1NWHNQFE3,306996CF7Z0Y3F4KVQ7DFLTE4FJB13,34V1S5K3GWHD8ROETEA08VLSI2V69I,8,7
220,4,object_01,object_06,488.30500000622,7,1,326.55500003602,0.3333333333333333,1,object_09,5,2670,0,3,1,restaurant_8,1,memory-2step-stake-s,720,3267842,0.0-19.0-0.1-0.220,A3TDA1NWHNQFE3,306996CF7Z0Y3F4KVQ7DFLTE4FJB13,34V1S5K3GWHD8ROETEA08VLSI2V69I,7,8
221,3,object_03,object_02,918.78499998711,6,1,287.03999996651,0.2222222222222222,2,object_10,5,2680,0,4,2,library_3,1,memory-2step-stake-s,721,3275557,0.0-19.0-0.1-0.221,A3TDA1NWHNQFE3,306996CF7Z0Y3F4KVQ7DFLTE4FJB13,34V1S5K3GWHD8ROETEA08VLSI2V69I,6,5
222,1,object_05,object_08,862.61000006925,1,2,409.12500000559,0.3333333333333333,1,object_09,1,2683,0,3,4,desert_5,1,memory-2step-stake-s,722,3283492,0.0-19.0-0.1-0.222,A3TDA1NWHNQFE3,306996CF7Z0Y3F4KVQ7DFLTE4FJB13,34V1S5K3GWHD8ROETEA08VLSI2V69I,2,1
223,2,object_07,object_04,654.54499993939,4,1,244.75000007078,0.6666666666666666,2,object_10,1,2689,0,4,6,forest_6,1,memory-2step-stake-s,723,3291569,0.0-19.0-0.1-0.223,A3TDA1NWHNQFE3,306996CF7Z0Y3F4KVQ7DFLTE4FJB13,34V1S5K3GWHD8ROETEA08VLSI2V69I,4,3
224,1,object_05,object_08,941.18500000332,2,1,274.62500007823,0.8888888888888888,2,object_10,1,2697,0,2,8,desert_1,1,memory-2step-stake-s,724,3299892,0.0-19.0-0.1-0.224,A3TDA1NWHNQFE3,306996CF7Z0Y3F4KVQ7DFLTE4FJB13,34V1S5K3GWHD8ROETEA08VLSI2V69I,2,1
225,4,object_06,object_01,1077.7799999341,7,2,260.6950000627,0.4444444444444444,1,object_09,5,2717,0,4,6,restaurant_6,1,memory-2step-stake-s,725,3307786,0.0-19.0-0.1-0.225,A3TDA1NWHNQFE3,306996CF7Z0Y3F4KVQ7DFLTE4FJB13,34V1S5K3GWHD8ROETEA08VLSI2V69I,8,7
226,3,object_03,object_02,1020.2800000552,6,1,243.41999995522,0.8888888888888888,2,object_10,5,2757,0,5,8,library_2,1,memory-2step-stake-s,726,3316077,0.0-19.0-0.1-0.226,A3TDA1NWHNQFE3,306996CF7Z0Y3F4KVQ7DFLTE4FJB13,34V1S5K3GWHD8ROETEA08VLSI2V69I,6,5
227,3,object_03,object_02,758.17499996629,6,1,436.45000003744,1.0,2,object_10,5,2802,0,3,9,library_7,1,memory-2step-stake-s,727,3324664,0.0-19.0-0.1-0.227,A3TDA1NWHNQFE3,306996CF7Z0Y3F4KVQ7DFLTE4FJB13,34V1S5K3GWHD8ROETEA08VLSI2V69I,6,5
228,3,object_02,object_03,763.87999998406,6,2,232.45000001043,0.8888888888888888,2,object_10,5,2842,0,4,8,library_3,1,memory-2step-stake-s,728,3332943,0.0-19.0-0.1-0.228,A3TDA1NWHNQFE3,306996CF7Z0Y3F4KVQ7DFLTE4FJB13,34V1S5K3GWHD8ROETEA08VLSI2V69I,5,6
229,2,object_07,object_04,644.34999995865,3,2,315.46000007074,0.3333333333333333,1,object_09,1,2845,0,3,4,forest_2,1,memory-2step-stake-s,729,3340788,0.0-19.0-0.1-0.229,A3TDA1NWHNQFE3,306996CF7Z0Y3F4KVQ7DFLTE4FJB13,34V1S5K3GWHD8ROETEA08VLSI2V69I,4,3
230,4,object_01,object_06,643.50499992725,7,1,384.78000008035,0.4444444444444444,1,object_09,5,2865,0,4,2,restaurant_6,1,memory-2step-stake-s,730,3348810,0.0-19.0-0.1-0.230,A3TDA1NWHNQFE3,306996CF7Z0Y3F4KVQ7DFLTE4FJB13,34V1S5K3GWHD8ROETEA08VLSI2V69I,7,8
231,4,object_01,object_06,754.02499991469,8,2,277.45500009041,0.3333333333333333,2,object_10,5,2880,0,0,3,restaurant_6,1,memory-2step-stake-s,731,3356617,0.0-19.0-0.1-0.231,A3TDA1NWHNQFE3,306996CF7Z0Y3F4KVQ7DFLTE4FJB13,34V1S5K3GWHD8ROETEA08VLSI2V69I,7,8
232,4,object_01,object_06,678.21499996353,7,1,246.59500003327,0.1111111111111111,1,object_09,5,2885,0,1,1,restaurant_1,1,memory-2step-stake-s,732,3364193,0.0-19.0-0.1-0.232,A3TDA1NWHNQFE3,306996CF7Z0Y3F4KVQ7DFLTE4FJB13,34V1S5K3GWHD8ROETEA08VLSI2V69I,7,8
233,3,object_02,object_03,880.58999995701,5,1,230.44999991544,0.2222222222222222,1,object_09,5,2895,0,2,2,library_6,1,memory-2step-stake-s,733,3371851,0.0-19.0-0.1-0.233,A3TDA1NWHNQFE3,306996CF7Z0Y3F4KVQ7DFLTE4FJB13,34V1S5K3GWHD8ROETEA08VLSI2V69I,5,6
234,3,object_02,object_03,398.01999996416,6,2,777.04000007361,0.1111111111111111,2,object_10,5,2900,0,2,1,library_6,1,memory-2step-stake-s,734,3379949,0.0-19.0-0.1-0.234,A3TDA1NWHNQFE3,306996CF7Z0Y3F4KVQ7DFLTE4FJB13,34V1S5K3GWHD8ROETEA08VLSI2V69I,5,6
235,2,object_04,object_07,1004.7550000018,4,2,232.25000000093,0.1111111111111111,2,object_10,1,2901,0,6,1,forest_6,1,memory-2step-stake-s,735,3387515,0.0-19.0-0.1-0.235,A3TDA1NWHNQFE3,306996CF7Z0Y3F4KVQ7DFLTE4FJB13,34V1S5K3GWHD8ROETEA08VLSI2V69I,3,4
236,2,object_07,object_04,605.00500001945,4,1,471.06499993242,0.2222222222222222,2,object_10,1,2903,0,7,2,forest_7,1,memory-2step-stake-s,736,3395410,0.0-19.0-0.1-0.236,A3TDA1NWHNQFE3,306996CF7Z0Y3F4KVQ7DFLTE4FJB13,34V1S5K3GWHD8ROETEA08VLSI2V69I,4,3
237,4,object_01,object_06,792.06999996677,7,1,332.01000001281,0.8888888888888888,1,object_09,5,2943,0,8,0,restaurant_4,1,memory-2step-stake-s,737,3403781,0.0-19.0-0.1-0.237,A3TDA1NWHNQFE3,306996CF7Z0Y3F4KVQ7DFLTE4FJB13,34V1S5K3GWHD8ROETEA08VLSI2V69I,7,8
238,1,object_08,object_05,812.61000002269,2,2,251.63499999326,0.0,2,object_10,1,2943,0,5,0,desert_8,1,memory-2step-stake-s,738,3411258,0.0-19.0-0.1-0.238,A3TDA1NWHNQFE3,306996CF7Z0Y3F4KVQ7DFLTE4FJB13,34V1S5K3GWHD8ROETEA08VLSI2V69I,1,2
239,4,object_01,object_06,943.36000003386,7,1,396.39499993064,0.3333333333333333,1,object_09,1,2946,0,3,3,restaurant_8,1,memory-2step-stake-s,739,3419188,0.0-19.0-0.1-0.239,A3TDA1NWHNQFE3,306996CF7Z0Y3F4KVQ7DFLTE4FJB13,34V1S5K3GWHD8ROETEA08VLSI2V69I,7,8
240,4,object_06,object_01,784.97500007506,8,1,386.97499991395,0.4444444444444444,2,object_10,5,2966,0,0,4,restaurant_4,1,memory-2step-stake-s,740,3427219,0.0-19.0-0.1-0.240,A3TDA1NWHNQFE3,306996CF7Z0Y3F4KVQ7DFLTE4FJB13,34V1S5K3GWHD8ROETEA08VLSI2V69I,8,7
241,3,object_02,object_03,1060.679999995,5,1,284.54999998212,0.1111111111111111,1,object_09,1,2967,0,1,4,library_2,1,memory-2step-stake-s,741,3434826,0.0-19.0-0.1-0.241,A3TDA1NWHNQFE3,306996CF7Z0Y3F4KVQ7DFLTE4FJB13,34V1S5K3GWHD8ROETEA08VLSI2V69I,5,6
242,4,object_06,object_01,914.05999998096,7,2,288.75000006519,0.0,1,object_09,1,2967,0,0,8,restaurant_1,1,memory-2step-stake-s,742,3442346,0.0-19.0-0.1-0.242,A3TDA1NWHNQFE3,306996CF7Z0Y3F4KVQ7DFLTE4FJB13,34V1S5K3GWHD8ROETEA08VLSI2V69I,8,7
243,2,object_07,object_04,-1.0,-1,-1,-1.0,0.0,-,0,5,2967,0,0,8,forest_7,1,memory-2step-stake-s,743,3448871,0.0-19.0-0.1-0.243,A3TDA1NWHNQFE3,306996CF7Z0Y3F4KVQ7DFLTE4FJB13,34V1S5K3GWHD8ROETEA08VLSI2V69I,4,3
244,2,object_04,object_07,878.12000000849,4,2,338.22999999393,1.0,2,object_10,5,3012,0,1,9,forest_2,1,memory-2step-stake-s,744,3457355,0.0-19.0-0.1-0.244,A3TDA1NWHNQFE3,306996CF7Z0Y3F4KVQ7DFLTE4FJB13,34V1S5K3GWHD8ROETEA08VLSI2V69I,3,4
245,1,object_08,object_05,708.16999999806,1,1,355.45999999158,0.3333333333333333,1,object_09,1,3015,0,3,7,desert_5,1,memory-2step-stake-s,745,3465237,0.0-19.0-0.1-0.245,A3TDA1NWHNQFE3,306996CF7Z0Y3F4KVQ7DFLTE4FJB13,34V1S5K3GWHD8ROETEA08VLSI2V69I,1,2
246,4,object_06,object_01,864.53500005882,7,2,347.99499996006,0.3333333333333333,1,object_09,1,3018,0,3,7,restaurant_4,1,memory-2step-stake-s,746,3473120,0.0-19.0-0.1-0.246,A3TDA1NWHNQFE3,306996CF7Z0Y3F4KVQ7DFLTE4FJB13,34V1S5K3GWHD8ROETEA08VLSI2V69I,8,7
247,4,object_06,object_01,646.13000000827,8,1,280.51499999128,0.8888888888888888,2,object_10,5,3058,0,2,8,restaurant_1,1,memory-2step-stake-s,747,3481456,0.0-19.0-0.1-0.247,A3TDA1NWHNQFE3,306996CF7Z0Y3F4KVQ7DFLTE4FJB13,34V1S5K3GWHD8ROETEA08VLSI2V69I,8,7
248,1,object_05,object_08,700.66500001121,1,2,361.44499992952,0.0,1,object_09,5,3058,0,0,7,desert_8,1,memory-2step-stake-s,748,3489040,0.0-19.0-0.1-0.248,A3TDA1NWHNQFE3,306996CF7Z0Y3F4KVQ7DFLTE4FJB13,34V1S5K3GWHD8ROETEA08VLSI2V69I,2,1
249,2,object_07,object_04,693.4599999804,4,1,294.57999998704,0.3333333333333333,2,object_10,5,3073,0,1,3,forest_7,1,memory-2step-stake-s,749,3496862,0.0-19.0-0.1-0.249,A3TDA1NWHNQFE3,306996CF7Z0Y3F4KVQ7DFLTE4FJB13,34V1S5K3GWHD8ROETEA08VLSI2V69I,4,3
250,1,object_08,object_05,673.73999999836,1,1,423.02500002552,0.2222222222222222,1,object_09,1,3075,0,2,4,desert_1,1,memory-2step-stake-s,750,3504712,0.0-19.0-0.1-0.250,A3TDA1NWHNQFE3,306996CF7Z0Y3F4KVQ7DFLTE4FJB13,34V1S5K3GWHD8ROETEA08VLSI2V69I,1,2
251,4,object_01,object_06,627.78000009712,8,2,316.41500000842,0.0,2,object_10,5,3075,0,0,0,restaurant_8,1,memory-2step-stake-s,751,3512250,0.0-19.0-0.1-0.251,A3TDA1NWHNQFE3,306996CF7Z0Y3F4KVQ7DFLTE4FJB13,34V1S5K3GWHD8ROETEA08VLSI2V69I,7,8
252,1,object_08,object_05,690.28999994043,1,1,290.90499994345,0.0,1,object_09,5,3075,0,0,1,desert_8,1,memory-2step-stake-s,752,3519766,0.0-19.0-0.1-0.252,A3TDA1NWHNQFE3,306996CF7Z0Y3F4KVQ7DFLTE4FJB13,34V1S5K3GWHD8ROETEA08VLSI2V69I,1,2
253,3,object_03,object_02,704.69500008039,5,2,244.69500000123,0.1111111111111111,1,object_09,1,3076,0,1,6,library_6,1,memory-2step-stake-s,753,3527333,0.0-19.0-0.1-0.253,A3TDA1NWHNQFE3,306996CF7Z0Y3F4KVQ7DFLTE4FJB13,34V1S5K3GWHD8ROETEA08VLSI2V69I,6,5
254,1,object_05,object_08,891.41499996185,2,1,318.90499999281,0.6666666666666666,2,object_10,1,3082,0,0,6,desert_6,1,memory-2step-stake-s,754,3535488,0.0-19.0-0.1-0.254,A3TDA1NWHNQFE3,306996CF7Z0Y3F4KVQ7DFLTE4FJB13,34V1S5K3GWHD8ROETEA08VLSI2V69I,2,1
255,4,object_06,object_01,1070.8699999377,7,2,406.55000007246,0.1111111111111111,1,object_09,5,3087,0,1,3,restaurant_1,1,memory-2step-stake-s,755,3543218,0.0-19.0-0.1-0.255,A3TDA1NWHNQFE3,306996CF7Z0Y3F4KVQ7DFLTE4FJB13,34V1S5K3GWHD8ROETEA08VLSI2V69I,8,7
