,state1,stim_left,stim_right,rt_1,choice1,response1,rt_2,points,state2,stim_state2,stake,score,practice,rews1,rews2,background,high_arm,trial_type,trial_index,time_elapsed,internal_node_id,subid,hitid,assignmentid,stim_left_num,stim_right_num
0,4,object_06,object_01,1213.1500001997,7,1,-1.0,0.0,1,object_04,1,0,0,1,2,restaurant_3,2,memory-2step-stake-s,497,1742227,0.0-19.0-0.0-0.0,A1BE3Y8ZDZ31BP,3X2LT8FDIZY82IMGP2COH9T7SM78W0,3JNQLM5FT82KRS6MV91NNRVB2R8L2B,7,8
1,4,object_06,object_01,882.37999938428,7,1,-1.0,0.0,1,object_04,1,0,0,2,5,restaurant_4,2,memory-2step-stake-s,498,1750743,0.0-19.0-0.0-0.1,A1BE3Y8ZDZ31BP,3X2LT8FDIZY82IMGP2COH9T7SM78W0,3JNQLM5FT82KRS6MV91NNRVB2R8L2B,7,8
2,3,object_05,object_07,1079.8350004479,6,2,-1.0,0.0,2,object_03,5,0,0,2,4,library_3,2,memory-2step-stake-s,499,1759258,0.0-19.0-0.0-0.2,A1BE3Y8ZDZ31BP,3X2LT8FDIZY82IMGP2COH9T7SM78W0,3JNQLM5FT82KRS6MV91NNRVB2R8L2B,5,6
3,1,object_08,object_10,1331.325000152,1,1,-1.0,0.0,1,object_04,5,0,0,1,1,desert_1,2,memory-2step-stake-s,500,1767775,0.0-19.0-0.0-0.3,A1BE3Y8ZDZ31BP,3X2LT8FDIZY82IMGP2COH9T7SM78W0,3JNQLM5FT82KRS6MV91NNRVB2R8L2B,1,2
4,4,object_06,object_01,1046.4700004086,7,1,608.86999964714,0.1111111111111111,1,object_04,5,5,0,1,1,restaurant_4,2,memory-2step-stake-s,501,1775700,0.0-19.0-0.0-0.4,A1BE3Y8ZDZ31BP,3X2LT8FDIZY82IMGP2COH9T7SM78W0,3JNQLM5FT82KRS6MV91NNRVB2R8L2B,7,8
5,3,object_05,object_07,825.52000042051,6,2,629.82500065118,0.2222222222222222,2,object_03,1,7,0,3,2,library_2,2,memory-2step-stake-s,502,1783745,0.0-19.0-0.0-0.5,A1BE3Y8ZDZ31BP,3X2LT8FDIZY82IMGP2COH9T7SM78W0,3JNQLM5FT82KRS6MV91NNRVB2R8L2B,5,6
6,3,object_05,object_07,1366.0450000316,6,2,529.84500024468,0.1111111111111111,2,object_03,5,12,0,3,1,library_3,2,memory-2step-stake-s,503,1791588,0.0-19.0-0.0-0.6,A1BE3Y8ZDZ31BP,3X2LT8FDIZY82IMGP2COH9T7SM78W0,3JNQLM5FT82KRS6MV91NNRVB2R8L2B,5,6
7,3,object_07,object_05,555.93500006944,6,1,1198.7799992785,0.0,2,object_03,1,12,0,4,0,library_7,2,memory-2step-stake-s,504,1800001,0.0-19.0-0.0-0.7,A1BE3Y8ZDZ31BP,3X2LT8FDIZY82IMGP2COH9T7SM78W0,3JNQLM5FT82KRS6MV91NNRVB2R8L2B,6,5
8,2,object_02,object_09,-1.0,-1,-1,-1.0,0.0,-,0,5,12,0,5,0,forest_3,2,memory-2step-stake-s,505,1806509,0.0-19.0-0.0-0.8,A1BE3Y8ZDZ31BP,3X2LT8FDIZY82IMGP2COH9T7SM78W0,3JNQLM5FT82KRS6MV91NNRVB2R8L2B,4,3
9,2,object_09,object_02,396.24499995261,3,1,549.630000256,0.2222222222222222,1,object_04,1,14,0,2,4,forest_5,2,memory-2step-stake-s,506,1814473,0.0-19.0-0.0-0.9,A1BE3Y8ZDZ31BP,3X2LT8FDIZY82IMGP2COH9T7SM78W0,3JNQLM5FT82KRS6MV91NNRVB2R8L2B,3,4
10,2,object_09,object_02,-1.0,-1,-1,-1.0,0.0,-,0,5,14,0,2,4,forest_4,2,memory-2step-stake-s,507,1820981,0.0-19.0-0.0-0.10,A1BE3Y8ZDZ31BP,3X2LT8FDIZY82IMGP2COH9T7SM78W0,3JNQLM5FT82KRS6MV91NNRVB2R8L2B,3,4
11,3,object_05,object_07,731.36499989778,5,1,430.14500010759,0.1111111111111111,1,object_04,5,19,0,1,4,library_1,2,memory-2step-stake-s,508,1828725,0.0-19.0-0.0-0.11,A1BE3Y8ZDZ31BP,3X2LT8FDIZY82IMGP2COH9T7SM78W0,3JNQLM5FT82KRS6MV91NNRVB2R8L2B,5,6
12,2,object_02,object_09,571.87999971211,3,2,1062.7800002694,0.1111111111111111,1,object_04,5,24,0,1,1,forest_3,2,memory-2step-stake-s,509,1837101,0.0-19.0-0.0-0.12,A1BE3Y8ZDZ31BP,3X2LT8FDIZY82IMGP2COH9T7SM78W0,3JNQLM5FT82KRS6MV91NNRVB2R8L2B,4,3
13,1,object_10,object_08,779.43999972194,2,1,734.20500010252,0.1111111111111111,2,object_03,5,29,0,1,1,desert_3,2,memory-2step-stake-s,510,1845149,0.0-19.0-0.0-0.13,A1BE3Y8ZDZ31BP,3X2LT8FDIZY82IMGP2COH9T7SM78W0,3JNQLM5FT82KRS6MV91NNRVB2R8L2B,2,1
14,1,object_10,object_08,633.88499990106,1,2,589.63000029325,0.1111111111111111,1,object_04,5,34,0,1,2,desert_3,2,memory-2step-stake-s,511,1853053,0.0-19.0-0.0-0.14,A1BE3Y8ZDZ31BP,3X2LT8FDIZY82IMGP2COH9T7SM78W0,3JNQLM5FT82KRS6MV91NNRVB2R8L2B,2,1
15,4,object_01,object_06,771.88500016928,7,2,847.42000047117,0.2222222222222222,1,object_04,5,44,0,2,2,restaurant_1,2,memory-2step-stake-s,512,1861315,0.0-19.0-0.0-0.15,A1BE3Y8ZDZ31BP,3X2LT8FDIZY82IMGP2COH9T7SM78W0,3JNQLM5FT82KRS6MV91NNRVB2R8L2B,8,7
16,4,object_06,object_01,-1.0,-1,-1,-1.0,0.0,-,0,1,44,0,3,0,restaurant_3,2,memory-2step-stake-s,513,1867823,0.0-19.0-0.0-0.16,A1BE3Y8ZDZ31BP,3X2LT8FDIZY82IMGP2COH9T7SM78W0,3JNQLM5FT82KRS6MV91NNRVB2R8L2B,7,8
17,1,object_10,object_08,528.85999996215,1,2,643.72500032187,0.2222222222222222,1,object_04,1,46,0,2,1,desert_6,2,memory-2step-stake-s,514,1875884,0.0-19.0-0.0-0.17,A1BE3Y8ZDZ31BP,3X2LT8FDIZY82IMGP2COH9T7SM78W0,3JNQLM5FT82KRS6MV91NNRVB2R8L2B,2,1
18,1,object_08,object_10,485.24500057101,2,2,634.00499988347,0.1111111111111111,2,object_03,5,51,0,2,1,desert_3,2,memory-2step-stake-s,515,1883832,0.0-19.0-0.0-0.18,A1BE3Y8ZDZ31BP,3X2LT8FDIZY82IMGP2COH9T7SM78W0,3JNQLM5FT82KRS6MV91NNRVB2R8L2B,1,2
19,3,object_07,object_05,232.1849996224,5,2,1148.4850002453,0.4444444444444444,1,object_04,1,55,0,4,2,library_2,2,memory-2step-stake-s,516,1892599,0.0-19.0-0.0-0.19,A1BE3Y8ZDZ31BP,3X2LT8FDIZY82IMGP2COH9T7SM78W0,3JNQLM5FT82KRS6MV91NNRVB2R8L2B,6,5
20,4,object_06,object_01,1049.7849993408,8,2,804.68000005931,0.1111111111111111,2,object_03,1,56,0,5,1,restaurant_8,2,memory-2step-stake-s,517,1900719,0.0-19.0-0.0-0.20,A1BE3Y8ZDZ31BP,3X2LT8FDIZY82IMGP2COH9T7SM78W0,3JNQLM5FT82KRS6MV91NNRVB2R8L2B,7,8
21,1,object_08,object_10,576.20000001043,1,1,434.29000023752,0.3333333333333333,1,object_04,5,71,0,3,4,desert_5,2,memory-2step-stake-s,518,1908674,0.0-19.0-0.0-0.21,A1BE3Y8ZDZ31BP,3X2LT8FDIZY82IMGP2COH9T7SM78W0,3JNQLM5FT82KRS6MV91NNRVB2R8L2B,1,2
22,4,object_01,object_06,865.55000022054,8,1,918.30500029027,0.4444444444444444,2,object_03,1,75,0,4,4,restaurant_8,2,memory-2step-stake-s,519,1917206,0.0-19.0-0.0-0.22,A1BE3Y8ZDZ31BP,3X2LT8FDIZY82IMGP2COH9T7SM78W0,3JNQLM5FT82KRS6MV91NNRVB2R8L2B,8,7
23,3,object_07,object_05,844.28999945521,5,2,865.0150001049,0.5555555555555556,1,object_04,1,80,0,5,4,library_2,2,memory-2step-stake-s,520,1925789,0.0-19.0-0.0-0.23,A1BE3Y8ZDZ31BP,3X2LT8FDIZY82IMGP2COH9T7SM78W0,3JNQLM5FT82KRS6MV91NNRVB2R8L2B,6,5
24,3,object_07,object_05,708.66500027478,5,2,-1.0,0.0,1,object_04,1,80,0,4,4,library_1,2,memory-2step-stake-s,521,1934302,0.0-19.0-0.0-0.24,A1BE3Y8ZDZ31BP,3X2LT8FDIZY82IMGP2COH9T7SM78W0,3JNQLM5FT82KRS6MV91NNRVB2R8L2B,6,5
25,2,object_09,object_02,402.83999964595,3,1,615.07000029087,0.5555555555555556,1,object_04,5,105,0,5,3,forest_3,2,memory-2step-stake-s,522,1942636,0.0-19.0-0.0-0.25,A1BE3Y8ZDZ31BP,3X2LT8FDIZY82IMGP2COH9T7SM78W0,3JNQLM5FT82KRS6MV91NNRVB2R8L2B,3,4
26,4,object_01,object_06,487.35999967903,7,2,866.0249998793,0.3333333333333333,1,object_04,1,108,0,3,3,restaurant_3,2,memory-2step-stake-s,523,1951017,0.0-19.0-0.0-0.26,A1BE3Y8ZDZ31BP,3X2LT8FDIZY82IMGP2COH9T7SM78W0,3JNQLM5FT82KRS6MV91NNRVB2R8L2B,8,7
27,2,object_09,object_02,585.35999991,3,1,731.84499982744,0.3333333333333333,1,object_04,5,123,0,3,3,forest_7,2,memory-2step-stake-s,524,1959265,0.0-19.0-0.0-0.27,A1BE3Y8ZDZ31BP,3X2LT8FDIZY82IMGP2COH9T7SM78W0,3JNQLM5FT82KRS6MV91NNRVB2R8L2B,3,4
28,1,object_08,object_10,361.56999971718,1,1,590.62999952585,0.4444444444444444,1,object_04,1,127,0,4,5,desert_6,2,memory-2step-stake-s,525,1967472,0.0-19.0-0.0-0.28,A1BE3Y8ZDZ31BP,3X2LT8FDIZY82IMGP2COH9T7SM78W0,3JNQLM5FT82KRS6MV91NNRVB2R8L2B,1,2
29,2,object_02,object_09,338.23500014842,4,1,480.51999974996,0.4444444444444444,2,object_03,5,147,0,7,4,forest_3,2,memory-2step-stake-s,526,1975569,0.0-19.0-0.0-0.29,A1BE3Y8ZDZ31BP,3X2LT8FDIZY82IMGP2COH9T7SM78W0,3JNQLM5FT82KRS6MV91NNRVB2R8L2B,4,3
30,2,object_09,object_02,296.91000003368,4,2,587.83000055701,0.4444444444444444,2,object_03,1,151,0,6,4,forest_4,2,memory-2step-stake-s,527,1983776,0.0-19.0-0.0-0.30,A1BE3Y8ZDZ31BP,3X2LT8FDIZY82IMGP2COH9T7SM78W0,3JNQLM5FT82KRS6MV91NNRVB2R8L2B,3,4
31,2,object_09,object_02,346.83500044048,4,2,686.68999988586,0.5555555555555556,2,object_03,5,176,0,1,5,forest_5,2,memory-2step-stake-s,528,1992180,0.0-19.0-0.0-0.31,A1BE3Y8ZDZ31BP,3X2LT8FDIZY82IMGP2COH9T7SM78W0,3JNQLM5FT82KRS6MV91NNRVB2R8L2B,3,4
32,2,object_02,object_09,735.42500007898,3,2,740.14000035822,0.2222222222222222,1,object_04,5,186,0,2,5,forest_5,2,memory-2step-stake-s,529,2000333,0.0-19.0-0.0-0.32,A1BE3Y8ZDZ31BP,3X2LT8FDIZY82IMGP2COH9T7SM78W0,3JNQLM5FT82KRS6MV91NNRVB2R8L2B,4,3
33,1,object_10,object_08,935.25000009686,1,2,689.60500042886,0.4444444444444444,1,object_04,5,206,0,4,6,desert_5,2,memory-2step-stake-s,530,2008639,0.0-19.0-0.0-0.33,A1BE3Y8ZDZ31BP,3X2LT8FDIZY82IMGP2COH9T7SM78W0,3JNQLM5FT82KRS6MV91NNRVB2R8L2B,2,1
34,2,object_02,object_09,987.31500003487,3,2,1469.9799995869,0.6666666666666666,1,object_04,5,236,0,6,5,forest_4,2,memory-2step-stake-s,531,2017932,0.0-19.0-0.0-0.34,A1BE3Y8ZDZ31BP,3X2LT8FDIZY82IMGP2COH9T7SM78W0,3JNQLM5FT82KRS6MV91NNRVB2R8L2B,4,3
35,4,object_01,object_06,837.8149997443,7,2,881.37999922037,0.7777777777777778,1,object_04,1,243,0,7,6,restaurant_8,2,memory-2step-stake-s,532,2026733,0.0-19.0-0.0-0.35,A1BE3Y8ZDZ31BP,3X2LT8FDIZY82IMGP2COH9T7SM78W0,3JNQLM5FT82KRS6MV91NNRVB2R8L2B,8,7
36,2,object_09,object_02,926.4899995178,4,2,1304.5399999246,0.5555555555555556,2,object_03,5,268,0,6,5,forest_7,2,memory-2step-stake-s,533,2035757,0.0-19.0-0.0-0.36,A1BE3Y8ZDZ31BP,3X2LT8FDIZY82IMGP2COH9T7SM78W0,3JNQLM5FT82KRS6MV91NNRVB2R8L2B,3,4
37,1,object_10,object_08,637.60000001639,2,1,362.27500066161,0.4444444444444444,2,object_03,5,288,0,6,4,desert_5,2,memory-2step-stake-s,534,2043735,0.0-19.0-0.0-0.37,A1BE3Y8ZDZ31BP,3X2LT8FDIZY82IMGP2COH9T7SM78W0,3JNQLM5FT82KRS6MV91NNRVB2R8L2B,2,1
38,2,object_09,object_02,1003.9400001988,3,1,527.26500015706,0.5555555555555556,1,object_04,5,313,0,5,0,forest_7,2,memory-2step-stake-s,535,2051984,0.0-19.0-0.0-0.38,A1BE3Y8ZDZ31BP,3X2LT8FDIZY82IMGP2COH9T7SM78W0,3JNQLM5FT82KRS6MV91NNRVB2R8L2B,3,4
39,2,object_09,object_02,580.30000049621,3,1,438.62999975681,0.3333333333333333,1,object_04,5,328,0,3,1,forest_5,2,memory-2step-stake-s,536,2059941,0.0-19.0-0.0-0.39,A1BE3Y8ZDZ31BP,3X2LT8FDIZY82IMGP2COH9T7SM78W0,3JNQLM5FT82KRS6MV91NNRVB2R8L2B,3,4
40,3,object_05,object_07,671.67000006884,6,2,593.84999983013,0.1111111111111111,2,object_03,1,329,0,5,1,library_3,2,memory-2step-stake-s,537,2067849,0.0-19.0-0.0-0.40,A1BE3Y8ZDZ31BP,3X2LT8FDIZY82IMGP2COH9T7SM78W0,3JNQLM5FT82KRS6MV91NNRVB2R8L2B,5,6
41,3,object_07,object_05,666.17000009865,6,1,726.4099996537,0.0,2,object_03,1,329,0,4,0,library_7,2,memory-2step-stake-s,538,2075788,0.0-19.0-0.0-0.41,A1BE3Y8ZDZ31BP,3X2LT8FDIZY82IMGP2COH9T7SM78W0,3JNQLM5FT82KRS6MV91NNRVB2R8L2B,6,5
42,3,object_05,object_07,511.32499985397,6,2,860.08500028402,0.1111111111111111,2,object_03,1,330,0,6,1,library_2,2,memory-2step-stake-s,539,2083961,0.0-19.0-0.0-0.42,A1BE3Y8ZDZ31BP,3X2LT8FDIZY82IMGP2COH9T7SM78W0,3JNQLM5FT82KRS6MV91NNRVB2R8L2B,5,6
43,3,object_07,object_05,930.62500003725,6,1,900.95499996096,0.0,2,object_03,1,330,0,5,0,library_1,2,memory-2step-stake-s,540,2092077,0.0-19.0-0.0-0.43,A1BE3Y8ZDZ31BP,3X2LT8FDIZY82IMGP2COH9T7SM78W0,3JNQLM5FT82KRS6MV91NNRVB2R8L2B,6,5
44,1,object_08,object_10,752.90500000119,2,2,563.69999982417,0.2222222222222222,2,object_03,5,340,0,6,2,desert_1,2,memory-2step-stake-s,541,2100058,0.0-19.0-0.0-0.44,A1BE3Y8ZDZ31BP,3X2LT8FDIZY82IMGP2COH9T7SM78W0,3JNQLM5FT82KRS6MV91NNRVB2R8L2B,1,2
45,1,object_08,object_10,1049.9249994755,1,1,645.79499978572,0.4444444444444444,1,object_04,5,360,0,4,5,desert_6,2,memory-2step-stake-s,542,2108325,0.0-19.0-0.0-0.45,A1BE3Y8ZDZ31BP,3X2LT8FDIZY82IMGP2COH9T7SM78W0,3JNQLM5FT82KRS6MV91NNRVB2R8L2B,1,2
46,1,object_08,object_10,1103.9750007913,1,1,594.87500041723,0.2222222222222222,1,object_04,5,370,0,2,6,desert_6,2,memory-2step-stake-s,543,2116337,0.0-19.0-0.0-0.46,A1BE3Y8ZDZ31BP,3X2LT8FDIZY82IMGP2COH9T7SM78W0,3JNQLM5FT82KRS6MV91NNRVB2R8L2B,1,2
47,4,object_06,object_01,1020.7749996334,8,2,567.61000026017,0.6666666666666666,2,object_03,5,400,0,2,6,restaurant_3,2,memory-2step-stake-s,544,2124724,0.0-19.0-0.0-0.47,A1BE3Y8ZDZ31BP,3X2LT8FDIZY82IMGP2COH9T7SM78W0,3JNQLM5FT82KRS6MV91NNRVB2R8L2B,7,8
48,3,object_07,object_05,890.39999991655,6,1,484.70499925315,0.5555555555555556,2,object_03,1,405,0,1,5,library_2,2,memory-2step-stake-s,545,2132925,0.0-19.0-0.0-0.48,A1BE3Y8ZDZ31BP,3X2LT8FDIZY82IMGP2COH9T7SM78W0,3JNQLM5FT82KRS6MV91NNRVB2R8L2B,6,5
49,1,object_10,object_08,888.74999992549,2,1,611.61500029266,0.5555555555555556,2,object_03,5,430,0,2,5,desert_6,2,memory-2step-stake-s,546,2141256,0.0-19.0-0.0-0.49,A1BE3Y8ZDZ31BP,3X2LT8FDIZY82IMGP2COH9T7SM78W0,3JNQLM5FT82KRS6MV91NNRVB2R8L2B,2,1
50,2,object_09,object_02,613.10499999672,3,1,752.02000048012,0.3333333333333333,1,object_04,5,445,0,3,5,forest_4,2,memory-2step-stake-s,547,2149526,0.0-19.0-0.0-0.50,A1BE3Y8ZDZ31BP,3X2LT8FDIZY82IMGP2COH9T7SM78W0,3JNQLM5FT82KRS6MV91NNRVB2R8L2B,3,4
51,3,object_05,object_07,568.09000018984,6,2,683.60999971628,0.3333333333333333,2,object_03,1,448,0,4,3,library_1,2,memory-2step-stake-s,548,2157724,0.0-19.0-0.0-0.51,A1BE3Y8ZDZ31BP,3X2LT8FDIZY82IMGP2COH9T7SM78W0,3JNQLM5FT82KRS6MV91NNRVB2R8L2B,5,6
52,3,object_05,object_07,512.82000076026,5,1,562.66999989748,0.2222222222222222,1,object_04,1,450,0,2,2,library_3,2,memory-2step-stake-s,549,2165707,0.0-19.0-0.0-0.52,A1BE3Y8ZDZ31BP,3X2LT8FDIZY82IMGP2COH9T7SM78W0,3JNQLM5FT82KRS6MV91NNRVB2R8L2B,5,6
53,3,object_05,object_07,667.8149998188,5,1,616.03999976069,0.2222222222222222,1,object_04,5,460,0,2,2,library_3,2,memory-2step-stake-s,550,2173736,0.0-19.0-0.0-0.53,A1BE3Y8ZDZ31BP,3X2LT8FDIZY82IMGP2COH9T7SM78W0,3JNQLM5FT82KRS6MV91NNRVB2R8L2B,5,6
54,2,object_09,object_02,710.88999975473,3,1,505.85499964654,0.3333333333333333,1,object_04,5,475,0,3,2,forest_5,2,memory-2step-stake-s,551,2181757,0.0-19.0-0.0-0.54,A1BE3Y8ZDZ31BP,3X2LT8FDIZY82IMGP2COH9T7SM78W0,3JNQLM5FT82KRS6MV91NNRVB2R8L2B,3,4
55,4,object_01,object_06,680.86500000209,8,1,604.58500031382,0.0,2,object_03,1,475,0,3,0,restaurant_1,2,memory-2step-stake-s,552,2189575,0.0-19.0-0.0-0.55,A1BE3Y8ZDZ31BP,3X2LT8FDIZY82IMGP2COH9T7SM78W0,3JNQLM5FT82KRS6MV91NNRVB2R8L2B,8,7
56,1,object_08,object_10,701.60000026226,2,2,754.54000011086,0.2222222222222222,2,object_03,5,485,0,4,2,desert_5,2,memory-2step-stake-s,553,2197744,0.0-19.0-0.0-0.56,A1BE3Y8ZDZ31BP,3X2LT8FDIZY82IMGP2COH9T7SM78W0,3JNQLM5FT82KRS6MV91NNRVB2R8L2B,1,2
57,1,object_10,object_08,613.97999990731,2,1,673.48999995738,0.2222222222222222,2,object_03,5,495,0,7,2,desert_1,2,memory-2step-stake-s,554,2205832,0.0-19.0-0.0-0.57,A1BE3Y8ZDZ31BP,3X2LT8FDIZY82IMGP2COH9T7SM78W0,3JNQLM5FT82KRS6MV91NNRVB2R8L2B,2,1
58,3,object_07,object_05,608.06000046432,6,1,587.43499964476,0.5555555555555556,2,object_03,1,500,0,6,5,library_1,2,memory-2step-stake-s,555,2214138,0.0-19.0-0.0-0.58,A1BE3Y8ZDZ31BP,3X2LT8FDIZY82IMGP2COH9T7SM78W0,3JNQLM5FT82KRS6MV91NNRVB2R8L2B,6,5
59,2,object_09,object_02,636.22500002384,4,2,648.26500043273,0.5555555555555556,2,object_03,5,525,0,6,5,forest_4,2,memory-2step-stake-s,556,2222507,0.0-19.0-0.0-0.59,A1BE3Y8ZDZ31BP,3X2LT8FDIZY82IMGP2COH9T7SM78W0,3JNQLM5FT82KRS6MV91NNRVB2R8L2B,3,4
60,2,object_09,object_02,541.07000026852,3,1,655.66000062972,1.0,1,object_04,5,570,0,9,1,forest_4,2,memory-2step-stake-s,557,2231283,0.0-19.0-0.0-0.60,A1BE3Y8ZDZ31BP,3X2LT8FDIZY82IMGP2COH9T7SM78W0,3JNQLM5FT82KRS6MV91NNRVB2R8L2B,3,4
61,4,object_01,object_06,804.45499997586,8,1,424.18499942869,0.0,2,object_03,1,570,0,9,0,restaurant_4,2,memory-2step-stake-s,558,2238919,0.0-19.0-0.0-0.61,A1BE3Y8ZDZ31BP,3X2LT8FDIZY82IMGP2COH9T7SM78W0,3JNQLM5FT82KRS6MV91NNRVB2R8L2B,8,7
62,1,object_10,object_08,792.48000029474,2,1,467.24000014365,0.1111111111111111,2,object_03,1,571,0,5,1,desert_3,2,memory-2step-stake-s,559,2246700,0.0-19.0-0.0-0.62,A1BE3Y8ZDZ31BP,3X2LT8FDIZY82IMGP2COH9T7SM78W0,3JNQLM5FT82KRS6MV91NNRVB2R8L2B,2,1
63,2,object_09,object_02,963.96500058472,4,2,1318.474999629,0.1111111111111111,2,object_03,5,576,0,5,1,forest_4,2,memory-2step-stake-s,560,2255332,0.0-19.0-0.0-0.63,A1BE3Y8ZDZ31BP,3X2LT8FDIZY82IMGP2COH9T7SM78W0,3JNQLM5FT82KRS6MV91NNRVB2R8L2B,3,4
64,2,object_09,object_02,876.50499958545,3,1,696.31000049412,0.6666666666666666,1,object_04,5,606,0,6,1,forest_4,2,memory-2step-stake-s,561,2263847,0.0-19.0-0.0-0.64,A1BE3Y8ZDZ31BP,3X2LT8FDIZY82IMGP2COH9T7SM78W0,3JNQLM5FT82KRS6MV91NNRVB2R8L2B,3,4
65,1,object_08,object_10,983.31500031054,2,2,794.22499984503,0.2222222222222222,2,object_03,5,616,0,6,2,desert_1,2,memory-2step-stake-s,562,2272058,0.0-19.0-0.0-0.65,A1BE3Y8ZDZ31BP,3X2LT8FDIZY82IMGP2COH9T7SM78W0,3JNQLM5FT82KRS6MV91NNRVB2R8L2B,1,2
66,1,object_10,object_08,983.64500049502,2,1,754.10500075668,0.0,2,object_03,5,616,0,4,0,desert_1,2,memory-2step-stake-s,563,2280026,0.0-19.0-0.0-0.66,A1BE3Y8ZDZ31BP,3X2LT8FDIZY82IMGP2COH9T7SM78W0,3JNQLM5FT82KRS6MV91NNRVB2R8L2B,2,1
67,3,object_05,object_07,398.62000010908,6,2,1362.5299995765,0.1111111111111111,2,object_03,1,617,0,3,1,library_1,2,memory-2step-stake-s,564,2288702,0.0-19.0-0.0-0.67,A1BE3Y8ZDZ31BP,3X2LT8FDIZY82IMGP2COH9T7SM78W0,3JNQLM5FT82KRS6MV91NNRVB2R8L2B,5,6
68,1,object_10,object_08,658.59500039369,1,2,-1.0,0.0,1,object_04,1,617,0,4,2,desert_6,2,memory-2step-stake-s,565,2297215,0.0-19.0-0.0-0.68,A1BE3Y8ZDZ31BP,3X2LT8FDIZY82IMGP2COH9T7SM78W0,3JNQLM5FT82KRS6MV91NNRVB2R8L2B,2,1
69,3,object_07,object_05,699.86000005156,6,1,742.12499987334,0.2222222222222222,2,object_03,1,619,0,0,2,library_1,2,memory-2step-stake-s,566,2305370,0.0-19.0-0.0-0.69,A1BE3Y8ZDZ31BP,3X2LT8FDIZY82IMGP2COH9T7SM78W0,3JNQLM5FT82KRS6MV91NNRVB2R8L2B,6,5
70,2,object_09,object_02,438.29999957234,3,1,555.21500017494,0.3333333333333333,1,object_04,5,634,0,3,2,forest_3,2,memory-2step-stake-s,567,2313439,0.0-19.0-0.0-0.70,A1BE3Y8ZDZ31BP,3X2LT8FDIZY82IMGP2COH9T7SM78W0,3JNQLM5FT82KRS6MV91NNRVB2R8L2B,3,4
71,3,object_05,object_07,632.9650003463,6,2,778.87499984354,0.0,2,object_03,1,634,0,5,0,library_2,2,memory-2step-stake-s,568,2321434,0.0-19.0-0.0-0.71,A1BE3Y8ZDZ31BP,3X2LT8FDIZY82IMGP2COH9T7SM78W0,3JNQLM5FT82KRS6MV91NNRVB2R8L2B,5,6
72,4,object_06,object_01,592.22500026226,7,1,680.88999949396,0.8888888888888888,1,object_04,1,642,0,8,0,restaurant_4,2,memory-2step-stake-s,569,2330137,0.0-19.0-0.0-0.72,A1BE3Y8ZDZ31BP,3X2LT8FDIZY82IMGP2COH9T7SM78W0,3JNQLM5FT82KRS6MV91NNRVB2R8L2B,7,8
73,1,object_08,object_10,640.2000002563,1,1,653.22500001639,1.0,1,object_04,5,687,0,9,1,desert_6,2,memory-2step-stake-s,570,2338910,0.0-19.0-0.0-0.73,A1BE3Y8ZDZ31BP,3X2LT8FDIZY82IMGP2COH9T7SM78W0,3JNQLM5FT82KRS6MV91NNRVB2R8L2B,1,2
74,2,object_09,object_02,739.4199995324,3,1,1015.3550002724,0.8888888888888888,1,object_04,5,727,0,8,3,forest_4,2,memory-2step-stake-s,571,2347948,0.0-19.0-0.0-0.74,A1BE3Y8ZDZ31BP,3X2LT8FDIZY82IMGP2COH9T7SM78W0,3JNQLM5FT82KRS6MV91NNRVB2R8L2B,3,4
75,4,object_01,object_06,1164.9900004268,7,2,615.61999935657,0.8888888888888888,1,object_04,1,735,0,8,5,restaurant_4,2,memory-2step-stake-s,572,2356587,0.0-19.0-0.0-0.75,A1BE3Y8ZDZ31BP,3X2LT8FDIZY82IMGP2COH9T7SM78W0,3JNQLM5FT82KRS6MV91NNRVB2R8L2B,8,7
76,4,object_06,object_01,1068.8599999994,7,1,711.25499997288,0.8888888888888888,1,object_04,1,743,0,8,6,restaurant_4,2,memory-2step-stake-s,573,2365319,0.0-19.0-0.0-0.76,A1BE3Y8ZDZ31BP,3X2LT8FDIZY82IMGP2COH9T7SM78W0,3JNQLM5FT82KRS6MV91NNRVB2R8L2B,7,8
77,4,object_01,object_06,793.98000054061,7,2,693.80499981344,0.6666666666666666,1,object_04,1,749,0,6,6,restaurant_8,2,memory-2step-stake-s,574,2373829,0.0-19.0-0.0-0.77,A1BE3Y8ZDZ31BP,3X2LT8FDIZY82IMGP2COH9T7SM78W0,3JNQLM5FT82KRS6MV91NNRVB2R8L2B,8,7
78,3,object_05,object_07,882.61500000954,6,2,669.48499996215,1.0,2,object_03,1,758,0,5,9,library_3,2,memory-2step-stake-s,575,2382624,0.0-19.0-0.0-0.78,A1BE3Y8ZDZ31BP,3X2LT8FDIZY82IMGP2COH9T7SM78W0,3JNQLM5FT82KRS6MV91NNRVB2R8L2B,5,6
79,4,object_06,object_01,864.26999978721,7,1,619.21999976039,0.4444444444444444,1,object_04,1,762,0,4,9,restaurant_1,2,memory-2step-stake-s,576,2390863,0.0-19.0-0.0-0.79,A1BE3Y8ZDZ31BP,3X2LT8FDIZY82IMGP2COH9T7SM78W0,3JNQLM5FT82KRS6MV91NNRVB2R8L2B,7,8
80,4,object_01,object_06,706.22999966145,7,2,735.03999970853,0.6666666666666666,1,object_04,5,792,0,6,9,restaurant_3,2,memory-2step-stake-s,577,2399416,0.0-19.0-0.0-0.80,A1BE3Y8ZDZ31BP,3X2LT8FDIZY82IMGP2COH9T7SM78W0,3JNQLM5FT82KRS6MV91NNRVB2R8L2B,8,7
81,2,object_02,object_09,1019.1449997947,3,2,687.76000011712,0.5555555555555556,1,object_04,5,817,0,5,6,forest_3,2,memory-2step-stake-s,578,2407820,0.0-19.0-0.0-0.81,A1BE3Y8ZDZ31BP,3X2LT8FDIZY82IMGP2COH9T7SM78W0,3JNQLM5FT82KRS6MV91NNRVB2R8L2B,4,3
82,4,object_06,object_01,948.37999995798,7,1,463.2500000298,0.1111111111111111,1,object_04,1,818,0,1,4,restaurant_1,2,memory-2step-stake-s,579,2415599,0.0-19.0-0.0-0.82,A1BE3Y8ZDZ31BP,3X2LT8FDIZY82IMGP2COH9T7SM78W0,3JNQLM5FT82KRS6MV91NNRVB2R8L2B,7,8
83,2,object_09,object_02,1451.5500003472,4,2,796.50999978185,0.2222222222222222,2,object_03,5,828,0,1,2,forest_7,2,memory-2step-stake-s,580,2423811,0.0-19.0-0.0-0.83,A1BE3Y8ZDZ31BP,3X2LT8FDIZY82IMGP2COH9T7SM78W0,3JNQLM5FT82KRS6MV91NNRVB2R8L2B,3,4
84,4,object_06,object_01,709.94499977678,8,2,546.12500034273,0.0,2,object_03,1,828,0,2,0,restaurant_3,2,memory-2step-stake-s,581,2431570,0.0-19.0-0.0-0.84,A1BE3Y8ZDZ31BP,3X2LT8FDIZY82IMGP2COH9T7SM78W0,3JNQLM5FT82KRS6MV91NNRVB2R8L2B,7,8
85,1,object_08,object_10,1112.2050005943,1,1,827.82000023872,0.2222222222222222,1,object_04,5,838,0,2,2,desert_1,2,memory-2step-stake-s,582,2439812,0.0-19.0-0.0-0.85,A1BE3Y8ZDZ31BP,3X2LT8FDIZY82IMGP2COH9T7SM78W0,3JNQLM5FT82KRS6MV91NNRVB2R8L2B,1,2
86,3,object_05,object_07,1060.5699997395,5,1,376.1399993673,0.0,1,object_04,1,838,0,0,2,library_7,2,memory-2step-stake-s,583,2447403,0.0-19.0-0.0-0.86,A1BE3Y8ZDZ31BP,3X2LT8FDIZY82IMGP2COH9T7SM78W0,3JNQLM5FT82KRS6MV91NNRVB2R8L2B,5,6
87,1,object_08,object_10,951.90499909222,2,2,610.12499965727,0.6666666666666666,2,object_03,5,868,0,3,6,desert_3,2,memory-2step-stake-s,584,2455835,0.0-19.0-0.0-0.87,A1BE3Y8ZDZ31BP,3X2LT8FDIZY82IMGP2COH9T7SM78W0,3JNQLM5FT82KRS6MV91NNRVB2R8L2B,1,2
88,1,object_08,object_10,1128.6700004712,1,1,812.18000035733,0.1111111111111111,1,object_04,5,873,0,1,7,desert_6,2,memory-2step-stake-s,585,2463962,0.0-19.0-0.0-0.88,A1BE3Y8ZDZ31BP,3X2LT8FDIZY82IMGP2COH9T7SM78W0,3JNQLM5FT82KRS6MV91NNRVB2R8L2B,1,2
89,1,object_08,object_10,1017.9749997333,1,1,1300.0500006601,0.0,1,object_04,1,873,0,0,5,desert_6,2,memory-2step-stake-s,586,2472476,0.0-19.0-0.0-0.89,A1BE3Y8ZDZ31BP,3X2LT8FDIZY82IMGP2COH9T7SM78W0,3JNQLM5FT82KRS6MV91NNRVB2R8L2B,1,2
90,1,object_08,object_10,872.48999997973,2,2,786.56500019133,0.7777777777777778,2,object_03,5,908,0,3,7,desert_5,2,memory-2step-stake-s,587,2481182,0.0-19.0-0.0-0.90,A1BE3Y8ZDZ31BP,3X2LT8FDIZY82IMGP2COH9T7SM78W0,3JNQLM5FT82KRS6MV91NNRVB2R8L2B,1,2
91,4,object_01,object_06,1220.9450006485,8,1,930.08500058204,0.5555555555555556,2,object_03,1,913,0,2,5,restaurant_8,2,memory-2step-stake-s,588,2489828,0.0-19.0-0.0-0.91,A1BE3Y8ZDZ31BP,3X2LT8FDIZY82IMGP2COH9T7SM78W0,3JNQLM5FT82KRS6MV91NNRVB2R8L2B,8,7
92,1,object_08,object_10,-1.0,-1,-1,-1.0,0.0,-,0,5,913,0,2,6,desert_3,2,memory-2step-stake-s,589,2496337,0.0-19.0-0.0-0.92,A1BE3Y8ZDZ31BP,3X2LT8FDIZY82IMGP2COH9T7SM78W0,3JNQLM5FT82KRS6MV91NNRVB2R8L2B,1,2
93,3,object_05,object_07,769.695000723,5,1,452.53000035882,0.4444444444444444,1,object_04,1,917,0,4,7,library_3,2,memory-2step-stake-s,590,2504409,0.0-19.0-0.0-0.93,A1BE3Y8ZDZ31BP,3X2LT8FDIZY82IMGP2COH9T7SM78W0,3JNQLM5FT82KRS6MV91NNRVB2R8L2B,5,6
94,1,object_10,object_08,931.00500013679,1,2,481.23500030488,0.4444444444444444,1,object_04,5,937,0,4,9,desert_6,2,memory-2step-stake-s,591,2512506,0.0-19.0-0.0-0.94,A1BE3Y8ZDZ31BP,3X2LT8FDIZY82IMGP2COH9T7SM78W0,3JNQLM5FT82KRS6MV91NNRVB2R8L2B,2,1
95,4,object_01,object_06,715.26000089943,8,1,910.36500036716,0.8888888888888888,2,object_03,1,945,0,3,8,restaurant_4,2,memory-2step-stake-s,592,2521438,0.0-19.0-0.0-0.95,A1BE3Y8ZDZ31BP,3X2LT8FDIZY82IMGP2COH9T7SM78W0,3JNQLM5FT82KRS6MV91NNRVB2R8L2B,8,7
96,1,object_10,object_08,462.30000071228,1,2,394.45499982685,0.4444444444444444,1,object_04,5,965,0,4,8,desert_3,2,memory-2step-stake-s,593,2529448,0.0-19.0-0.0-0.96,A1BE3Y8ZDZ31BP,3X2LT8FDIZY82IMGP2COH9T7SM78W0,3JNQLM5FT82KRS6MV91NNRVB2R8L2B,2,1
97,3,object_05,object_07,630.2049998194,5,1,641.88500028104,0.3333333333333333,1,object_04,1,968,0,3,9,library_2,2,memory-2step-stake-s,594,2537604,0.0-19.0-0.0-0.97,A1BE3Y8ZDZ31BP,3X2LT8FDIZY82IMGP2COH9T7SM78W0,3JNQLM5FT82KRS6MV91NNRVB2R8L2B,5,6
98,2,object_09,object_02,480.54999951273,4,2,602.2950001061,0.6666666666666666,2,object_03,5,998,0,1,6,forest_5,2,memory-2step-stake-s,595,2546025,0.0-19.0-0.0-0.98,A1BE3Y8ZDZ31BP,3X2LT8FDIZY82IMGP2COH9T7SM78W0,3JNQLM5FT82KRS6MV91NNRVB2R8L2B,3,4
99,2,object_09,object_02,538.04000001401,3,1,703.03499978036,0.1111111111111111,1,object_04,5,1003,0,1,7,forest_7,2,memory-2step-stake-s,596,2554042,0.0-19.0-0.0-0.99,A1BE3Y8ZDZ31BP,3X2LT8FDIZY82IMGP2COH9T7SM78W0,3JNQLM5FT82KRS6MV91NNRVB2R8L2B,3,4
100,2,object_02,object_09,346.32500074804,3,2,654.06499989331,0.0,1,object_04,1,1003,0,0,9,forest_4,2,memory-2step-stake-s,597,2561909,0.0-19.0-0.0-0.100,A1BE3Y8ZDZ31BP,3X2LT8FDIZY82IMGP2COH9T7SM78W0,3JNQLM5FT82KRS6MV91NNRVB2R8L2B,4,3
101,3,object_07,object_05,1134.5349997282,5,2,585.45999974012,0.3333333333333333,1,object_04,5,1018,0,3,8,library_7,2,memory-2step-stake-s,598,2570012,0.0-19.0-0.0-0.101,A1BE3Y8ZDZ31BP,3X2LT8FDIZY82IMGP2COH9T7SM78W0,3JNQLM5FT82KRS6MV91NNRVB2R8L2B,6,5
102,2,object_09,object_02,799.60500076413,3,1,497.75999970734,0.3333333333333333,1,object_04,5,1033,0,3,7,forest_3,2,memory-2step-stake-s,599,2578029,0.0-19.0-0.0-0.102,A1BE3Y8ZDZ31BP,3X2LT8FDIZY82IMGP2COH9T7SM78W0,3JNQLM5FT82KRS6MV91NNRVB2R8L2B,3,4
103,2,object_02,object_09,1066.0650003701,4,1,877.17000022531,0.5555555555555556,2,object_03,5,1058,0,2,5,forest_3,2,memory-2step-stake-s,600,2586622,0.0-19.0-0.0-0.103,A1BE3Y8ZDZ31BP,3X2LT8FDIZY82IMGP2COH9T7SM78W0,3JNQLM5FT82KRS6MV91NNRVB2R8L2B,4,3
104,1,object_08,object_10,1039.2599999905,1,1,746.31499964744,0.3333333333333333,1,object_04,5,1073,0,3,8,desert_5,2,memory-2step-stake-s,601,2594885,0.0-19.0-0.0-0.104,A1BE3Y8ZDZ31BP,3X2LT8FDIZY82IMGP2COH9T7SM78W0,3JNQLM5FT82KRS6MV91NNRVB2R8L2B,1,2
105,3,object_07,object_05,879.27999999374,5,2,626.13500002772,0.4444444444444444,1,object_04,5,1093,0,4,6,library_2,2,memory-2step-stake-s,602,2603129,0.0-19.0-0.0-0.105,A1BE3Y8ZDZ31BP,3X2LT8FDIZY82IMGP2COH9T7SM78W0,3JNQLM5FT82KRS6MV91NNRVB2R8L2B,6,5
106,1,object_08,object_10,788.39999996126,1,1,649.09000042826,0.5555555555555556,1,object_04,5,1118,0,5,3,desert_5,2,memory-2step-stake-s,603,2611495,0.0-19.0-0.0-0.106,A1BE3Y8ZDZ31BP,3X2LT8FDIZY82IMGP2COH9T7SM78W0,3JNQLM5FT82KRS6MV91NNRVB2R8L2B,1,2
107,4,object_01,object_06,783.6749991402,7,2,417.48499963433,0.5555555555555556,1,object_04,1,1123,0,5,1,restaurant_1,2,memory-2step-stake-s,604,2619629,0.0-19.0-0.0-0.107,A1BE3Y8ZDZ31BP,3X2LT8FDIZY82IMGP2COH9T7SM78W0,3JNQLM5FT82KRS6MV91NNRVB2R8L2B,8,7
108,1,object_08,object_10,591.74000006169,2,2,651.10999997705,0.0,2,object_03,5,1123,0,7,0,desert_1,2,memory-2step-stake-s,605,2627493,0.0-19.0-0.0-0.108,A1BE3Y8ZDZ31BP,3X2LT8FDIZY82IMGP2COH9T7SM78W0,3JNQLM5FT82KRS6MV91NNRVB2R8L2B,1,2
109,1,object_10,object_08,688.32499999553,2,1,379.0549999103,0.2222222222222222,2,object_03,5,1133,0,8,2,desert_1,2,memory-2step-stake-s,606,2635289,0.0-19.0-0.0-0.109,A1BE3Y8ZDZ31BP,3X2LT8FDIZY82IMGP2COH9T7SM78W0,3JNQLM5FT82KRS6MV91NNRVB2R8L2B,2,1
110,4,object_06,object_01,804.56500034779,8,2,343.51000003517,0.1111111111111111,2,object_03,1,1134,0,6,1,restaurant_3,2,memory-2step-stake-s,607,2642948,0.0-19.0-0.0-0.110,A1BE3Y8ZDZ31BP,3X2LT8FDIZY82IMGP2COH9T7SM78W0,3JNQLM5FT82KRS6MV91NNRVB2R8L2B,7,8
111,2,object_09,object_02,283.36500003934,3,1,750.160000287,0.6666666666666666,1,object_04,1,1140,0,6,5,forest_5,2,memory-2step-stake-s,608,2651517,0.0-19.0-0.0-0.111,A1BE3Y8ZDZ31BP,3X2LT8FDIZY82IMGP2COH9T7SM78W0,3JNQLM5FT82KRS6MV91NNRVB2R8L2B,3,4
112,1,object_08,object_10,480.26000056416,1,1,874.06000029296,0.8888888888888888,1,object_04,5,1180,0,8,5,desert_6,2,memory-2step-stake-s,609,2660415,0.0-19.0-0.0-0.112,A1BE3Y8ZDZ31BP,3X2LT8FDIZY82IMGP2COH9T7SM78W0,3JNQLM5FT82KRS6MV91NNRVB2R8L2B,1,2
113,4,object_01,object_06,614.81999978423,8,1,635.03499981016,1.0,2,object_03,5,1225,0,6,9,restaurant_8,2,memory-2step-stake-s,610,2669175,0.0-19.0-0.0-0.113,A1BE3Y8ZDZ31BP,3X2LT8FDIZY82IMGP2COH9T7SM78W0,3JNQLM5FT82KRS6MV91NNRVB2R8L2B,8,7
114,1,object_08,object_10,600.05000047386,1,1,794.08499971032,0.8888888888888888,1,object_04,5,1265,0,8,8,desert_1,2,memory-2step-stake-s,611,2677991,0.0-19.0-0.0-0.114,A1BE3Y8ZDZ31BP,3X2LT8FDIZY82IMGP2COH9T7SM78W0,3JNQLM5FT82KRS6MV91NNRVB2R8L2B,1,2
115,1,object_10,object_08,928.02000045776,1,2,1339.6800002083,0.8888888888888888,1,object_04,5,1305,0,8,3,desert_5,2,memory-2step-stake-s,612,2687353,0.0-19.0-0.0-0.115,A1BE3Y8ZDZ31BP,3X2LT8FDIZY82IMGP2COH9T7SM78W0,3JNQLM5FT82KRS6MV91NNRVB2R8L2B,2,1
116,4,object_06,object_01,708.64000078291,8,2,672.70500026643,0.2222222222222222,2,object_03,1,1307,0,6,2,restaurant_1,2,memory-2step-stake-s,613,2695442,0.0-19.0-0.0-0.116,A1BE3Y8ZDZ31BP,3X2LT8FDIZY82IMGP2COH9T7SM78W0,3JNQLM5FT82KRS6MV91NNRVB2R8L2B,7,8
117,1,object_10,object_08,614.26000017673,2,1,609.01500005275,0.3333333333333333,2,object_03,5,1322,0,5,3,desert_1,2,memory-2step-stake-s,614,2703568,0.0-19.0-0.0-0.117,A1BE3Y8ZDZ31BP,3X2LT8FDIZY82IMGP2COH9T7SM78W0,3JNQLM5FT82KRS6MV91NNRVB2R8L2B,2,1
118,2,object_02,object_09,496.15999963135,3,2,668.55000052601,0.5555555555555556,1,object_04,5,1347,0,5,5,forest_7,2,memory-2step-stake-s,615,2711952,0.0-19.0-0.0-0.118,A1BE3Y8ZDZ31BP,3X2LT8FDIZY82IMGP2COH9T7SM78W0,3JNQLM5FT82KRS6MV91NNRVB2R8L2B,4,3
119,4,object_06,object_01,640.62999933958,7,1,613.51499985904,1.0,1,object_04,1,1356,0,9,7,restaurant_8,2,memory-2step-stake-s,616,2720688,0.0-19.0-0.0-0.119,A1BE3Y8ZDZ31BP,3X2LT8FDIZY82IMGP2COH9T7SM78W0,3JNQLM5FT82KRS6MV91NNRVB2R8L2B,7,8
120,4,object_01,object_06,623.71500022709,8,1,747.26499989629,0.5555555555555556,2,object_03,1,1361,0,7,5,restaurant_4,2,memory-2step-stake-s,617,2729154,0.0-19.0-0.0-0.120,A1BE3Y8ZDZ31BP,3X2LT8FDIZY82IMGP2COH9T7SM78W0,3JNQLM5FT82KRS6MV91NNRVB2R8L2B,8,7
121,3,object_05,object_07,454.10500001162,6,2,648.99999927729,0.5555555555555556,2,object_03,1,1366,0,7,5,library_7,2,memory-2step-stake-s,618,2737522,0.0-19.0-0.0-0.121,A1BE3Y8ZDZ31BP,3X2LT8FDIZY82IMGP2COH9T7SM78W0,3JNQLM5FT82KRS6MV91NNRVB2R8L2B,5,6
122,3,object_05,object_07,582.1900004521,5,1,666.60000011325,0.8888888888888888,1,object_04,1,1374,0,8,4,library_1,2,memory-2step-stake-s,619,2746206,0.0-19.0-0.0-0.122,A1BE3Y8ZDZ31BP,3X2LT8FDIZY82IMGP2COH9T7SM78W0,3JNQLM5FT82KRS6MV91NNRVB2R8L2B,5,6
123,1,object_10,object_08,355.63000012189,1,2,572.61000014842,0.6666666666666666,1,object_04,5,1404,0,6,4,desert_6,2,memory-2step-stake-s,620,2754599,0.0-19.0-0.0-0.123,A1BE3Y8ZDZ31BP,3X2LT8FDIZY82IMGP2COH9T7SM78W0,3JNQLM5FT82KRS6MV91NNRVB2R8L2B,2,1
124,3,object_05,object_07,488.3050005883,6,2,404.99499998987,0.3333333333333333,2,object_03,1,1407,0,4,3,library_7,2,memory-2step-stake-s,621,2762519,0.0-19.0-0.0-0.124,A1BE3Y8ZDZ31BP,3X2LT8FDIZY82IMGP2COH9T7SM78W0,3JNQLM5FT82KRS6MV91NNRVB2R8L2B,5,6
125,1,object_08,object_10,505.19500020891,1,1,612.16500028968,0.5555555555555556,1,object_04,1,1412,0,5,5,desert_1,2,memory-2step-stake-s,622,2770851,0.0-19.0-0.0-0.125,A1BE3Y8ZDZ31BP,3X2LT8FDIZY82IMGP2COH9T7SM78W0,3JNQLM5FT82KRS6MV91NNRVB2R8L2B,1,2
126,1,object_08,object_10,1068.3899996802,2,2,1214.1249999404,0.4444444444444444,2,object_03,5,1432,0,5,4,desert_1,2,memory-2step-stake-s,623,2779683,0.0-19.0-0.0-0.126,A1BE3Y8ZDZ31BP,3X2LT8FDIZY82IMGP2COH9T7SM78W0,3JNQLM5FT82KRS6MV91NNRVB2R8L2B,1,2
127,1,object_10,object_08,589.27499968559,1,2,608.63499995321,0.5555555555555556,1,object_04,5,1457,0,5,6,desert_6,2,memory-2step-stake-s,624,2788010,0.0-19.0-0.0-0.127,A1BE3Y8ZDZ31BP,3X2LT8FDIZY82IMGP2COH9T7SM78W0,3JNQLM5FT82KRS6MV91NNRVB2R8L2B,2,1
128,4,object_06,object_01,742.4649996683,7,1,636.00999955088,0.4444444444444444,1,object_04,1,1461,0,4,5,restaurant_4,2,memory-2step-stake-s,626,2823415,0.0-19.0-0.1-0.128,A1BE3Y8ZDZ31BP,3X2LT8FDIZY82IMGP2COH9T7SM78W0,3JNQLM5FT82KRS6MV91NNRVB2R8L2B,7,8
129,3,object_07,object_05,417.65000019222,5,2,637.32500001788,0.5555555555555556,1,object_04,1,1466,0,5,5,library_2,2,memory-2step-stake-s,627,2831771,0.0-19.0-0.1-0.129,A1BE3Y8ZDZ31BP,3X2LT8FDIZY82IMGP2COH9T7SM78W0,3JNQLM5FT82KRS6MV91NNRVB2R8L2B,6,5
130,4,object_01,object_06,398.0000000447,8,1,664.56499975175,0.7777777777777778,2,object_03,1,1473,0,4,7,restaurant_3,2,memory-2step-stake-s,628,2840358,0.0-19.0-0.1-0.130,A1BE3Y8ZDZ31BP,3X2LT8FDIZY82IMGP2COH9T7SM78W0,3JNQLM5FT82KRS6MV91NNRVB2R8L2B,8,7
131,4,object_01,object_06,604.27000001073,7,2,669.88500021398,0.6666666666666666,1,object_04,1,1479,0,6,9,restaurant_1,2,memory-2step-stake-s,629,2848849,0.0-19.0-0.1-0.131,A1BE3Y8ZDZ31BP,3X2LT8FDIZY82IMGP2COH9T7SM78W0,3JNQLM5FT82KRS6MV91NNRVB2R8L2B,8,7
132,1,object_10,object_08,487.54000011832,2,1,355.49500025809,0.7777777777777778,2,object_03,5,1514,0,2,7,desert_1,2,memory-2step-stake-s,630,2857124,0.0-19.0-0.1-0.132,A1BE3Y8ZDZ31BP,3X2LT8FDIZY82IMGP2COH9T7SM78W0,3JNQLM5FT82KRS6MV91NNRVB2R8L2B,2,1
133,3,object_05,object_07,-1.0,-1,-1,-1.0,0.0,-,0,1,1514,0,0,8,library_3,2,memory-2step-stake-s,631,2863634,0.0-19.0-0.1-0.133,A1BE3Y8ZDZ31BP,3X2LT8FDIZY82IMGP2COH9T7SM78W0,3JNQLM5FT82KRS6MV91NNRVB2R8L2B,5,6
134,1,object_10,object_08,813.78000043333,1,2,408.92499964684,0.4444444444444444,1,object_04,5,1534,0,4,8,desert_5,2,memory-2step-stake-s,632,2871662,0.0-19.0-0.1-0.134,A1BE3Y8ZDZ31BP,3X2LT8FDIZY82IMGP2COH9T7SM78W0,3JNQLM5FT82KRS6MV91NNRVB2R8L2B,2,1
135,2,object_09,object_02,266.1849996075,4,2,422.09499981254,0.8888888888888888,2,object_03,5,1574,0,5,8,forest_5,2,memory-2step-stake-s,633,2880107,0.0-19.0-0.1-0.135,A1BE3Y8ZDZ31BP,3X2LT8FDIZY82IMGP2COH9T7SM78W0,3JNQLM5FT82KRS6MV91NNRVB2R8L2B,3,4
136,2,object_09,object_02,551.86500027776,3,1,555.56999985129,0.5555555555555556,1,object_04,5,1599,0,5,9,forest_5,2,memory-2step-stake-s,634,2888380,0.0-19.0-0.1-0.136,A1BE3Y8ZDZ31BP,3X2LT8FDIZY82IMGP2COH9T7SM78W0,3JNQLM5FT82KRS6MV91NNRVB2R8L2B,3,4
137,3,object_07,object_05,616.12999998033,6,1,617.17000044882,0.8888888888888888,2,object_03,1,1607,0,6,8,library_1,2,memory-2step-stake-s,635,2897022,0.0-19.0-0.1-0.137,A1BE3Y8ZDZ31BP,3X2LT8FDIZY82IMGP2COH9T7SM78W0,3JNQLM5FT82KRS6MV91NNRVB2R8L2B,6,5
138,3,object_05,object_07,404.66000046581,6,2,343.4499995783,0.7777777777777778,2,object_03,1,1614,0,7,7,library_7,2,memory-2step-stake-s,636,2905285,0.0-19.0-0.1-0.138,A1BE3Y8ZDZ31BP,3X2LT8FDIZY82IMGP2COH9T7SM78W0,3JNQLM5FT82KRS6MV91NNRVB2R8L2B,5,6
139,2,object_02,object_09,773.53500016034,3,2,1295.0999997556,0.8888888888888888,1,object_04,5,1654,0,8,6,forest_7,2,memory-2step-stake-s,637,2914603,0.0-19.0-0.1-0.139,A1BE3Y8ZDZ31BP,3X2LT8FDIZY82IMGP2COH9T7SM78W0,3JNQLM5FT82KRS6MV91NNRVB2R8L2B,4,3
140,1,object_08,object_10,790.72500020266,2,2,1113.4850000963,0.5555555555555556,2,object_03,5,1679,0,7,5,desert_3,2,memory-2step-stake-s,638,2923435,0.0-19.0-0.1-0.140,A1BE3Y8ZDZ31BP,3X2LT8FDIZY82IMGP2COH9T7SM78W0,3JNQLM5FT82KRS6MV91NNRVB2R8L2B,1,2
141,3,object_05,object_07,734.46999955922,6,2,466.04000031948,0.2222222222222222,2,object_03,1,1681,0,8,2,library_1,2,memory-2step-stake-s,639,2931318,0.0-19.0-0.1-0.141,A1BE3Y8ZDZ31BP,3X2LT8FDIZY82IMGP2COH9T7SM78W0,3JNQLM5FT82KRS6MV91NNRVB2R8L2B,5,6
142,1,object_10,object_08,372.54999950528,2,1,495.07000017911,0.2222222222222222,2,object_03,5,1691,0,8,2,desert_3,2,memory-2step-stake-s,640,2939230,0.0-19.0-0.1-0.142,A1BE3Y8ZDZ31BP,3X2LT8FDIZY82IMGP2COH9T7SM78W0,3JNQLM5FT82KRS6MV91NNRVB2R8L2B,2,1
143,3,object_05,object_07,367.37000010908,6,2,297.75499925017,0.2222222222222222,2,object_03,1,1693,0,8,2,library_3,2,memory-2step-stake-s,641,2946943,0.0-19.0-0.1-0.143,A1BE3Y8ZDZ31BP,3X2LT8FDIZY82IMGP2COH9T7SM78W0,3JNQLM5FT82KRS6MV91NNRVB2R8L2B,5,6
144,4,object_06,object_01,334.36000067741,7,1,673.95500000566,0.8888888888888888,1,object_04,1,1701,0,8,1,restaurant_8,2,memory-2step-stake-s,642,2955635,0.0-19.0-0.1-0.144,A1BE3Y8ZDZ31BP,3X2LT8FDIZY82IMGP2COH9T7SM78W0,3JNQLM5FT82KRS6MV91NNRVB2R8L2B,7,8
145,4,object_06,object_01,601.1250000447,7,1,476.21500026435,0.8888888888888888,1,object_04,5,1741,0,8,3,restaurant_1,2,memory-2step-stake-s,643,2964133,0.0-19.0-0.1-0.145,A1BE3Y8ZDZ31BP,3X2LT8FDIZY82IMGP2COH9T7SM78W0,3JNQLM5FT82KRS6MV91NNRVB2R8L2B,7,8
146,1,object_08,object_10,245.71500066668,2,2,361.62499990314,0.1111111111111111,2,object_03,5,1746,0,5,1,desert_3,2,memory-2step-stake-s,644,2971808,0.0-19.0-0.1-0.146,A1BE3Y8ZDZ31BP,3X2LT8FDIZY82IMGP2COH9T7SM78W0,3JNQLM5FT82KRS6MV91NNRVB2R8L2B,1,2
147,4,object_01,object_06,387.47499976307,8,1,549.96000044048,0.2222222222222222,2,object_03,1,1748,0,5,2,restaurant_4,2,memory-2step-stake-s,645,2979773,0.0-19.0-0.1-0.147,A1BE3Y8ZDZ31BP,3X2LT8FDIZY82IMGP2COH9T7SM78W0,3JNQLM5FT82KRS6MV91NNRVB2R8L2B,8,7
148,4,object_06,object_01,510.53499989212,8,2,377.55499966443,0.2222222222222222,2,object_03,1,1750,0,4,2,restaurant_1,2,memory-2step-stake-s,646,2987567,0.0-19.0-0.1-0.148,A1BE3Y8ZDZ31BP,3X2LT8FDIZY82IMGP2COH9T7SM78W0,3JNQLM5FT82KRS6MV91NNRVB2R8L2B,7,8
149,2,object_02,object_09,308.22500027716,4,1,416.05999972671,0.1111111111111111,2,object_03,1,1751,0,7,1,forest_4,2,memory-2step-stake-s,647,2995298,0.0-19.0-0.1-0.149,A1BE3Y8ZDZ31BP,3X2LT8FDIZY82IMGP2COH9T7SM78W0,3JNQLM5FT82KRS6MV91NNRVB2R8L2B,4,3
150,3,object_07,object_05,328.4149998799,5,2,699.75999929011,0.7777777777777778,1,object_04,1,1758,0,7,2,library_1,2,memory-2step-stake-s,648,3003923,0.0-19.0-0.1-0.150,A1BE3Y8ZDZ31BP,3X2LT8FDIZY82IMGP2COH9T7SM78W0,3JNQLM5FT82KRS6MV91NNRVB2R8L2B,6,5
151,2,object_09,object_02,561.91999930888,3,1,300.43999943882,1.0,1,object_04,5,1803,0,9,3,forest_7,2,memory-2step-stake-s,649,3012348,0.0-19.0-0.1-0.151,A1BE3Y8ZDZ31BP,3X2LT8FDIZY82IMGP2COH9T7SM78W0,3JNQLM5FT82KRS6MV91NNRVB2R8L2B,3,4
152,3,object_07,object_05,663.17499987781,5,2,331.93499967456,1.0,1,object_04,1,1812,0,9,3,library_3,2,memory-2step-stake-s,650,3020806,0.0-19.0-0.1-0.152,A1BE3Y8ZDZ31BP,3X2LT8FDIZY82IMGP2COH9T7SM78W0,3JNQLM5FT82KRS6MV91NNRVB2R8L2B,6,5
153,2,object_09,object_02,557.91500024498,3,1,472.71000035107,0.8888888888888888,1,object_04,5,1852,0,8,4,forest_4,2,memory-2step-stake-s,651,3029302,0.0-19.0-0.1-0.153,A1BE3Y8ZDZ31BP,3X2LT8FDIZY82IMGP2COH9T7SM78W0,3JNQLM5FT82KRS6MV91NNRVB2R8L2B,3,4
154,2,object_09,object_02,990.66499993205,3,1,753.22999991477,0.5555555555555556,1,object_04,5,1877,0,5,3,forest_3,2,memory-2step-stake-s,652,3037774,0.0-19.0-0.1-0.154,A1BE3Y8ZDZ31BP,3X2LT8FDIZY82IMGP2COH9T7SM78W0,3JNQLM5FT82KRS6MV91NNRVB2R8L2B,3,4
155,4,object_01,object_06,621.29500042647,7,2,391.01999998093,0.3333333333333333,1,object_04,1,1880,0,3,2,restaurant_4,2,memory-2step-stake-s,653,3045683,0.0-19.0-0.1-0.155,A1BE3Y8ZDZ31BP,3X2LT8FDIZY82IMGP2COH9T7SM78W0,3JNQLM5FT82KRS6MV91NNRVB2R8L2B,8,7
156,3,object_05,object_07,401.68499946594,5,1,540.19000008702,0.4444444444444444,1,object_04,1,1884,0,4,2,library_1,2,memory-2step-stake-s,654,3053840,0.0-19.0-0.1-0.156,A1BE3Y8ZDZ31BP,3X2LT8FDIZY82IMGP2COH9T7SM78W0,3JNQLM5FT82KRS6MV91NNRVB2R8L2B,5,6
157,3,object_07,object_05,411.96000017226,5,2,535.09499970824,0.3333333333333333,1,object_04,1,1887,0,3,1,library_2,2,memory-2step-stake-s,655,3061891,0.0-19.0-0.1-0.157,A1BE3Y8ZDZ31BP,3X2LT8FDIZY82IMGP2COH9T7SM78W0,3JNQLM5FT82KRS6MV91NNRVB2R8L2B,6,5
158,1,object_10,object_08,579.03499994427,2,1,358.4849992767,0.5555555555555556,2,object_03,5,1912,0,3,5,desert_5,2,memory-2step-stake-s,656,3069970,0.0-19.0-0.1-0.158,A1BE3Y8ZDZ31BP,3X2LT8FDIZY82IMGP2COH9T7SM78W0,3JNQLM5FT82KRS6MV91NNRVB2R8L2B,2,1
159,2,object_02,object_09,499.09499939531,3,2,421.88999988139,0.0,1,object_04,5,1912,0,0,5,forest_7,2,memory-2step-stake-s,657,3077605,0.0-19.0-0.1-0.159,A1BE3Y8ZDZ31BP,3X2LT8FDIZY82IMGP2COH9T7SM78W0,3JNQLM5FT82KRS6MV91NNRVB2R8L2B,4,3
160,4,object_01,object_06,705.04499971867,8,1,348.13500009477,0.5555555555555556,2,object_03,1,1917,0,0,5,restaurant_8,2,memory-2step-stake-s,658,3085673,0.0-19.0-0.1-0.160,A1BE3Y8ZDZ31BP,3X2LT8FDIZY82IMGP2COH9T7SM78W0,3JNQLM5FT82KRS6MV91NNRVB2R8L2B,8,7
161,2,object_09,object_02,549.04500022531,4,2,568.85000038892,0.2222222222222222,2,object_03,5,1927,0,1,2,forest_5,2,memory-2step-stake-s,659,3093654,0.0-19.0-0.1-0.161,A1BE3Y8ZDZ31BP,3X2LT8FDIZY82IMGP2COH9T7SM78W0,3JNQLM5FT82KRS6MV91NNRVB2R8L2B,3,4
162,4,object_06,object_01,767.54999998957,7,1,745.3499995172,0.1111111111111111,1,object_04,5,1932,0,1,0,restaurant_1,2,memory-2step-stake-s,660,3101715,0.0-19.0-0.1-0.162,A1BE3Y8ZDZ31BP,3X2LT8FDIZY82IMGP2COH9T7SM78W0,3JNQLM5FT82KRS6MV91NNRVB2R8L2B,7,8
163,4,object_01,object_06,954.97499965131,8,1,396.35999966413,0.0,2,object_03,5,1932,0,0,0,restaurant_1,2,memory-2step-stake-s,661,3109327,0.0-19.0-0.1-0.163,A1BE3Y8ZDZ31BP,3X2LT8FDIZY82IMGP2COH9T7SM78W0,3JNQLM5FT82KRS6MV91NNRVB2R8L2B,8,7
164,2,object_09,object_02,808.82999952883,4,2,298.64499997348,0.1111111111111111,2,object_03,1,1933,0,1,1,forest_7,2,memory-2step-stake-s,662,3116939,0.0-19.0-0.1-0.164,A1BE3Y8ZDZ31BP,3X2LT8FDIZY82IMGP2COH9T7SM78W0,3JNQLM5FT82KRS6MV91NNRVB2R8L2B,3,4
165,2,object_02,object_09,457.64499995857,3,2,331.93999994546,0.3333333333333333,1,object_04,5,1948,0,3,1,forest_5,2,memory-2step-stake-s,663,3124791,0.0-19.0-0.1-0.165,A1BE3Y8ZDZ31BP,3X2LT8FDIZY82IMGP2COH9T7SM78W0,3JNQLM5FT82KRS6MV91NNRVB2R8L2B,4,3
166,3,object_07,object_05,702.56999973208,6,1,609.10499934107,0.0,2,object_03,1,1948,0,4,0,library_2,2,memory-2step-stake-s,664,3132613,0.0-19.0-0.1-0.166,A1BE3Y8ZDZ31BP,3X2LT8FDIZY82IMGP2COH9T7SM78W0,3JNQLM5FT82KRS6MV91NNRVB2R8L2B,6,5
167,4,object_06,object_01,929.05999999493,7,1,500.99499989301,0.5555555555555556,1,object_04,1,1953,0,5,0,restaurant_8,2,memory-2step-stake-s,665,3140830,0.0-19.0-0.1-0.167,A1BE3Y8ZDZ31BP,3X2LT8FDIZY82IMGP2COH9T7SM78W0,3JNQLM5FT82KRS6MV91NNRVB2R8L2B,7,8
168,2,object_02,object_09,665.91500025243,4,1,445.11500000954,0.0,2,object_03,5,1953,0,5,0,forest_5,2,memory-2step-stake-s,666,3148486,0.0-19.0-0.1-0.168,A1BE3Y8ZDZ31BP,3X2LT8FDIZY82IMGP2COH9T7SM78W0,3JNQLM5FT82KRS6MV91NNRVB2R8L2B,4,3
169,2,object_09,object_02,257.58500024676,4,2,860.44499929994,0.0,2,object_03,5,1953,0,4,0,forest_3,2,memory-2step-stake-s,667,3156558,0.0-19.0-0.1-0.169,A1BE3Y8ZDZ31BP,3X2LT8FDIZY82IMGP2COH9T7SM78W0,3JNQLM5FT82KRS6MV91NNRVB2R8L2B,3,4
170,3,object_05,object_07,584.26500018686,6,2,419.98500004411,0.0,2,object_03,1,1953,0,3,0,library_7,2,memory-2step-stake-s,668,3164191,0.0-19.0-0.1-0.170,A1BE3Y8ZDZ31BP,3X2LT8FDIZY82IMGP2COH9T7SM78W0,3JNQLM5FT82KRS6MV91NNRVB2R8L2B,5,6
171,3,object_05,object_07,287.41499967873,5,1,482.33000002801,0.5555555555555556,1,object_04,1,1958,0,5,1,library_2,2,memory-2step-stake-s,669,3172390,0.0-19.0-0.1-0.171,A1BE3Y8ZDZ31BP,3X2LT8FDIZY82IMGP2COH9T7SM78W0,3JNQLM5FT82KRS6MV91NNRVB2R8L2B,5,6
172,4,object_06,object_01,463.72999995947,8,2,449.35000035912,0.3333333333333333,2,object_03,1,1961,0,4,3,restaurant_4,2,memory-2step-stake-s,670,3180358,0.0-19.0-0.1-0.172,A1BE3Y8ZDZ31BP,3X2LT8FDIZY82IMGP2COH9T7SM78W0,3JNQLM5FT82KRS6MV91NNRVB2R8L2B,7,8
173,2,object_02,object_09,657.77500066906,3,2,396.73500042409,0.3333333333333333,1,object_04,5,1976,0,3,2,forest_5,2,memory-2step-stake-s,671,3188271,0.0-19.0-0.1-0.173,A1BE3Y8ZDZ31BP,3X2LT8FDIZY82IMGP2COH9T7SM78W0,3JNQLM5FT82KRS6MV91NNRVB2R8L2B,4,3
174,4,object_06,object_01,360.10500043631,7,1,443.74499935657,0.3333333333333333,1,object_04,1,1979,0,3,0,restaurant_3,2,memory-2step-stake-s,672,3196231,0.0-19.0-0.1-0.174,A1BE3Y8ZDZ31BP,3X2LT8FDIZY82IMGP2COH9T7SM78W0,3JNQLM5FT82KRS6MV91NNRVB2R8L2B,7,8
175,1,object_10,object_08,543.46500057727,2,1,489.92000054568,0.0,2,object_03,1,1979,0,5,0,desert_1,2,memory-2step-stake-s,673,3203936,0.0-19.0-0.1-0.175,A1BE3Y8ZDZ31BP,3X2LT8FDIZY82IMGP2COH9T7SM78W0,3JNQLM5FT82KRS6MV91NNRVB2R8L2B,2,1
176,3,object_07,object_05,703.29499989748,5,2,650.36999993026,0.5555555555555556,1,object_04,1,1984,0,5,1,library_3,2,memory-2step-stake-s,674,3212306,0.0-19.0-0.1-0.176,A1BE3Y8ZDZ31BP,3X2LT8FDIZY82IMGP2COH9T7SM78W0,3JNQLM5FT82KRS6MV91NNRVB2R8L2B,6,5
177,4,object_06,object_01,491.9150006026,7,1,389.4750000909,0.8888888888888888,1,object_04,1,1992,0,8,2,restaurant_1,2,memory-2step-stake-s,675,3220718,0.0-19.0-0.1-0.177,A1BE3Y8ZDZ31BP,3X2LT8FDIZY82IMGP2COH9T7SM78W0,3JNQLM5FT82KRS6MV91NNRVB2R8L2B,7,8
178,4,object_06,object_01,673.32999967039,8,2,388.25500011444,0.0,2,object_03,1,1992,0,7,0,restaurant_4,2,memory-2step-stake-s,676,3228319,0.0-19.0-0.1-0.178,A1BE3Y8ZDZ31BP,3X2LT8FDIZY82IMGP2COH9T7SM78W0,3JNQLM5FT82KRS6MV91NNRVB2R8L2B,7,8
179,4,object_06,object_01,936.63000036031,8,2,652.44999993593,0.2222222222222222,2,object_03,1,1994,0,9,2,restaurant_8,2,memory-2step-stake-s,677,3236387,0.0-19.0-0.1-0.179,A1BE3Y8ZDZ31BP,3X2LT8FDIZY82IMGP2COH9T7SM78W0,3JNQLM5FT82KRS6MV91NNRVB2R8L2B,7,8
180,1,object_08,object_10,1180.320000276,1,1,680.90499937534,0.8888888888888888,1,object_04,5,2034,0,8,1,desert_5,2,memory-2step-stake-s,678,3245089,0.0-19.0-0.1-0.180,A1BE3Y8ZDZ31BP,3X2LT8FDIZY82IMGP2COH9T7SM78W0,3JNQLM5FT82KRS6MV91NNRVB2R8L2B,1,2
181,2,object_02,object_09,615.170000121,3,2,-1.0,0.0,1,object_04,5,2034,0,7,2,forest_3,2,memory-2step-stake-s,679,3253602,0.0-19.0-0.1-0.181,A1BE3Y8ZDZ31BP,3X2LT8FDIZY82IMGP2COH9T7SM78W0,3JNQLM5FT82KRS6MV91NNRVB2R8L2B,4,3
182,1,object_10,object_08,550.95000006258,2,1,1151.9700000063,0.0,2,object_03,5,2034,0,5,0,desert_5,2,memory-2step-stake-s,680,3261968,0.0-19.0-0.1-0.182,A1BE3Y8ZDZ31BP,3X2LT8FDIZY82IMGP2COH9T7SM78W0,3JNQLM5FT82KRS6MV91NNRVB2R8L2B,2,1
183,2,object_09,object_02,695.7550002262,3,1,330.32999932766,0.6666666666666666,1,object_04,5,2064,0,6,1,forest_3,2,memory-2step-stake-s,681,3270119,0.0-19.0-0.1-0.183,A1BE3Y8ZDZ31BP,3X2LT8FDIZY82IMGP2COH9T7SM78W0,3JNQLM5FT82KRS6MV91NNRVB2R8L2B,3,4
184,1,object_08,object_10,456.25999942422,2,2,363.64999972284,0.0,2,object_03,5,2064,0,3,0,desert_3,2,memory-2step-stake-s,682,3277696,0.0-19.0-0.1-0.184,A1BE3Y8ZDZ31BP,3X2LT8FDIZY82IMGP2COH9T7SM78W0,3JNQLM5FT82KRS6MV91NNRVB2R8L2B,1,2
185,2,object_09,object_02,607.42999985814,3,1,402.24999934435,0.2222222222222222,1,object_04,5,2074,0,2,2,forest_5,2,memory-2step-stake-s,683,3285516,0.0-19.0-0.1-0.185,A1BE3Y8ZDZ31BP,3X2LT8FDIZY82IMGP2COH9T7SM78W0,3JNQLM5FT82KRS6MV91NNRVB2R8L2B,3,4
186,4,object_06,object_01,340.07999952883,7,1,254.7800000757,0.1111111111111111,1,object_04,1,2075,0,1,5,restaurant_3,2,memory-2step-stake-s,684,3293086,0.0-19.0-0.1-0.186,A1BE3Y8ZDZ31BP,3X2LT8FDIZY82IMGP2COH9T7SM78W0,3JNQLM5FT82KRS6MV91NNRVB2R8L2B,7,8
187,1,object_10,object_08,683.24000015855,1,2,350.08999984711,0.3333333333333333,1,object_04,5,2090,0,3,3,desert_3,2,memory-2step-stake-s,685,3300953,0.0-19.0-0.1-0.187,A1BE3Y8ZDZ31BP,3X2LT8FDIZY82IMGP2COH9T7SM78W0,3JNQLM5FT82KRS6MV91NNRVB2R8L2B,2,1
188,4,object_01,object_06,528.21999974549,8,1,525.20999964327,0.4444444444444444,2,object_03,5,2110,0,5,4,restaurant_3,2,memory-2step-stake-s,686,3309096,0.0-19.0-0.1-0.188,A1BE3Y8ZDZ31BP,3X2LT8FDIZY82IMGP2COH9T7SM78W0,3JNQLM5FT82KRS6MV91NNRVB2R8L2B,8,7
189,2,object_09,object_02,696.96999993175,3,1,450.78000053763,1.0,1,object_04,5,2155,0,9,7,forest_7,2,memory-2step-stake-s,687,3317673,0.0-19.0-0.1-0.189,A1BE3Y8ZDZ31BP,3X2LT8FDIZY82IMGP2COH9T7SM78W0,3JNQLM5FT82KRS6MV91NNRVB2R8L2B,3,4
190,2,object_09,object_02,745.05000002682,3,1,364.34999946505,1.0,1,object_04,5,2200,0,9,9,forest_7,2,memory-2step-stake-s,688,3326159,0.0-19.0-0.1-0.190,A1BE3Y8ZDZ31BP,3X2LT8FDIZY82IMGP2COH9T7SM78W0,3JNQLM5FT82KRS6MV91NNRVB2R8L2B,3,4
191,1,object_10,object_08,1240.3600001708,1,2,723.64500071853,1.0,1,object_04,1,2209,0,9,6,desert_5,2,memory-2step-stake-s,689,3335004,0.0-19.0-0.1-0.191,A1BE3Y8ZDZ31BP,3X2LT8FDIZY82IMGP2COH9T7SM78W0,3JNQLM5FT82KRS6MV91NNRVB2R8L2B,2,1
192,1,object_10,object_08,1125.5950005725,1,2,407.96999912709,0.8888888888888888,1,object_04,5,2249,0,8,5,desert_1,2,memory-2step-stake-s,690,3343436,0.0-19.0-0.1-0.192,A1BE3Y8ZDZ31BP,3X2LT8FDIZY82IMGP2COH9T7SM78W0,3JNQLM5FT82KRS6MV91NNRVB2R8L2B,2,1
193,1,object_10,object_08,684.61499921978,1,2,528.09999976307,1.0,1,object_04,5,2294,0,9,7,desert_3,2,memory-2step-stake-s,691,3352085,0.0-19.0-0.1-0.193,A1BE3Y8ZDZ31BP,3X2LT8FDIZY82IMGP2COH9T7SM78W0,3JNQLM5FT82KRS6MV91NNRVB2R8L2B,2,1
194,3,object_07,object_05,1044.3450007588,5,2,545.37500068545,0.8888888888888888,1,object_04,5,2334,0,8,9,library_3,2,memory-2step-stake-s,692,3360650,0.0-19.0-0.1-0.194,A1BE3Y8ZDZ31BP,3X2LT8FDIZY82IMGP2COH9T7SM78W0,3JNQLM5FT82KRS6MV91NNRVB2R8L2B,6,5
195,4,object_01,object_06,801.14499945194,8,1,830.07000014186,0.7777777777777778,2,object_03,5,2369,0,5,7,restaurant_3,2,memory-2step-stake-s,693,3369397,0.0-19.0-0.1-0.195,A1BE3Y8ZDZ31BP,3X2LT8FDIZY82IMGP2COH9T7SM78W0,3JNQLM5FT82KRS6MV91NNRVB2R8L2B,8,7
196,2,object_02,object_09,406.58000018448,3,2,586.41500025988,0.4444444444444444,1,object_04,5,2389,0,4,3,forest_3,2,memory-2step-stake-s,694,3377599,0.0-19.0-0.1-0.196,A1BE3Y8ZDZ31BP,3X2LT8FDIZY82IMGP2COH9T7SM78W0,3JNQLM5FT82KRS6MV91NNRVB2R8L2B,4,3
197,4,object_06,object_01,890.67000057548,8,2,360.34499946982,0.2222222222222222,2,object_03,1,2391,0,0,2,restaurant_3,2,memory-2step-stake-s,695,3385374,0.0-19.0-0.1-0.197,A1BE3Y8ZDZ31BP,3X2LT8FDIZY82IMGP2COH9T7SM78W0,3JNQLM5FT82KRS6MV91NNRVB2R8L2B,7,8
198,2,object_09,object_02,556.07999954373,3,1,431.90499953926,0.0,1,object_04,5,2391,0,0,2,forest_7,2,memory-2step-stake-s,696,3393019,0.0-19.0-0.1-0.198,A1BE3Y8ZDZ31BP,3X2LT8FDIZY82IMGP2COH9T7SM78W0,3JNQLM5FT82KRS6MV91NNRVB2R8L2B,3,4
199,4,object_01,object_06,351.93999949843,7,2,898.1299996376,0.1111111111111111,1,object_04,1,2392,0,1,3,restaurant_1,2,memory-2step-stake-s,697,3401230,0.0-19.0-0.1-0.199,A1BE3Y8ZDZ31BP,3X2LT8FDIZY82IMGP2COH9T7SM78W0,3JNQLM5FT82KRS6MV91NNRVB2R8L2B,8,7
200,2,object_09,object_02,547.36999981105,3,1,590.40500037372,0.3333333333333333,1,object_04,5,2407,0,3,5,forest_3,2,memory-2step-stake-s,698,3409337,0.0-19.0-0.1-0.200,A1BE3Y8ZDZ31BP,3X2LT8FDIZY82IMGP2COH9T7SM78W0,3JNQLM5FT82KRS6MV91NNRVB2R8L2B,3,4
201,2,object_09,object_02,319.87999938428,4,2,434.72499959171,0.3333333333333333,2,object_03,5,2422,0,6,3,forest_7,2,memory-2step-stake-s,699,3417290,0.0-19.0-0.1-0.201,A1BE3Y8ZDZ31BP,3X2LT8FDIZY82IMGP2COH9T7SM78W0,3JNQLM5FT82KRS6MV91NNRVB2R8L2B,3,4
202,1,object_10,object_08,479.04999926686,2,1,490.96999969333,0.2222222222222222,2,object_03,5,2432,0,4,2,desert_6,2,memory-2step-stake-s,700,3425196,0.0-19.0-0.1-0.202,A1BE3Y8ZDZ31BP,3X2LT8FDIZY82IMGP2COH9T7SM78W0,3JNQLM5FT82KRS6MV91NNRVB2R8L2B,2,1
203,2,object_09,object_02,326.77999977022,4,2,561.07999943197,0.0,2,object_03,5,2432,0,7,0,forest_5,2,memory-2step-stake-s,701,3432971,0.0-19.0-0.1-0.203,A1BE3Y8ZDZ31BP,3X2LT8FDIZY82IMGP2COH9T7SM78W0,3JNQLM5FT82KRS6MV91NNRVB2R8L2B,3,4
204,3,object_07,object_05,400.67999996245,6,1,-1.0,0.0,2,object_03,1,2432,0,6,2,library_7,2,memory-2step-stake-s,702,3441483,0.0-19.0-0.1-0.204,A1BE3Y8ZDZ31BP,3X2LT8FDIZY82IMGP2COH9T7SM78W0,3JNQLM5FT82KRS6MV91NNRVB2R8L2B,6,5
205,2,object_02,object_09,599.93499983102,3,2,491.56499933451,0.3333333333333333,1,object_04,5,2447,0,3,2,forest_3,2,memory-2step-stake-s,703,3449491,0.0-19.0-0.1-0.205,A1BE3Y8ZDZ31BP,3X2LT8FDIZY82IMGP2COH9T7SM78W0,3JNQLM5FT82KRS6MV91NNRVB2R8L2B,4,3
206,3,object_07,object_05,513.23499996215,6,1,939.92999941111,0.5555555555555556,2,object_03,1,2452,0,5,5,library_7,2,memory-2step-stake-s,704,3458147,0.0-19.0-0.1-0.206,A1BE3Y8ZDZ31BP,3X2LT8FDIZY82IMGP2COH9T7SM78W0,3JNQLM5FT82KRS6MV91NNRVB2R8L2B,6,5
207,2,object_09,object_02,864.77999947965,3,1,331.07999991626,0.3333333333333333,1,object_04,1,2455,0,3,5,forest_4,2,memory-2step-stake-s,705,3465995,0.0-19.0-0.1-0.207,A1BE3Y8ZDZ31BP,3X2LT8FDIZY82IMGP2COH9T7SM78W0,3JNQLM5FT82KRS6MV91NNRVB2R8L2B,3,4
208,3,object_07,object_05,1305.3750004619,6,1,-1.0,0.0,2,object_03,1,2455,0,0,2,library_7,2,memory-2step-stake-s,706,3474508,0.0-19.0-0.1-0.208,A1BE3Y8ZDZ31BP,3X2LT8FDIZY82IMGP2COH9T7SM78W0,3JNQLM5FT82KRS6MV91NNRVB2R8L2B,6,5
209,4,object_01,object_06,637.7400001511,7,2,851.39500070363,0.2222222222222222,1,object_04,1,2457,0,2,2,restaurant_1,2,memory-2step-stake-s,707,3482775,0.0-19.0-0.1-0.209,A1BE3Y8ZDZ31BP,3X2LT8FDIZY82IMGP2COH9T7SM78W0,3JNQLM5FT82KRS6MV91NNRVB2R8L2B,8,7
210,1,object_10,object_08,661.98500059545,2,1,562.28999979794,0.0,2,object_03,5,2457,0,0,0,desert_3,2,memory-2step-stake-s,708,3490548,0.0-19.0-0.1-0.210,A1BE3Y8ZDZ31BP,3X2LT8FDIZY82IMGP2COH9T7SM78W0,3JNQLM5FT82KRS6MV91NNRVB2R8L2B,2,1
211,1,object_08,object_10,446.32999971509,1,1,417.32000000775,0.3333333333333333,1,object_04,5,2472,0,3,2,desert_6,2,memory-2step-stake-s,709,3498482,0.0-19.0-0.1-0.211,A1BE3Y8ZDZ31BP,3X2LT8FDIZY82IMGP2COH9T7SM78W0,3JNQLM5FT82KRS6MV91NNRVB2R8L2B,1,2
212,3,object_05,object_07,746.88499979675,6,2,661.82500030845,0.4444444444444444,2,object_03,1,2476,0,3,4,library_2,2,memory-2step-stake-s,710,3506761,0.0-19.0-0.1-0.212,A1BE3Y8ZDZ31BP,3X2LT8FDIZY82IMGP2COH9T7SM78W0,3JNQLM5FT82KRS6MV91NNRVB2R8L2B,5,6
213,4,object_06,object_01,378.86499986053,7,1,557.98000004143,0.6666666666666666,1,object_04,1,2482,0,6,9,restaurant_4,2,memory-2step-stake-s,711,3515142,0.0-19.0-0.1-0.213,A1BE3Y8ZDZ31BP,3X2LT8FDIZY82IMGP2COH9T7SM78W0,3JNQLM5FT82KRS6MV91NNRVB2R8L2B,7,8
214,2,object_09,object_02,519.15499940515,3,1,499.06999990344,0.7777777777777778,1,object_04,5,2517,0,7,5,forest_4,2,memory-2step-stake-s,712,3523560,0.0-19.0-0.1-0.214,A1BE3Y8ZDZ31BP,3X2LT8FDIZY82IMGP2COH9T7SM78W0,3JNQLM5FT82KRS6MV91NNRVB2R8L2B,3,4
215,2,object_02,object_09,563.71999997646,3,2,566.63999985904,0.6666666666666666,1,object_04,5,2547,0,6,6,forest_7,2,memory-2step-stake-s,713,3531945,0.0-19.0-0.1-0.215,A1BE3Y8ZDZ31BP,3X2LT8FDIZY82IMGP2COH9T7SM78W0,3JNQLM5FT82KRS6MV91NNRVB2R8L2B,4,3
216,3,object_05,object_07,667.98499971628,5,1,406.95500001311,0.6666666666666666,1,object_04,1,2553,0,6,7,library_7,2,memory-2step-stake-s,714,3540171,0.0-19.0-0.1-0.216,A1BE3Y8ZDZ31BP,3X2LT8FDIZY82IMGP2COH9T7SM78W0,3JNQLM5FT82KRS6MV91NNRVB2R8L2B,5,6
217,3,object_05,object_07,536.94500029087,6,2,515.70999994874,1.0,2,object_03,1,2562,0,8,9,library_2,2,memory-2step-stake-s,715,3548809,0.0-19.0-0.1-0.217,A1BE3Y8ZDZ31BP,3X2LT8FDIZY82IMGP2COH9T7SM78W0,3JNQLM5FT82KRS6MV91NNRVB2R8L2B,5,6
218,3,object_05,object_07,693.12500022352,5,1,584.69500020146,0.8888888888888888,1,object_04,1,2570,0,8,4,library_1,2,memory-2step-stake-s,716,3557412,0.0-19.0-0.1-0.218,A1BE3Y8ZDZ31BP,3X2LT8FDIZY82IMGP2COH9T7SM78W0,3JNQLM5FT82KRS6MV91NNRVB2R8L2B,5,6
219,3,object_05,object_07,522.45000004768,6,2,334.24500003457,0.2222222222222222,2,object_03,5,2580,0,7,2,library_1,2,memory-2step-stake-s,717,3565159,0.0-19.0-0.1-0.219,A1BE3Y8ZDZ31BP,3X2LT8FDIZY82IMGP2COH9T7SM78W0,3JNQLM5FT82KRS6MV91NNRVB2R8L2B,5,6
220,3,object_07,object_05,430.49500044435,6,1,449.34499915689,0.2222222222222222,2,object_03,5,2590,0,6,2,library_3,2,memory-2step-stake-s,718,3573022,0.0-19.0-0.1-0.220,A1BE3Y8ZDZ31BP,3X2LT8FDIZY82IMGP2COH9T7SM78W0,3JNQLM5FT82KRS6MV91NNRVB2R8L2B,6,5
221,3,object_07,object_05,365.76499976218,5,2,647.22500089556,0.5555555555555556,1,object_04,1,2595,0,5,1,library_1,2,memory-2step-stake-s,719,3581390,0.0-19.0-0.1-0.221,A1BE3Y8ZDZ31BP,3X2LT8FDIZY82IMGP2COH9T7SM78W0,3JNQLM5FT82KRS6MV91NNRVB2R8L2B,6,5
222,1,object_08,object_10,509.75500047207,1,1,352.71499957889,0.6666666666666666,1,object_04,5,2625,0,6,0,desert_3,2,memory-2step-stake-s,720,3589565,0.0-19.0-0.1-0.222,A1BE3Y8ZDZ31BP,3X2LT8FDIZY82IMGP2COH9T7SM78W0,3JNQLM5FT82KRS6MV91NNRVB2R8L2B,1,2
223,4,object_06,object_01,454.61000036448,8,2,377.44500022382,0.6666666666666666,2,object_03,1,2631,0,5,6,restaurant_8,2,memory-2step-stake-s,721,3597763,0.0-19.0-0.1-0.223,A1BE3Y8ZDZ31BP,3X2LT8FDIZY82IMGP2COH9T7SM78W0,3JNQLM5FT82KRS6MV91NNRVB2R8L2B,7,8
224,4,object_06,object_01,355.21499998868,7,1,479.38499972224,0.8888888888888888,1,object_04,1,2639,0,8,6,restaurant_4,2,memory-2step-stake-s,722,3606263,0.0-19.0-0.1-0.224,A1BE3Y8ZDZ31BP,3X2LT8FDIZY82IMGP2COH9T7SM78W0,3JNQLM5FT82KRS6MV91NNRVB2R8L2B,7,8
225,4,object_06,object_01,1007.0349993184,7,1,970.7800000906,0.7777777777777778,1,object_04,1,2646,0,7,6,restaurant_8,2,memory-2step-stake-s,723,3615152,0.0-19.0-0.1-0.225,A1BE3Y8ZDZ31BP,3X2LT8FDIZY82IMGP2COH9T7SM78W0,3JNQLM5FT82KRS6MV91NNRVB2R8L2B,7,8
226,3,object_07,object_05,540.6800005585,6,1,357.83499944955,0.6666666666666666,2,object_03,1,2652,0,9,6,library_3,2,memory-2step-stake-s,724,3623332,0.0-19.0-0.1-0.226,A1BE3Y8ZDZ31BP,3X2LT8FDIZY82IMGP2COH9T7SM78W0,3JNQLM5FT82KRS6MV91NNRVB2R8L2B,6,5
227,2,object_02,object_09,721.42499964684,4,1,444.46500018239,0.6666666666666666,2,object_03,5,2682,0,8,6,forest_3,2,memory-2step-stake-s,725,3631597,0.0-19.0-0.1-0.227,A1BE3Y8ZDZ31BP,3X2LT8FDIZY82IMGP2COH9T7SM78W0,3JNQLM5FT82KRS6MV91NNRVB2R8L2B,4,3
228,3,object_07,object_05,599.82999972999,6,1,1050.6149996072,0.6666666666666666,2,object_03,1,2688,0,8,6,library_2,2,memory-2step-stake-s,726,3640468,0.0-19.0-0.1-0.228,A1BE3Y8ZDZ31BP,3X2LT8FDIZY82IMGP2COH9T7SM78W0,3JNQLM5FT82KRS6MV91NNRVB2R8L2B,6,5
229,3,object_05,object_07,617.24499985576,6,2,556.58499989659,0.5555555555555556,2,object_03,1,2693,0,8,5,library_3,2,memory-2step-stake-s,727,3648743,0.0-19.0-0.1-0.229,A1BE3Y8ZDZ31BP,3X2LT8FDIZY82IMGP2COH9T7SM78W0,3JNQLM5FT82KRS6MV91NNRVB2R8L2B,5,6
230,1,object_10,object_08,335.2049998939,2,1,506.18000049144,0.4444444444444444,2,object_03,5,2713,0,6,4,desert_3,2,memory-2step-stake-s,728,3656867,0.0-19.0-0.1-0.230,A1BE3Y8ZDZ31BP,3X2LT8FDIZY82IMGP2COH9T7SM78W0,3JNQLM5FT82KRS6MV91NNRVB2R8L2B,2,1
231,2,object_09,object_02,643.15999951214,3,1,542.77999978513,0.7777777777777778,1,object_04,5,2748,0,7,1,forest_4,2,memory-2step-stake-s,729,3665332,0.0-19.0-0.1-0.231,A1BE3Y8ZDZ31BP,3X2LT8FDIZY82IMGP2COH9T7SM78W0,3JNQLM5FT82KRS6MV91NNRVB2R8L2B,3,4
232,4,object_01,object_06,522.61499967426,8,1,-1.0,0.0,2,object_03,1,2748,0,7,3,restaurant_1,2,memory-2step-stake-s,730,3673845,0.0-19.0-0.1-0.232,A1BE3Y8ZDZ31BP,3X2LT8FDIZY82IMGP2COH9T7SM78W0,3JNQLM5FT82KRS6MV91NNRVB2R8L2B,8,7
233,1,object_10,object_08,529.06499989331,2,1,574.28499963135,0.3333333333333333,2,object_03,1,2751,0,5,3,desert_5,2,memory-2step-stake-s,731,3681934,0.0-19.0-0.1-0.233,A1BE3Y8ZDZ31BP,3X2LT8FDIZY82IMGP2COH9T7SM78W0,3JNQLM5FT82KRS6MV91NNRVB2R8L2B,2,1
234,3,object_07,object_05,577.13000010699,5,2,443.74500028789,0.3333333333333333,1,object_04,1,2754,0,3,1,library_7,2,memory-2step-stake-s,732,3689893,0.0-19.0-0.1-0.234,A1BE3Y8ZDZ31BP,3X2LT8FDIZY82IMGP2COH9T7SM78W0,3JNQLM5FT82KRS6MV91NNRVB2R8L2B,6,5
235,3,object_07,object_05,432.71500058472,6,1,355.63999973238,0.0,2,object_03,1,2754,0,2,0,library_7,2,memory-2step-stake-s,733,3697464,0.0-19.0-0.1-0.235,A1BE3Y8ZDZ31BP,3X2LT8FDIZY82IMGP2COH9T7SM78W0,3JNQLM5FT82KRS6MV91NNRVB2R8L2B,6,5
236,4,object_06,object_01,390.88500011712,8,2,440.86000043899,0.1111111111111111,2,object_03,1,2755,0,3,1,restaurant_3,2,memory-2step-stake-s,734,3705219,0.0-19.0-0.1-0.236,A1BE3Y8ZDZ31BP,3X2LT8FDIZY82IMGP2COH9T7SM78W0,3JNQLM5FT82KRS6MV91NNRVB2R8L2B,7,8
237,3,object_07,object_05,578.73000018299,6,1,444.48999967426,0.1111111111111111,2,object_03,1,2756,0,3,1,library_1,2,memory-2step-stake-s,735,3712979,0.0-19.0-0.1-0.237,A1BE3Y8ZDZ31BP,3X2LT8FDIZY82IMGP2COH9T7SM78W0,3JNQLM5FT82KRS6MV91NNRVB2R8L2B,6,5
238,3,object_05,object_07,98.279999569058,6,2,239.23000041395,0.2222222222222222,2,object_03,1,2758,0,0,2,library_7,2,memory-2step-stake-s,736,3720634,0.0-19.0-0.1-0.238,A1BE3Y8ZDZ31BP,3X2LT8FDIZY82IMGP2COH9T7SM78W0,3JNQLM5FT82KRS6MV91NNRVB2R8L2B,5,6
239,4,object_06,object_01,203.8500001654,7,1,790.71999993175,0.4444444444444444,1,object_04,1,2762,0,4,0,restaurant_4,2,memory-2step-stake-s,737,3729045,0.0-19.0-0.1-0.239,A1BE3Y8ZDZ31BP,3X2LT8FDIZY82IMGP2COH9T7SM78W0,3JNQLM5FT82KRS6MV91NNRVB2R8L2B,7,8
240,3,object_05,object_07,690.30000083148,5,1,-1.0,0.0,1,object_04,1,2762,0,5,2,library_7,2,memory-2step-stake-s,738,3737557,0.0-19.0-0.1-0.240,A1BE3Y8ZDZ31BP,3X2LT8FDIZY82IMGP2COH9T7SM78W0,3JNQLM5FT82KRS6MV91NNRVB2R8L2B,5,6
241,4,object_01,object_06,731.79499991238,8,1,437.98500020057,0.0,2,object_03,5,2762,0,7,0,restaurant_1,2,memory-2step-stake-s,739,3745207,0.0-19.0-0.1-0.241,A1BE3Y8ZDZ31BP,3X2LT8FDIZY82IMGP2COH9T7SM78W0,3JNQLM5FT82KRS6MV91NNRVB2R8L2B,8,7
242,3,object_07,object_05,440.29000028968,5,2,365.27999956161,0.8888888888888888,1,object_04,1,2770,0,8,2,library_3,2,memory-2step-stake-s,740,3753592,0.0-19.0-0.1-0.242,A1BE3Y8ZDZ31BP,3X2LT8FDIZY82IMGP2COH9T7SM78W0,3JNQLM5FT82KRS6MV91NNRVB2R8L2B,6,5
243,4,object_01,object_06,623.06999973953,8,1,555.95500022173,0.0,2,object_03,1,2770,0,6,0,restaurant_8,2,memory-2step-stake-s,741,3761360,0.0-19.0-0.1-0.243,A1BE3Y8ZDZ31BP,3X2LT8FDIZY82IMGP2COH9T7SM78W0,3JNQLM5FT82KRS6MV91NNRVB2R8L2B,8,7
244,2,object_09,object_02,351.61999985576,4,2,418.31499990076,0.3333333333333333,2,object_03,5,2785,0,6,3,forest_4,2,memory-2step-stake-s,742,3769294,0.0-19.0-0.1-0.244,A1BE3Y8ZDZ31BP,3X2LT8FDIZY82IMGP2COH9T7SM78W0,3JNQLM5FT82KRS6MV91NNRVB2R8L2B,3,4
245,2,object_09,object_02,768.31500045955,3,1,818.34500003606,0.6666666666666666,1,object_04,5,2815,0,6,1,forest_5,2,memory-2step-stake-s,743,3777935,0.0-19.0-0.1-0.245,A1BE3Y8ZDZ31BP,3X2LT8FDIZY82IMGP2COH9T7SM78W0,3JNQLM5FT82KRS6MV91NNRVB2R8L2B,3,4
246,4,object_01,object_06,553.39499935508,8,1,493.20000037551,0.0,2,object_03,5,2815,0,7,0,restaurant_3,2,memory-2step-stake-s,744,3785641,0.0-19.0-0.1-0.246,A1BE3Y8ZDZ31BP,3X2LT8FDIZY82IMGP2COH9T7SM78W0,3JNQLM5FT82KRS6MV91NNRVB2R8L2B,8,7
247,2,object_09,object_02,271.09500020742,4,2,499.81999956071,0.0,2,object_03,5,2815,0,8,0,forest_7,2,memory-2step-stake-s,745,3793353,0.0-19.0-0.1-0.247,A1BE3Y8ZDZ31BP,3X2LT8FDIZY82IMGP2COH9T7SM78W0,3JNQLM5FT82KRS6MV91NNRVB2R8L2B,3,4
248,1,object_10,object_08,342.45000034571,2,1,722.37999923527,0.2222222222222222,2,object_03,1,2817,0,9,2,desert_5,2,memory-2step-stake-s,746,3801489,0.0-19.0-0.1-0.248,A1BE3Y8ZDZ31BP,3X2LT8FDIZY82IMGP2COH9T7SM78W0,3JNQLM5FT82KRS6MV91NNRVB2R8L2B,2,1
249,1,object_08,object_10,558.30000061542,1,1,681.42000027001,0.6666666666666666,1,object_04,5,2847,0,6,1,desert_1,2,memory-2step-stake-s,747,3809991,0.0-19.0-0.1-0.249,A1BE3Y8ZDZ31BP,3X2LT8FDIZY82IMGP2COH9T7SM78W0,3JNQLM5FT82KRS6MV91NNRVB2R8L2B,1,2
250,1,object_10,object_08,496.66999932379,2,1,484.25999935716,0.0,2,object_03,5,2847,0,6,0,desert_6,2,memory-2step-stake-s,748,3817690,0.0-19.0-0.1-0.250,A1BE3Y8ZDZ31BP,3X2LT8FDIZY82IMGP2COH9T7SM78W0,3JNQLM5FT82KRS6MV91NNRVB2R8L2B,2,1
251,4,object_06,object_01,533.92000030726,7,1,567.17499997467,0.2222222222222222,1,object_04,1,2849,0,2,3,restaurant_8,2,memory-2step-stake-s,749,3825676,0.0-19.0-0.1-0.251,A1BE3Y8ZDZ31BP,3X2LT8FDIZY82IMGP2COH9T7SM78W0,3JNQLM5FT82KRS6MV91NNRVB2R8L2B,7,8
252,4,object_01,object_06,467.59000048041,7,2,501.50500051677,0.3333333333333333,1,object_04,1,2852,0,3,1,restaurant_3,2,memory-2step-stake-s,750,3833696,0.0-19.0-0.1-0.252,A1BE3Y8ZDZ31BP,3X2LT8FDIZY82IMGP2COH9T7SM78W0,3JNQLM5FT82KRS6MV91NNRVB2R8L2B,8,7
253,1,object_10,object_08,264.83500003815,2,1,363.00500016659,0.2222222222222222,2,object_03,5,2862,0,0,2,desert_5,2,memory-2step-stake-s,751,3841474,0.0-19.0-0.1-0.253,A1BE3Y8ZDZ31BP,3X2LT8FDIZY82IMGP2COH9T7SM78W0,3JNQLM5FT82KRS6MV91NNRVB2R8L2B,2,1
254,4,object_01,object_06,318.96500010043,8,1,417.89000015706,0.0,2,object_03,1,2862,0,1,0,restaurant_8,2,memory-2step-stake-s,752,3849105,0.0-19.0-0.1-0.254,A1BE3Y8ZDZ31BP,3X2LT8FDIZY82IMGP2COH9T7SM78W0,3JNQLM5FT82KRS6MV91NNRVB2R8L2B,8,7
255,3,object_05,object_07,655.25999944657,6,2,458.01500044763,0.3333333333333333,2,object_03,5,2877,0,1,3,library_2,2,memory-2step-stake-s,753,3857082,0.0-19.0-0.1-0.255,A1BE3Y8ZDZ31BP,3X2LT8FDIZY82IMGP2COH9T7SM78W0,3JNQLM5FT82KRS6MV91NNRVB2R8L2B,5,6
