,state1,stim_left,stim_right,rt_1,choice1,response1,rt_2,points,state2,stim_state2,stake,score,practice,rews1,rews2,background,high_arm,trial_type,trial_index,time_elapsed,internal_node_id,subid,hitid,assignmentid,stim_left_num,stim_right_num
0,2,object_08,object_02,1113.7000000477,4,1,-1.0,0.0,2,object_03,1,0,0,4,9,forest_5,1,memory-2step-stake-s,489,1430708,0.0-19.0-0.0-0.0,A3EZEVKRB0VRNM,306996CF7Z0Y3F4KVQ7DFLTE4FJB13,3K9FOBBF2LZGGEVFHSZ7FFY9DM0NL5,4,3
1,4,object_07,object_06,969.90000009537,7,2,-1.0,0.0,1,object_01,1,0,0,7,9,restaurant_5,1,memory-2step-stake-s,490,1439279,0.0-19.0-0.0-0.1,A3EZEVKRB0VRNM,306996CF7Z0Y3F4KVQ7DFLTE4FJB13,3K9FOBBF2LZGGEVFHSZ7FFY9DM0NL5,8,7
2,3,object_05,object_09,1251.0999999046,6,2,-1.0,0.0,2,object_03,1,0,0,3,9,library_2,1,memory-2step-stake-s,491,1447842,0.0-19.0-0.0-0.2,A3EZEVKRB0VRNM,306996CF7Z0Y3F4KVQ7DFLTE4FJB13,3K9FOBBF2LZGGEVFHSZ7FFY9DM0NL5,5,6
3,4,object_07,object_06,724.40000009537,8,1,-1.0,0.0,2,object_03,5,0,0,6,8,restaurant_4,1,memory-2step-stake-s,492,1456406,0.0-19.0-0.0-0.3,A3EZEVKRB0VRNM,306996CF7Z0Y3F4KVQ7DFLTE4FJB13,3K9FOBBF2LZGGEVFHSZ7FFY9DM0NL5,8,7
4,1,object_04,object_10,857.5,2,2,-1.0,0.0,2,object_03,1,0,0,7,8,desert_2,1,memory-2step-stake-s,493,1464939,0.0-19.0-0.0-0.4,A3EZEVKRB0VRNM,306996CF7Z0Y3F4KVQ7DFLTE4FJB13,3K9FOBBF2LZGGEVFHSZ7FFY9DM0NL5,1,2
5,1,object_10,object_04,1014.5999999046,2,1,-1.0,0.0,2,object_03,5,0,0,8,6,desert_1,1,memory-2step-stake-s,494,1473509,0.0-19.0-0.0-0.5,A3EZEVKRB0VRNM,306996CF7Z0Y3F4KVQ7DFLTE4FJB13,3K9FOBBF2LZGGEVFHSZ7FFY9DM0NL5,2,1
6,1,object_10,object_04,812.5,2,1,-1.0,0.0,2,object_03,5,0,0,8,8,desert_6,1,memory-2step-stake-s,495,1482109,0.0-19.0-0.0-0.6,A3EZEVKRB0VRNM,306996CF7Z0Y3F4KVQ7DFLTE4FJB13,3K9FOBBF2LZGGEVFHSZ7FFY9DM0NL5,2,1
7,1,object_04,object_10,798.19999980927,2,2,-1.0,0.0,2,object_03,1,0,0,6,6,desert_8,1,memory-2step-stake-s,496,1490739,0.0-19.0-0.0-0.7,A3EZEVKRB0VRNM,306996CF7Z0Y3F4KVQ7DFLTE4FJB13,3K9FOBBF2LZGGEVFHSZ7FFY9DM0NL5,1,2
8,1,object_10,object_04,1339.8000001907,2,1,-1.0,0.0,2,object_03,1,0,0,7,8,desert_2,1,memory-2step-stake-s,497,1499350,0.0-19.0-0.0-0.8,A3EZEVKRB0VRNM,306996CF7Z0Y3F4KVQ7DFLTE4FJB13,3K9FOBBF2LZGGEVFHSZ7FFY9DM0NL5,2,1
9,4,object_07,object_06,1236.4000000954,7,2,-1.0,0.0,1,object_01,1,0,0,7,7,restaurant_7,1,memory-2step-stake-s,498,1507960,0.0-19.0-0.0-0.9,A3EZEVKRB0VRNM,306996CF7Z0Y3F4KVQ7DFLTE4FJB13,3K9FOBBF2LZGGEVFHSZ7FFY9DM0NL5,8,7
10,1,object_04,object_10,1286.2000000477,1,1,-1.0,0.0,1,object_01,1,0,0,7,9,desert_6,1,memory-2step-stake-s,499,1516561,0.0-19.0-0.0-0.10,A3EZEVKRB0VRNM,306996CF7Z0Y3F4KVQ7DFLTE4FJB13,3K9FOBBF2LZGGEVFHSZ7FFY9DM0NL5,1,2
11,1,object_10,object_04,-1.0,-1,-1,-1.0,0.0,-,0,1,0,0,8,6,desert_6,1,memory-2step-stake-s,500,1523089,0.0-19.0-0.0-0.11,A3EZEVKRB0VRNM,306996CF7Z0Y3F4KVQ7DFLTE4FJB13,3K9FOBBF2LZGGEVFHSZ7FFY9DM0NL5,2,1
12,2,object_02,object_08,826.0,4,2,-1.0,0.0,2,object_03,1,0,0,8,5,forest_4,1,memory-2step-stake-s,501,1531641,0.0-19.0-0.0-0.12,A3EZEVKRB0VRNM,306996CF7Z0Y3F4KVQ7DFLTE4FJB13,3K9FOBBF2LZGGEVFHSZ7FFY9DM0NL5,3,4
13,2,object_08,object_02,845.90000009537,4,1,-1.0,0.0,2,object_03,1,0,0,8,4,forest_5,1,memory-2step-stake-s,502,1540187,0.0-19.0-0.0-0.13,A3EZEVKRB0VRNM,306996CF7Z0Y3F4KVQ7DFLTE4FJB13,3K9FOBBF2LZGGEVFHSZ7FFY9DM0NL5,4,3
14,3,object_09,object_05,820.0,5,2,-1.0,0.0,1,object_01,5,0,0,8,6,library_3,1,memory-2step-stake-s,503,1548742,0.0-19.0-0.0-0.14,A3EZEVKRB0VRNM,306996CF7Z0Y3F4KVQ7DFLTE4FJB13,3K9FOBBF2LZGGEVFHSZ7FFY9DM0NL5,6,5
15,2,object_02,object_08,1090.2999999523,4,2,-1.0,0.0,2,object_03,1,0,0,7,4,forest_1,1,memory-2step-stake-s,504,1557342,0.0-19.0-0.0-0.15,A3EZEVKRB0VRNM,306996CF7Z0Y3F4KVQ7DFLTE4FJB13,3K9FOBBF2LZGGEVFHSZ7FFY9DM0NL5,3,4
16,2,object_08,object_02,1044.0,3,2,-1.0,0.0,1,object_01,1,0,0,7,5,forest_4,1,memory-2step-stake-s,505,1565942,0.0-19.0-0.0-0.16,A3EZEVKRB0VRNM,306996CF7Z0Y3F4KVQ7DFLTE4FJB13,3K9FOBBF2LZGGEVFHSZ7FFY9DM0NL5,4,3
17,2,object_02,object_08,643.59999990463,3,1,-1.0,0.0,1,object_01,1,0,0,8,5,forest_4,1,memory-2step-stake-s,506,1574540,0.0-19.0-0.0-0.17,A3EZEVKRB0VRNM,306996CF7Z0Y3F4KVQ7DFLTE4FJB13,3K9FOBBF2LZGGEVFHSZ7FFY9DM0NL5,3,4
18,4,object_07,object_06,1002.2000000477,8,1,-1.0,0.0,2,object_03,5,0,0,8,2,restaurant_5,1,memory-2step-stake-s,507,1583093,0.0-19.0-0.0-0.18,A3EZEVKRB0VRNM,306996CF7Z0Y3F4KVQ7DFLTE4FJB13,3K9FOBBF2LZGGEVFHSZ7FFY9DM0NL5,8,7
19,3,object_09,object_05,930.39999985695,5,2,-1.0,0.0,1,object_01,5,0,0,8,1,library_3,1,memory-2step-stake-s,508,1591671,0.0-19.0-0.0-0.19,A3EZEVKRB0VRNM,306996CF7Z0Y3F4KVQ7DFLTE4FJB13,3K9FOBBF2LZGGEVFHSZ7FFY9DM0NL5,6,5
20,4,object_06,object_07,1273.5,7,1,-1.0,0.0,1,object_01,5,0,0,8,3,restaurant_2,1,memory-2step-stake-s,509,1600231,0.0-19.0-0.0-0.20,A3EZEVKRB0VRNM,306996CF7Z0Y3F4KVQ7DFLTE4FJB13,3K9FOBBF2LZGGEVFHSZ7FFY9DM0NL5,7,8
21,3,object_05,object_09,1278.2999999523,5,1,-1.0,0.0,1,object_01,5,0,0,6,0,library_2,1,memory-2step-stake-s,510,1608851,0.0-19.0-0.0-0.21,A3EZEVKRB0VRNM,306996CF7Z0Y3F4KVQ7DFLTE4FJB13,3K9FOBBF2LZGGEVFHSZ7FFY9DM0NL5,5,6
22,1,object_10,object_04,931.10000014305,1,2,-1.0,0.0,1,object_01,1,0,0,6,2,desert_1,1,memory-2step-stake-s,511,1617471,0.0-19.0-0.0-0.22,A3EZEVKRB0VRNM,306996CF7Z0Y3F4KVQ7DFLTE4FJB13,3K9FOBBF2LZGGEVFHSZ7FFY9DM0NL5,2,1
23,2,object_02,object_08,1021.5,3,1,-1.0,0.0,1,object_01,1,0,0,9,4,forest_1,1,memory-2step-stake-s,512,1626072,0.0-19.0-0.0-0.23,A3EZEVKRB0VRNM,306996CF7Z0Y3F4KVQ7DFLTE4FJB13,3K9FOBBF2LZGGEVFHSZ7FFY9DM0NL5,3,4
24,4,object_07,object_06,856.90000009537,7,2,-1.0,0.0,1,object_01,5,0,0,6,4,restaurant_2,1,memory-2step-stake-s,513,1634684,0.0-19.0-0.0-0.24,A3EZEVKRB0VRNM,306996CF7Z0Y3F4KVQ7DFLTE4FJB13,3K9FOBBF2LZGGEVFHSZ7FFY9DM0NL5,8,7
25,1,object_04,object_10,903.19999980927,1,1,-1.0,0.0,1,object_01,1,0,0,7,0,desert_8,1,memory-2step-stake-s,514,1643211,0.0-19.0-0.0-0.25,A3EZEVKRB0VRNM,306996CF7Z0Y3F4KVQ7DFLTE4FJB13,3K9FOBBF2LZGGEVFHSZ7FFY9DM0NL5,1,2
26,4,object_06,object_07,469.20000004768,8,2,-1.0,0.0,2,object_03,5,0,0,8,2,restaurant_2,1,memory-2step-stake-s,515,1651804,0.0-19.0-0.0-0.26,A3EZEVKRB0VRNM,306996CF7Z0Y3F4KVQ7DFLTE4FJB13,3K9FOBBF2LZGGEVFHSZ7FFY9DM0NL5,7,8
27,3,object_05,object_09,1193.5,5,1,-1.0,0.0,1,object_01,5,0,0,9,3,library_4,1,memory-2step-stake-s,516,1660415,0.0-19.0-0.0-0.27,A3EZEVKRB0VRNM,306996CF7Z0Y3F4KVQ7DFLTE4FJB13,3K9FOBBF2LZGGEVFHSZ7FFY9DM0NL5,5,6
28,3,object_05,object_09,779.19999980927,5,1,-1.0,0.0,1,object_01,5,0,0,8,3,library_3,1,memory-2step-stake-s,517,1669025,0.0-19.0-0.0-0.28,A3EZEVKRB0VRNM,306996CF7Z0Y3F4KVQ7DFLTE4FJB13,3K9FOBBF2LZGGEVFHSZ7FFY9DM0NL5,5,6
29,1,object_10,object_04,807.90000009537,2,1,500.60000014305,0.2222222222222222,2,object_03,5,10,0,8,2,desert_2,1,memory-2step-stake-s,518,1677075,0.0-19.0-0.0-0.29,A3EZEVKRB0VRNM,306996CF7Z0Y3F4KVQ7DFLTE4FJB13,3K9FOBBF2LZGGEVFHSZ7FFY9DM0NL5,2,1
30,2,object_08,object_02,671.59999990463,4,1,600.39999985695,0.4444444444444444,2,object_03,1,14,0,8,4,forest_4,1,memory-2step-stake-s,519,1685435,0.0-19.0-0.0-0.30,A3EZEVKRB0VRNM,306996CF7Z0Y3F4KVQ7DFLTE4FJB13,3K9FOBBF2LZGGEVFHSZ7FFY9DM0NL5,4,3
31,1,object_04,object_10,607.60000014305,2,2,625.70000004768,0.6666666666666666,2,object_03,5,44,0,9,6,desert_2,1,memory-2step-stake-s,520,1694046,0.0-19.0-0.0-0.31,A3EZEVKRB0VRNM,306996CF7Z0Y3F4KVQ7DFLTE4FJB13,3K9FOBBF2LZGGEVFHSZ7FFY9DM0NL5,1,2
32,3,object_09,object_05,770.10000014305,6,1,417.0,0.4444444444444444,2,object_03,5,64,0,6,4,library_2,1,memory-2step-stake-s,521,1702140,0.0-19.0-0.0-0.32,A3EZEVKRB0VRNM,306996CF7Z0Y3F4KVQ7DFLTE4FJB13,3K9FOBBF2LZGGEVFHSZ7FFY9DM0NL5,6,5
33,4,object_06,object_07,678.29999995232,8,2,573.40000009537,0.2222222222222222,2,object_03,1,66,0,9,2,restaurant_4,1,memory-2step-stake-s,522,1710167,0.0-19.0-0.0-0.33,A3EZEVKRB0VRNM,306996CF7Z0Y3F4KVQ7DFLTE4FJB13,3K9FOBBF2LZGGEVFHSZ7FFY9DM0NL5,7,8
34,2,object_02,object_08,663.39999985695,3,1,415.29999995232,0.7777777777777778,1,object_01,1,73,0,7,4,forest_5,1,memory-2step-stake-s,523,1718677,0.0-19.0-0.0-0.34,A3EZEVKRB0VRNM,306996CF7Z0Y3F4KVQ7DFLTE4FJB13,3K9FOBBF2LZGGEVFHSZ7FFY9DM0NL5,3,4
35,4,object_07,object_06,540.40000009537,8,1,401.70000004768,0.2222222222222222,2,object_03,5,83,0,7,2,restaurant_5,1,memory-2step-stake-s,524,1726607,0.0-19.0-0.0-0.35,A3EZEVKRB0VRNM,306996CF7Z0Y3F4KVQ7DFLTE4FJB13,3K9FOBBF2LZGGEVFHSZ7FFY9DM0NL5,8,7
36,1,object_04,object_10,662.29999995232,2,2,679.20000004768,0.2222222222222222,2,object_03,5,93,0,8,2,desert_6,1,memory-2step-stake-s,525,1734837,0.0-19.0-0.0-0.36,A3EZEVKRB0VRNM,306996CF7Z0Y3F4KVQ7DFLTE4FJB13,3K9FOBBF2LZGGEVFHSZ7FFY9DM0NL5,1,2
37,4,object_07,object_06,722.89999985695,8,1,937.40000009537,0.2222222222222222,2,object_03,5,103,0,7,2,restaurant_5,1,memory-2step-stake-s,526,1743298,0.0-19.0-0.0-0.37,A3EZEVKRB0VRNM,306996CF7Z0Y3F4KVQ7DFLTE4FJB13,3K9FOBBF2LZGGEVFHSZ7FFY9DM0NL5,8,7
38,3,object_09,object_05,594.5,5,2,556.60000014305,0.8888888888888888,1,object_01,1,111,0,8,3,library_3,1,memory-2step-stake-s,527,1752077,0.0-19.0-0.0-0.38,A3EZEVKRB0VRNM,306996CF7Z0Y3F4KVQ7DFLTE4FJB13,3K9FOBBF2LZGGEVFHSZ7FFY9DM0NL5,6,5
39,4,object_07,object_06,1083.0,7,2,627.09999990463,0.8888888888888888,1,object_01,5,151,0,8,1,restaurant_5,1,memory-2step-stake-s,528,1760782,0.0-19.0-0.0-0.39,A3EZEVKRB0VRNM,306996CF7Z0Y3F4KVQ7DFLTE4FJB13,3K9FOBBF2LZGGEVFHSZ7FFY9DM0NL5,8,7
40,4,object_06,object_07,1084.0,8,2,489.70000004768,0.6666666666666666,2,object_03,5,181,0,4,6,restaurant_5,1,memory-2step-stake-s,529,1769128,0.0-19.0-0.0-0.40,A3EZEVKRB0VRNM,306996CF7Z0Y3F4KVQ7DFLTE4FJB13,3K9FOBBF2LZGGEVFHSZ7FFY9DM0NL5,7,8
41,4,object_07,object_06,810.10000014305,8,1,512.79999995232,0.8888888888888888,2,object_03,5,221,0,6,8,restaurant_5,1,memory-2step-stake-s,530,1777888,0.0-19.0-0.0-0.41,A3EZEVKRB0VRNM,306996CF7Z0Y3F4KVQ7DFLTE4FJB13,3K9FOBBF2LZGGEVFHSZ7FFY9DM0NL5,8,7
42,3,object_05,object_09,1281.6999998093,6,2,600.59999990463,0.8888888888888888,2,object_03,5,261,0,5,8,library_4,1,memory-2step-stake-s,531,1786709,0.0-19.0-0.0-0.42,A3EZEVKRB0VRNM,306996CF7Z0Y3F4KVQ7DFLTE4FJB13,3K9FOBBF2LZGGEVFHSZ7FFY9DM0NL5,5,6
43,1,object_04,object_10,908.70000004768,1,1,500.70000004768,0.8888888888888888,1,object_01,1,269,0,8,6,desert_6,1,memory-2step-stake-s,532,1795439,0.0-19.0-0.0-0.43,A3EZEVKRB0VRNM,306996CF7Z0Y3F4KVQ7DFLTE4FJB13,3K9FOBBF2LZGGEVFHSZ7FFY9DM0NL5,1,2
44,4,object_06,object_07,892.10000014305,8,2,473.59999990463,0.5555555555555556,2,object_03,1,274,0,6,5,restaurant_4,1,memory-2step-stake-s,533,1803819,0.0-19.0-0.0-0.44,A3EZEVKRB0VRNM,306996CF7Z0Y3F4KVQ7DFLTE4FJB13,3K9FOBBF2LZGGEVFHSZ7FFY9DM0NL5,7,8
45,2,object_08,object_02,672.10000014305,4,1,342.0,0.5555555555555556,2,object_03,1,279,0,7,5,forest_4,1,memory-2step-stake-s,534,1811999,0.0-19.0-0.0-0.45,A3EZEVKRB0VRNM,306996CF7Z0Y3F4KVQ7DFLTE4FJB13,3K9FOBBF2LZGGEVFHSZ7FFY9DM0NL5,4,3
46,1,object_10,object_04,971.79999995232,1,2,470.80000019073,0.7777777777777778,1,object_01,1,286,0,7,5,desert_6,1,memory-2step-stake-s,535,1820468,0.0-19.0-0.0-0.46,A3EZEVKRB0VRNM,306996CF7Z0Y3F4KVQ7DFLTE4FJB13,3K9FOBBF2LZGGEVFHSZ7FFY9DM0NL5,2,1
47,4,object_07,object_06,749.0,8,1,510.79999995232,0.2222222222222222,2,object_03,1,288,0,3,2,restaurant_7,1,memory-2step-stake-s,536,1828413,0.0-19.0-0.0-0.47,A3EZEVKRB0VRNM,306996CF7Z0Y3F4KVQ7DFLTE4FJB13,3K9FOBBF2LZGGEVFHSZ7FFY9DM0NL5,8,7
48,1,object_04,object_10,882.09999990463,1,1,569.40000009537,0.1111111111111111,1,object_01,5,293,0,1,5,desert_8,1,memory-2step-stake-s,537,1836420,0.0-19.0-0.0-0.48,A3EZEVKRB0VRNM,306996CF7Z0Y3F4KVQ7DFLTE4FJB13,3K9FOBBF2LZGGEVFHSZ7FFY9DM0NL5,1,2
49,2,object_08,object_02,721.5,3,2,509.70000004768,0.4444444444444444,1,object_01,1,297,0,4,5,forest_6,1,memory-2step-stake-s,538,1844651,0.0-19.0-0.0-0.49,A3EZEVKRB0VRNM,306996CF7Z0Y3F4KVQ7DFLTE4FJB13,3K9FOBBF2LZGGEVFHSZ7FFY9DM0NL5,4,3
50,3,object_09,object_05,915.90000009537,5,2,451.39999985695,0.3333333333333333,1,object_01,5,312,0,3,6,library_2,1,memory-2step-stake-s,539,1852721,0.0-19.0-0.0-0.50,A3EZEVKRB0VRNM,306996CF7Z0Y3F4KVQ7DFLTE4FJB13,3K9FOBBF2LZGGEVFHSZ7FFY9DM0NL5,6,5
51,1,object_10,object_04,853.5,1,2,387.09999990463,0.4444444444444444,1,object_01,1,316,0,4,5,desert_8,1,memory-2step-stake-s,540,1860891,0.0-19.0-0.0-0.51,A3EZEVKRB0VRNM,306996CF7Z0Y3F4KVQ7DFLTE4FJB13,3K9FOBBF2LZGGEVFHSZ7FFY9DM0NL5,2,1
52,1,object_04,object_10,725.60000014305,1,1,505.20000004768,0.5555555555555556,1,object_01,1,321,0,5,3,desert_8,1,memory-2step-stake-s,541,1869271,0.0-19.0-0.0-0.52,A3EZEVKRB0VRNM,306996CF7Z0Y3F4KVQ7DFLTE4FJB13,3K9FOBBF2LZGGEVFHSZ7FFY9DM0NL5,1,2
53,3,object_09,object_05,1256.6000001431,6,1,632.40000009537,0.3333333333333333,2,object_03,5,336,0,6,3,library_2,1,memory-2step-stake-s,542,1877571,0.0-19.0-0.0-0.53,A3EZEVKRB0VRNM,306996CF7Z0Y3F4KVQ7DFLTE4FJB13,3K9FOBBF2LZGGEVFHSZ7FFY9DM0NL5,6,5
54,1,object_04,object_10,869.20000004768,2,2,725.0,0.3333333333333333,2,object_03,1,339,0,6,3,desert_8,1,memory-2step-stake-s,543,1885951,0.0-19.0-0.0-0.54,A3EZEVKRB0VRNM,306996CF7Z0Y3F4KVQ7DFLTE4FJB13,3K9FOBBF2LZGGEVFHSZ7FFY9DM0NL5,1,2
55,4,object_07,object_06,680.79999995232,8,1,473.09999990463,0.6666666666666666,2,object_03,5,369,0,2,6,restaurant_7,1,memory-2step-stake-s,544,1894422,0.0-19.0-0.0-0.55,A3EZEVKRB0VRNM,306996CF7Z0Y3F4KVQ7DFLTE4FJB13,3K9FOBBF2LZGGEVFHSZ7FFY9DM0NL5,8,7
56,4,object_07,object_06,674.40000009537,8,1,651.19999980927,0.5555555555555556,2,object_03,5,394,0,3,5,restaurant_2,1,memory-2step-stake-s,545,1902962,0.0-19.0-0.0-0.56,A3EZEVKRB0VRNM,306996CF7Z0Y3F4KVQ7DFLTE4FJB13,3K9FOBBF2LZGGEVFHSZ7FFY9DM0NL5,8,7
57,1,object_04,object_10,1131.0999999046,2,2,420.29999995232,0.6666666666666666,2,object_03,1,400,0,1,6,desert_2,1,memory-2step-stake-s,546,1911372,0.0-19.0-0.0-0.57,A3EZEVKRB0VRNM,306996CF7Z0Y3F4KVQ7DFLTE4FJB13,3K9FOBBF2LZGGEVFHSZ7FFY9DM0NL5,1,2
58,2,object_08,object_02,1000.4000000954,3,2,660.20000004768,0.1111111111111111,1,object_01,1,401,0,1,7,forest_6,1,memory-2step-stake-s,547,1919442,0.0-19.0-0.0-0.58,A3EZEVKRB0VRNM,306996CF7Z0Y3F4KVQ7DFLTE4FJB13,3K9FOBBF2LZGGEVFHSZ7FFY9DM0NL5,4,3
59,2,object_02,object_08,753.90000009537,4,2,648.60000014305,0.5555555555555556,2,object_03,1,406,0,1,5,forest_1,1,memory-2step-stake-s,548,1927972,0.0-19.0-0.0-0.59,A3EZEVKRB0VRNM,306996CF7Z0Y3F4KVQ7DFLTE4FJB13,3K9FOBBF2LZGGEVFHSZ7FFY9DM0NL5,3,4
60,1,object_04,object_10,1310.4000000954,2,2,517.60000014305,0.3333333333333333,2,object_03,1,409,0,1,3,desert_2,1,memory-2step-stake-s,549,1936133,0.0-19.0-0.0-0.60,A3EZEVKRB0VRNM,306996CF7Z0Y3F4KVQ7DFLTE4FJB13,3K9FOBBF2LZGGEVFHSZ7FFY9DM0NL5,1,2
61,1,object_10,object_04,1012.9000000954,1,2,457.59999990463,0.4444444444444444,1,object_01,1,413,0,4,2,desert_2,1,memory-2step-stake-s,550,1944261,0.0-19.0-0.0-0.61,A3EZEVKRB0VRNM,306996CF7Z0Y3F4KVQ7DFLTE4FJB13,3K9FOBBF2LZGGEVFHSZ7FFY9DM0NL5,2,1
62,1,object_04,object_10,795.70000004768,1,1,829.0,1.0,1,object_01,1,422,0,9,3,desert_1,1,memory-2step-stake-s,551,1953404,0.0-19.0-0.0-0.62,A3EZEVKRB0VRNM,306996CF7Z0Y3F4KVQ7DFLTE4FJB13,3K9FOBBF2LZGGEVFHSZ7FFY9DM0NL5,1,2
63,2,object_08,object_02,1165.5,4,1,473.0,0.7777777777777778,2,object_03,5,457,0,6,7,forest_4,1,memory-2step-stake-s,552,1961984,0.0-19.0-0.0-0.63,A3EZEVKRB0VRNM,306996CF7Z0Y3F4KVQ7DFLTE4FJB13,3K9FOBBF2LZGGEVFHSZ7FFY9DM0NL5,4,3
64,2,object_02,object_08,1061.0,4,2,417.0,0.7777777777777778,2,object_03,1,464,0,9,7,forest_1,1,memory-2step-stake-s,553,1970494,0.0-19.0-0.0-0.64,A3EZEVKRB0VRNM,306996CF7Z0Y3F4KVQ7DFLTE4FJB13,3K9FOBBF2LZGGEVFHSZ7FFY9DM0NL5,3,4
65,3,object_05,object_09,983.59999990463,6,2,611.39999985695,0.7777777777777778,2,object_03,5,499,0,8,7,library_7,1,memory-2step-stake-s,554,1979225,0.0-19.0-0.0-0.65,A3EZEVKRB0VRNM,306996CF7Z0Y3F4KVQ7DFLTE4FJB13,3K9FOBBF2LZGGEVFHSZ7FFY9DM0NL5,5,6
66,1,object_04,object_10,659.10000014305,1,1,417.79999995232,0.8888888888888888,1,object_01,1,507,0,8,8,desert_2,1,memory-2step-stake-s,555,1987895,0.0-19.0-0.0-0.66,A3EZEVKRB0VRNM,306996CF7Z0Y3F4KVQ7DFLTE4FJB13,3K9FOBBF2LZGGEVFHSZ7FFY9DM0NL5,1,2
67,3,object_05,object_09,803.09999990463,6,2,581.40000009537,1.0,2,object_03,1,516,0,8,9,library_2,1,memory-2step-stake-s,556,1996805,0.0-19.0-0.0-0.67,A3EZEVKRB0VRNM,306996CF7Z0Y3F4KVQ7DFLTE4FJB13,3K9FOBBF2LZGGEVFHSZ7FFY9DM0NL5,5,6
68,2,object_08,object_02,580.19999980927,4,1,376.59999990463,0.8888888888888888,2,object_03,1,524,0,8,8,forest_1,1,memory-2step-stake-s,557,2005235,0.0-19.0-0.0-0.68,A3EZEVKRB0VRNM,306996CF7Z0Y3F4KVQ7DFLTE4FJB13,3K9FOBBF2LZGGEVFHSZ7FFY9DM0NL5,4,3
69,4,object_07,object_06,730.40000009537,8,1,592.39999985695,1.0,2,object_03,5,569,0,7,9,restaurant_7,1,memory-2step-stake-s,558,2013991,0.0-19.0-0.0-0.69,A3EZEVKRB0VRNM,306996CF7Z0Y3F4KVQ7DFLTE4FJB13,3K9FOBBF2LZGGEVFHSZ7FFY9DM0NL5,8,7
70,4,object_07,object_06,717.5,8,1,600.89999985695,0.7777777777777778,2,object_03,5,604,0,8,7,restaurant_5,1,memory-2step-stake-s,559,2022706,0.0-19.0-0.0-0.70,A3EZEVKRB0VRNM,306996CF7Z0Y3F4KVQ7DFLTE4FJB13,3K9FOBBF2LZGGEVFHSZ7FFY9DM0NL5,8,7
71,1,object_04,object_10,1201.5,2,2,612.90000009537,0.8888888888888888,2,object_03,1,612,0,9,8,desert_8,1,memory-2step-stake-s,560,2031546,0.0-19.0-0.0-0.71,A3EZEVKRB0VRNM,306996CF7Z0Y3F4KVQ7DFLTE4FJB13,3K9FOBBF2LZGGEVFHSZ7FFY9DM0NL5,1,2
72,2,object_02,object_08,1192.2000000477,4,2,508.60000014305,0.8888888888888888,2,object_03,1,620,0,6,8,forest_6,1,memory-2step-stake-s,561,2040276,0.0-19.0-0.0-0.72,A3EZEVKRB0VRNM,306996CF7Z0Y3F4KVQ7DFLTE4FJB13,3K9FOBBF2LZGGEVFHSZ7FFY9DM0NL5,3,4
73,1,object_10,object_04,552.09999990463,2,1,696.89999985695,0.6666666666666666,2,object_03,1,626,0,3,6,desert_6,1,memory-2step-stake-s,562,2048977,0.0-19.0-0.0-0.73,A3EZEVKRB0VRNM,306996CF7Z0Y3F4KVQ7DFLTE4FJB13,3K9FOBBF2LZGGEVFHSZ7FFY9DM0NL5,2,1
74,4,object_06,object_07,577.20000004768,7,1,708.10000014305,0.0,1,object_01,5,626,0,0,4,restaurant_2,1,memory-2step-stake-s,563,2056986,0.0-19.0-0.0-0.74,A3EZEVKRB0VRNM,306996CF7Z0Y3F4KVQ7DFLTE4FJB13,3K9FOBBF2LZGGEVFHSZ7FFY9DM0NL5,7,8
75,1,object_04,object_10,838.09999990463,2,2,526.70000004768,0.1111111111111111,2,object_03,5,631,0,0,1,desert_1,1,memory-2step-stake-s,564,2064852,0.0-19.0-0.0-0.75,A3EZEVKRB0VRNM,306996CF7Z0Y3F4KVQ7DFLTE4FJB13,3K9FOBBF2LZGGEVFHSZ7FFY9DM0NL5,1,2
76,2,object_02,object_08,853.79999995232,3,1,1213.7999999523,0.1111111111111111,1,object_01,1,632,0,1,1,forest_6,1,memory-2step-stake-s,565,2073447,0.0-19.0-0.0-0.76,A3EZEVKRB0VRNM,306996CF7Z0Y3F4KVQ7DFLTE4FJB13,3K9FOBBF2LZGGEVFHSZ7FFY9DM0NL5,3,4
77,2,object_02,object_08,824.29999995232,4,2,641.39999985695,0.3333333333333333,2,object_03,5,647,0,3,3,forest_6,1,memory-2step-stake-s,566,2081767,0.0-19.0-0.0-0.77,A3EZEVKRB0VRNM,306996CF7Z0Y3F4KVQ7DFLTE4FJB13,3K9FOBBF2LZGGEVFHSZ7FFY9DM0NL5,3,4
78,2,object_02,object_08,830.59999990463,3,1,629.5,0.4444444444444444,1,object_01,1,651,0,4,1,forest_5,1,memory-2step-stake-s,567,2090168,0.0-19.0-0.0-0.78,A3EZEVKRB0VRNM,306996CF7Z0Y3F4KVQ7DFLTE4FJB13,3K9FOBBF2LZGGEVFHSZ7FFY9DM0NL5,3,4
79,3,object_05,object_09,993.89999985695,6,2,740.0,0.2222222222222222,2,object_03,5,661,0,5,2,library_4,1,memory-2step-stake-s,568,2098428,0.0-19.0-0.0-0.79,A3EZEVKRB0VRNM,306996CF7Z0Y3F4KVQ7DFLTE4FJB13,3K9FOBBF2LZGGEVFHSZ7FFY9DM0NL5,5,6
80,2,object_08,object_02,1003.7000000477,3,2,551.19999980927,0.8888888888888888,1,object_01,1,669,0,8,4,forest_5,1,memory-2step-stake-s,569,2107199,0.0-19.0-0.0-0.80,A3EZEVKRB0VRNM,306996CF7Z0Y3F4KVQ7DFLTE4FJB13,3K9FOBBF2LZGGEVFHSZ7FFY9DM0NL5,4,3
81,1,object_10,object_04,1051.2000000477,2,1,687.29999995232,0.3333333333333333,2,object_03,1,672,0,7,3,desert_1,1,memory-2step-stake-s,570,2115559,0.0-19.0-0.0-0.81,A3EZEVKRB0VRNM,306996CF7Z0Y3F4KVQ7DFLTE4FJB13,3K9FOBBF2LZGGEVFHSZ7FFY9DM0NL5,2,1
82,1,object_04,object_10,1236.2999999523,2,2,748.09999990463,0.1111111111111111,2,object_03,1,673,0,6,1,desert_6,1,memory-2step-stake-s,571,2123669,0.0-19.0-0.0-0.82,A3EZEVKRB0VRNM,306996CF7Z0Y3F4KVQ7DFLTE4FJB13,3K9FOBBF2LZGGEVFHSZ7FFY9DM0NL5,1,2
83,4,object_07,object_06,664.59999990463,8,1,846.59999990463,0.2222222222222222,2,object_03,1,675,0,5,2,restaurant_4,1,memory-2step-stake-s,572,2132009,0.0-19.0-0.0-0.83,A3EZEVKRB0VRNM,306996CF7Z0Y3F4KVQ7DFLTE4FJB13,3K9FOBBF2LZGGEVFHSZ7FFY9DM0NL5,8,7
84,3,object_09,object_05,1079.4000000954,6,1,633.90000009537,0.0,2,object_03,1,675,0,6,0,library_3,1,memory-2step-stake-s,573,2139950,0.0-19.0-0.0-0.84,A3EZEVKRB0VRNM,306996CF7Z0Y3F4KVQ7DFLTE4FJB13,3K9FOBBF2LZGGEVFHSZ7FFY9DM0NL5,6,5
85,1,object_10,object_04,-1.0,-1,-1,-1.0,0.0,-,0,1,675,0,5,2,desert_2,1,memory-2step-stake-s,574,2146520,0.0-19.0-0.0-0.85,A3EZEVKRB0VRNM,306996CF7Z0Y3F4KVQ7DFLTE4FJB13,3K9FOBBF2LZGGEVFHSZ7FFY9DM0NL5,2,1
86,3,object_09,object_05,442.90000009537,5,2,608.90000009537,0.1111111111111111,1,object_01,1,676,0,1,1,library_4,1,memory-2step-stake-s,575,2154550,0.0-19.0-0.0-0.86,A3EZEVKRB0VRNM,306996CF7Z0Y3F4KVQ7DFLTE4FJB13,3K9FOBBF2LZGGEVFHSZ7FFY9DM0NL5,6,5
87,4,object_06,object_07,822.29999995232,8,2,614.29999995232,0.1111111111111111,2,object_03,1,677,0,2,1,restaurant_2,1,memory-2step-stake-s,576,2162570,0.0-19.0-0.0-0.87,A3EZEVKRB0VRNM,306996CF7Z0Y3F4KVQ7DFLTE4FJB13,3K9FOBBF2LZGGEVFHSZ7FFY9DM0NL5,7,8
88,2,object_08,object_02,575.40000009537,4,1,445.90000009537,0.1111111111111111,2,object_03,1,678,0,1,1,forest_1,1,memory-2step-stake-s,577,2170431,0.0-19.0-0.0-0.88,A3EZEVKRB0VRNM,306996CF7Z0Y3F4KVQ7DFLTE4FJB13,3K9FOBBF2LZGGEVFHSZ7FFY9DM0NL5,4,3
89,2,object_08,object_02,695.70000004768,3,2,697.0,0.1111111111111111,1,object_01,1,679,0,1,4,forest_6,1,memory-2step-stake-s,578,2178513,0.0-19.0-0.0-0.89,A3EZEVKRB0VRNM,306996CF7Z0Y3F4KVQ7DFLTE4FJB13,3K9FOBBF2LZGGEVFHSZ7FFY9DM0NL5,4,3
90,3,object_09,object_05,976.5,6,1,505.29999995232,0.4444444444444444,2,object_03,5,699,0,3,4,library_7,1,memory-2step-stake-s,579,2186650,0.0-19.0-0.0-0.90,A3EZEVKRB0VRNM,306996CF7Z0Y3F4KVQ7DFLTE4FJB13,3K9FOBBF2LZGGEVFHSZ7FFY9DM0NL5,6,5
91,2,object_02,object_08,905.20000004768,3,1,524.90000009537,0.3333333333333333,1,object_01,1,702,0,3,6,forest_4,1,memory-2step-stake-s,580,2194781,0.0-19.0-0.0-0.91,A3EZEVKRB0VRNM,306996CF7Z0Y3F4KVQ7DFLTE4FJB13,3K9FOBBF2LZGGEVFHSZ7FFY9DM0NL5,3,4
92,1,object_04,object_10,918.80000019073,2,2,609.40000009537,0.5555555555555556,2,object_03,1,707,0,4,5,desert_1,1,memory-2step-stake-s,581,2203261,0.0-19.0-0.0-0.92,A3EZEVKRB0VRNM,306996CF7Z0Y3F4KVQ7DFLTE4FJB13,3K9FOBBF2LZGGEVFHSZ7FFY9DM0NL5,1,2
93,2,object_08,object_02,800.40000009537,3,2,718.90000009537,0.4444444444444444,1,object_01,5,727,0,4,7,forest_4,1,memory-2step-stake-s,582,2211752,0.0-19.0-0.0-0.93,A3EZEVKRB0VRNM,306996CF7Z0Y3F4KVQ7DFLTE4FJB13,3K9FOBBF2LZGGEVFHSZ7FFY9DM0NL5,4,3
94,1,object_04,object_10,1015.3999998569,2,2,646.29999995232,0.6666666666666666,2,object_03,1,733,0,6,6,desert_2,1,memory-2step-stake-s,583,2220412,0.0-19.0-0.0-0.94,A3EZEVKRB0VRNM,306996CF7Z0Y3F4KVQ7DFLTE4FJB13,3K9FOBBF2LZGGEVFHSZ7FFY9DM0NL5,1,2
95,1,object_04,object_10,1029.7999999523,2,2,805.0,0.6666666666666666,2,object_03,1,739,0,3,6,desert_1,1,memory-2step-stake-s,584,2229232,0.0-19.0-0.0-0.95,A3EZEVKRB0VRNM,306996CF7Z0Y3F4KVQ7DFLTE4FJB13,3K9FOBBF2LZGGEVFHSZ7FFY9DM0NL5,1,2
96,3,object_09,object_05,1131.2000000477,5,2,533.09999990463,0.3333333333333333,1,object_01,5,754,0,3,9,library_7,1,memory-2step-stake-s,585,2237423,0.0-19.0-0.0-0.96,A3EZEVKRB0VRNM,306996CF7Z0Y3F4KVQ7DFLTE4FJB13,3K9FOBBF2LZGGEVFHSZ7FFY9DM0NL5,6,5
97,3,object_09,object_05,811.0,5,2,650.10000014305,0.0,1,object_01,1,754,0,0,7,library_3,1,memory-2step-stake-s,586,2245300,0.0-19.0-0.0-0.97,A3EZEVKRB0VRNM,306996CF7Z0Y3F4KVQ7DFLTE4FJB13,3K9FOBBF2LZGGEVFHSZ7FFY9DM0NL5,6,5
98,3,object_09,object_05,676.5,6,1,605.0,1.0,2,object_03,5,799,0,2,9,library_7,1,memory-2step-stake-s,587,2254223,0.0-19.0-0.0-0.98,A3EZEVKRB0VRNM,306996CF7Z0Y3F4KVQ7DFLTE4FJB13,3K9FOBBF2LZGGEVFHSZ7FFY9DM0NL5,6,5
99,3,object_05,object_09,1330.3000001907,6,2,625.0,0.6666666666666666,2,object_03,5,829,0,0,6,library_4,1,memory-2step-stake-s,588,2262823,0.0-19.0-0.0-0.99,A3EZEVKRB0VRNM,306996CF7Z0Y3F4KVQ7DFLTE4FJB13,3K9FOBBF2LZGGEVFHSZ7FFY9DM0NL5,5,6
100,2,object_08,object_02,783.69999980927,3,2,751.90000009537,0.2222222222222222,1,object_01,1,831,0,2,5,forest_6,1,memory-2step-stake-s,589,2271133,0.0-19.0-0.0-0.100,A3EZEVKRB0VRNM,306996CF7Z0Y3F4KVQ7DFLTE4FJB13,3K9FOBBF2LZGGEVFHSZ7FFY9DM0NL5,4,3
101,2,object_02,object_08,784.0,4,2,629.90000009537,0.7777777777777778,2,object_03,1,838,0,1,7,forest_1,1,memory-2step-stake-s,590,2279864,0.0-19.0-0.0-0.101,A3EZEVKRB0VRNM,306996CF7Z0Y3F4KVQ7DFLTE4FJB13,3K9FOBBF2LZGGEVFHSZ7FFY9DM0NL5,3,4
102,2,object_08,object_02,750.40000009537,4,1,1346.0999999046,0.4444444444444444,2,object_03,1,842,0,1,4,forest_4,1,memory-2step-stake-s,591,2288934,0.0-19.0-0.0-0.102,A3EZEVKRB0VRNM,306996CF7Z0Y3F4KVQ7DFLTE4FJB13,3K9FOBBF2LZGGEVFHSZ7FFY9DM0NL5,4,3
103,2,object_08,object_02,948.40000009537,4,1,540.19999980927,0.1111111111111111,2,object_03,1,843,0,1,1,forest_5,1,memory-2step-stake-s,592,2296924,0.0-19.0-0.0-0.103,A3EZEVKRB0VRNM,306996CF7Z0Y3F4KVQ7DFLTE4FJB13,3K9FOBBF2LZGGEVFHSZ7FFY9DM0NL5,4,3
104,4,object_07,object_06,980.10000014305,8,1,559.09999990463,0.1111111111111111,2,object_03,5,848,0,1,1,restaurant_2,1,memory-2step-stake-s,593,2304874,0.0-19.0-0.0-0.104,A3EZEVKRB0VRNM,306996CF7Z0Y3F4KVQ7DFLTE4FJB13,3K9FOBBF2LZGGEVFHSZ7FFY9DM0NL5,8,7
105,2,object_02,object_08,1232.7999999523,4,2,586.60000014305,0.1111111111111111,2,object_03,1,849,0,3,1,forest_4,1,memory-2step-stake-s,594,2312854,0.0-19.0-0.0-0.105,A3EZEVKRB0VRNM,306996CF7Z0Y3F4KVQ7DFLTE4FJB13,3K9FOBBF2LZGGEVFHSZ7FFY9DM0NL5,3,4
106,2,object_08,object_02,867.09999990463,3,2,527.79999995232,0.2222222222222222,1,object_01,1,851,0,2,2,forest_1,1,memory-2step-stake-s,595,2320905,0.0-19.0-0.0-0.106,A3EZEVKRB0VRNM,306996CF7Z0Y3F4KVQ7DFLTE4FJB13,3K9FOBBF2LZGGEVFHSZ7FFY9DM0NL5,4,3
107,3,object_09,object_05,-1.0,-1,-1,-1.0,0.0,-,0,5,851,0,1,2,library_4,1,memory-2step-stake-s,596,2327475,0.0-19.0-0.0-0.107,A3EZEVKRB0VRNM,306996CF7Z0Y3F4KVQ7DFLTE4FJB13,3K9FOBBF2LZGGEVFHSZ7FFY9DM0NL5,6,5
108,1,object_10,object_04,915.10000014305,2,1,772.29999995232,0.1111111111111111,2,object_03,1,852,0,2,1,desert_6,1,memory-2step-stake-s,597,2335685,0.0-19.0-0.0-0.108,A3EZEVKRB0VRNM,306996CF7Z0Y3F4KVQ7DFLTE4FJB13,3K9FOBBF2LZGGEVFHSZ7FFY9DM0NL5,2,1
109,3,object_09,object_05,1094.1999998093,5,2,410.79999995232,0.5555555555555556,1,object_01,1,857,0,5,4,library_4,1,memory-2step-stake-s,598,2343965,0.0-19.0-0.0-0.109,A3EZEVKRB0VRNM,306996CF7Z0Y3F4KVQ7DFLTE4FJB13,3K9FOBBF2LZGGEVFHSZ7FFY9DM0NL5,6,5
110,1,object_10,object_04,873.0,1,2,506.20000004768,0.4444444444444444,1,object_01,5,877,0,4,4,desert_6,1,memory-2step-stake-s,599,2352236,0.0-19.0-0.0-0.110,A3EZEVKRB0VRNM,306996CF7Z0Y3F4KVQ7DFLTE4FJB13,3K9FOBBF2LZGGEVFHSZ7FFY9DM0NL5,2,1
111,4,object_06,object_07,1109.1999998093,7,1,480.89999985695,0.2222222222222222,1,object_01,5,887,0,2,4,restaurant_2,1,memory-2step-stake-s,600,2360184,0.0-19.0-0.0-0.111,A3EZEVKRB0VRNM,306996CF7Z0Y3F4KVQ7DFLTE4FJB13,3K9FOBBF2LZGGEVFHSZ7FFY9DM0NL5,7,8
112,2,object_08,object_02,938.59999990463,4,1,376.90000009537,0.5555555555555556,2,object_03,1,892,0,3,5,forest_6,1,memory-2step-stake-s,601,2368306,0.0-19.0-0.0-0.112,A3EZEVKRB0VRNM,306996CF7Z0Y3F4KVQ7DFLTE4FJB13,3K9FOBBF2LZGGEVFHSZ7FFY9DM0NL5,4,3
113,2,object_02,object_08,962.59999990463,4,2,613.40000009537,0.7777777777777778,2,object_03,1,899,0,3,7,forest_4,1,memory-2step-stake-s,602,2376864,0.0-19.0-0.0-0.113,A3EZEVKRB0VRNM,306996CF7Z0Y3F4KVQ7DFLTE4FJB13,3K9FOBBF2LZGGEVFHSZ7FFY9DM0NL5,3,4
114,4,object_06,object_07,861.0,8,2,657.90000009537,0.4444444444444444,2,object_03,5,919,0,5,4,restaurant_7,1,memory-2step-stake-s,603,2385166,0.0-19.0-0.0-0.114,A3EZEVKRB0VRNM,306996CF7Z0Y3F4KVQ7DFLTE4FJB13,3K9FOBBF2LZGGEVFHSZ7FFY9DM0NL5,7,8
115,1,object_10,object_04,846.0,2,1,559.0,0.2222222222222222,2,object_03,1,921,0,7,2,desert_2,1,memory-2step-stake-s,604,2393257,0.0-19.0-0.0-0.115,A3EZEVKRB0VRNM,306996CF7Z0Y3F4KVQ7DFLTE4FJB13,3K9FOBBF2LZGGEVFHSZ7FFY9DM0NL5,2,1
116,1,object_04,object_10,1101.4000000954,1,1,657.40000009537,0.6666666666666666,1,object_01,1,927,0,6,0,desert_8,1,memory-2step-stake-s,605,2401898,0.0-19.0-0.0-0.116,A3EZEVKRB0VRNM,306996CF7Z0Y3F4KVQ7DFLTE4FJB13,3K9FOBBF2LZGGEVFHSZ7FFY9DM0NL5,1,2
117,4,object_06,object_07,1144.1000001431,7,1,584.59999990463,0.8888888888888888,1,object_01,5,967,0,8,4,restaurant_7,1,memory-2step-stake-s,606,2410688,0.0-19.0-0.0-0.117,A3EZEVKRB0VRNM,306996CF7Z0Y3F4KVQ7DFLTE4FJB13,3K9FOBBF2LZGGEVFHSZ7FFY9DM0NL5,7,8
118,4,object_07,object_06,1044.0999999046,7,2,557.70000004768,1.0,1,object_01,1,976,0,9,9,restaurant_5,1,memory-2step-stake-s,607,2419581,0.0-19.0-0.0-0.118,A3EZEVKRB0VRNM,306996CF7Z0Y3F4KVQ7DFLTE4FJB13,3K9FOBBF2LZGGEVFHSZ7FFY9DM0NL5,8,7
119,4,object_07,object_06,955.79999995232,7,2,839.29999995232,0.5555555555555556,1,object_01,5,1001,0,5,8,restaurant_5,1,memory-2step-stake-s,608,2428278,0.0-19.0-0.0-0.119,A3EZEVKRB0VRNM,306996CF7Z0Y3F4KVQ7DFLTE4FJB13,3K9FOBBF2LZGGEVFHSZ7FFY9DM0NL5,8,7
120,2,object_02,object_08,1113.9000000954,3,1,568.29999995232,0.4444444444444444,1,object_01,1,1005,0,4,9,forest_5,1,memory-2step-stake-s,609,2436629,0.0-19.0-0.0-0.120,A3EZEVKRB0VRNM,306996CF7Z0Y3F4KVQ7DFLTE4FJB13,3K9FOBBF2LZGGEVFHSZ7FFY9DM0NL5,3,4
121,2,object_08,object_02,923.60000014305,3,2,600.5,0.2222222222222222,1,object_01,1,1007,0,2,7,forest_4,1,memory-2step-stake-s,610,2444758,0.0-19.0-0.0-0.121,A3EZEVKRB0VRNM,306996CF7Z0Y3F4KVQ7DFLTE4FJB13,3K9FOBBF2LZGGEVFHSZ7FFY9DM0NL5,4,3
122,1,object_04,object_10,963.0,1,1,496.5,0.5555555555555556,1,object_01,1,1012,0,5,6,desert_8,1,memory-2step-stake-s,611,2453129,0.0-19.0-0.0-0.122,A3EZEVKRB0VRNM,306996CF7Z0Y3F4KVQ7DFLTE4FJB13,3K9FOBBF2LZGGEVFHSZ7FFY9DM0NL5,1,2
123,4,object_06,object_07,1071.7000000477,7,1,720.70000004768,1.0,1,object_01,5,1057,0,9,0,restaurant_5,1,memory-2step-stake-s,612,2462209,0.0-19.0-0.0-0.123,A3EZEVKRB0VRNM,306996CF7Z0Y3F4KVQ7DFLTE4FJB13,3K9FOBBF2LZGGEVFHSZ7FFY9DM0NL5,7,8
124,1,object_04,object_10,1119.2000000477,1,1,466.29999995232,0.7777777777777778,1,object_01,1,1064,0,7,0,desert_2,1,memory-2step-stake-s,613,2470799,0.0-19.0-0.0-0.124,A3EZEVKRB0VRNM,306996CF7Z0Y3F4KVQ7DFLTE4FJB13,3K9FOBBF2LZGGEVFHSZ7FFY9DM0NL5,1,2
125,4,object_06,object_07,731.69999980927,7,1,40.400000095367,0.5555555555555556,1,object_01,5,1089,0,5,1,restaurant_7,1,memory-2step-stake-s,614,2478693,0.0-19.0-0.0-0.125,A3EZEVKRB0VRNM,306996CF7Z0Y3F4KVQ7DFLTE4FJB13,3K9FOBBF2LZGGEVFHSZ7FFY9DM0NL5,7,8
126,3,object_09,object_05,1017.3000001907,5,2,645.20000004768,0.5555555555555556,1,object_01,5,1114,0,5,3,library_3,1,memory-2step-stake-s,615,2487080,0.0-19.0-0.0-0.126,A3EZEVKRB0VRNM,306996CF7Z0Y3F4KVQ7DFLTE4FJB13,3K9FOBBF2LZGGEVFHSZ7FFY9DM0NL5,6,5
127,4,object_07,object_06,897.70000004768,8,1,412.70000004768,0.5555555555555556,2,object_03,5,1139,0,6,5,restaurant_4,1,memory-2step-stake-s,616,2495351,0.0-19.0-0.0-0.127,A3EZEVKRB0VRNM,306996CF7Z0Y3F4KVQ7DFLTE4FJB13,3K9FOBBF2LZGGEVFHSZ7FFY9DM0NL5,8,7
128,2,object_02,object_08,1015.0,4,2,581.89999985695,0.4444444444444444,2,object_03,1,1143,0,7,4,forest_6,1,memory-2step-stake-s,618,2658329,0.0-19.0-0.1-0.128,A3EZEVKRB0VRNM,306996CF7Z0Y3F4KVQ7DFLTE4FJB13,3K9FOBBF2LZGGEVFHSZ7FFY9DM0NL5,3,4
129,2,object_08,object_02,632.39999985695,4,1,545.10000014305,0.3333333333333333,2,object_03,5,1158,0,4,3,forest_6,1,memory-2step-stake-s,619,2666420,0.0-19.0-0.1-0.129,A3EZEVKRB0VRNM,306996CF7Z0Y3F4KVQ7DFLTE4FJB13,3K9FOBBF2LZGGEVFHSZ7FFY9DM0NL5,4,3
130,1,object_04,object_10,997.19999980927,1,1,559.59999990463,0.5555555555555556,1,object_01,1,1163,0,5,5,desert_8,1,memory-2step-stake-s,620,2674856,0.0-19.0-0.1-0.130,A3EZEVKRB0VRNM,306996CF7Z0Y3F4KVQ7DFLTE4FJB13,3K9FOBBF2LZGGEVFHSZ7FFY9DM0NL5,1,2
131,4,object_06,object_07,1058.4000000954,7,1,723.29999995232,0.6666666666666666,1,object_01,5,1193,0,6,4,restaurant_2,1,memory-2step-stake-s,621,2683556,0.0-19.0-0.1-0.131,A3EZEVKRB0VRNM,306996CF7Z0Y3F4KVQ7DFLTE4FJB13,3K9FOBBF2LZGGEVFHSZ7FFY9DM0NL5,7,8
132,2,object_08,object_02,980.60000014305,3,2,555.5,0.5555555555555556,1,object_01,5,1218,0,5,7,forest_1,1,memory-2step-stake-s,622,2691935,0.0-19.0-0.1-0.132,A3EZEVKRB0VRNM,306996CF7Z0Y3F4KVQ7DFLTE4FJB13,3K9FOBBF2LZGGEVFHSZ7FFY9DM0NL5,4,3
133,4,object_06,object_07,1155.7999999523,7,1,738.5,0.6666666666666666,1,object_01,5,1248,0,6,7,restaurant_4,1,memory-2step-stake-s,623,2700677,0.0-19.0-0.1-0.133,A3EZEVKRB0VRNM,306996CF7Z0Y3F4KVQ7DFLTE4FJB13,3K9FOBBF2LZGGEVFHSZ7FFY9DM0NL5,7,8
134,3,object_05,object_09,1079.7000000477,5,1,425.29999995232,0.4444444444444444,1,object_01,5,1268,0,4,8,library_7,1,memory-2step-stake-s,624,2708857,0.0-19.0-0.1-0.134,A3EZEVKRB0VRNM,306996CF7Z0Y3F4KVQ7DFLTE4FJB13,3K9FOBBF2LZGGEVFHSZ7FFY9DM0NL5,5,6
135,3,object_05,object_09,872.20000004768,6,2,584.80000019073,0.7777777777777778,2,object_03,5,1303,0,5,7,library_2,1,memory-2step-stake-s,625,2717458,0.0-19.0-0.1-0.135,A3EZEVKRB0VRNM,306996CF7Z0Y3F4KVQ7DFLTE4FJB13,3K9FOBBF2LZGGEVFHSZ7FFY9DM0NL5,5,6
136,2,object_02,object_08,1053.2999999523,3,1,684.29999995232,0.1111111111111111,1,object_01,1,1304,0,1,8,forest_5,1,memory-2step-stake-s,626,2725486,0.0-19.0-0.1-0.136,A3EZEVKRB0VRNM,306996CF7Z0Y3F4KVQ7DFLTE4FJB13,3K9FOBBF2LZGGEVFHSZ7FFY9DM0NL5,3,4
137,3,object_09,object_05,1053.6999998093,6,1,745.60000014305,0.5555555555555556,2,object_03,5,1329,0,2,5,library_4,1,memory-2step-stake-s,627,2734108,0.0-19.0-0.1-0.137,A3EZEVKRB0VRNM,306996CF7Z0Y3F4KVQ7DFLTE4FJB13,3K9FOBBF2LZGGEVFHSZ7FFY9DM0NL5,6,5
138,4,object_06,object_07,1263.6000001431,8,2,694.20000004768,0.2222222222222222,2,object_03,5,1339,0,2,2,restaurant_7,1,memory-2step-stake-s,628,2742302,0.0-19.0-0.1-0.138,A3EZEVKRB0VRNM,306996CF7Z0Y3F4KVQ7DFLTE4FJB13,3K9FOBBF2LZGGEVFHSZ7FFY9DM0NL5,7,8
139,4,object_06,object_07,976.89999985695,7,1,619.5,0.1111111111111111,1,object_01,5,1344,0,1,5,restaurant_5,1,memory-2step-stake-s,629,2750285,0.0-19.0-0.1-0.139,A3EZEVKRB0VRNM,306996CF7Z0Y3F4KVQ7DFLTE4FJB13,3K9FOBBF2LZGGEVFHSZ7FFY9DM0NL5,7,8
140,3,object_05,object_09,725.70000004768,6,2,594.10000014305,0.7777777777777778,2,object_03,5,1379,0,1,7,library_3,1,memory-2step-stake-s,630,2758862,0.0-19.0-0.1-0.140,A3EZEVKRB0VRNM,306996CF7Z0Y3F4KVQ7DFLTE4FJB13,3K9FOBBF2LZGGEVFHSZ7FFY9DM0NL5,5,6
141,4,object_07,object_06,969.0,7,2,748.29999995232,0.1111111111111111,1,object_01,5,1384,0,1,6,restaurant_7,1,memory-2step-stake-s,631,2766959,0.0-19.0-0.1-0.141,A3EZEVKRB0VRNM,306996CF7Z0Y3F4KVQ7DFLTE4FJB13,3K9FOBBF2LZGGEVFHSZ7FFY9DM0NL5,8,7
142,3,object_05,object_09,784.79999995232,6,2,605.29999995232,0.8888888888888888,2,object_03,5,1424,0,3,8,library_3,1,memory-2step-stake-s,632,2775622,0.0-19.0-0.1-0.142,A3EZEVKRB0VRNM,306996CF7Z0Y3F4KVQ7DFLTE4FJB13,3K9FOBBF2LZGGEVFHSZ7FFY9DM0NL5,5,6
143,1,object_10,object_04,1001.7999999523,1,2,762.70000004768,0.5555555555555556,1,object_01,1,1429,0,5,8,desert_8,1,memory-2step-stake-s,633,2784150,0.0-19.0-0.1-0.143,A3EZEVKRB0VRNM,306996CF7Z0Y3F4KVQ7DFLTE4FJB13,3K9FOBBF2LZGGEVFHSZ7FFY9DM0NL5,2,1
144,4,object_06,object_07,1145.2999999523,8,2,554.20000004768,1.0,2,object_03,5,1474,0,3,9,restaurant_2,1,memory-2step-stake-s,634,2793010,0.0-19.0-0.1-0.144,A3EZEVKRB0VRNM,306996CF7Z0Y3F4KVQ7DFLTE4FJB13,3K9FOBBF2LZGGEVFHSZ7FFY9DM0NL5,7,8
145,1,object_10,object_04,1083.0,2,1,560.60000014305,0.8888888888888888,2,object_03,1,1482,0,4,8,desert_8,1,memory-2step-stake-s,635,2801770,0.0-19.0-0.1-0.145,A3EZEVKRB0VRNM,306996CF7Z0Y3F4KVQ7DFLTE4FJB13,3K9FOBBF2LZGGEVFHSZ7FFY9DM0NL5,2,1
146,2,object_02,object_08,954.5,4,2,700.59999990463,1.0,2,object_03,5,1527,0,3,9,forest_6,1,memory-2step-stake-s,636,2810664,0.0-19.0-0.1-0.146,A3EZEVKRB0VRNM,306996CF7Z0Y3F4KVQ7DFLTE4FJB13,3K9FOBBF2LZGGEVFHSZ7FFY9DM0NL5,3,4
147,1,object_10,object_04,1064.0,2,1,853.60000014305,0.7777777777777778,2,object_03,1,1534,0,4,7,desert_2,1,memory-2step-stake-s,637,2819650,0.0-19.0-0.1-0.147,A3EZEVKRB0VRNM,306996CF7Z0Y3F4KVQ7DFLTE4FJB13,3K9FOBBF2LZGGEVFHSZ7FFY9DM0NL5,2,1
148,4,object_07,object_06,1296.2999999523,8,1,478.39999985695,0.7777777777777778,2,object_03,5,1569,0,2,7,restaurant_7,1,memory-2step-stake-s,638,2828180,0.0-19.0-0.1-0.148,A3EZEVKRB0VRNM,306996CF7Z0Y3F4KVQ7DFLTE4FJB13,3K9FOBBF2LZGGEVFHSZ7FFY9DM0NL5,8,7
149,2,object_02,object_08,1098.5999999046,3,1,710.70000004768,0.5555555555555556,1,object_01,1,1574,0,5,3,forest_1,1,memory-2step-stake-s,639,2836771,0.0-19.0-0.1-0.149,A3EZEVKRB0VRNM,306996CF7Z0Y3F4KVQ7DFLTE4FJB13,3K9FOBBF2LZGGEVFHSZ7FFY9DM0NL5,3,4
150,4,object_06,object_07,1118.0,8,2,481.5,0.3333333333333333,2,object_03,5,1589,0,9,3,restaurant_4,1,memory-2step-stake-s,640,2844802,0.0-19.0-0.1-0.150,A3EZEVKRB0VRNM,306996CF7Z0Y3F4KVQ7DFLTE4FJB13,3K9FOBBF2LZGGEVFHSZ7FFY9DM0NL5,7,8
151,4,object_07,object_06,1084.5,7,2,708.20000004768,0.8888888888888888,1,object_01,1,1597,0,8,2,restaurant_2,1,memory-2step-stake-s,641,2853731,0.0-19.0-0.1-0.151,A3EZEVKRB0VRNM,306996CF7Z0Y3F4KVQ7DFLTE4FJB13,3K9FOBBF2LZGGEVFHSZ7FFY9DM0NL5,8,7
152,3,object_05,object_09,1504.5,6,2,708.90000009537,0.3333333333333333,2,object_03,1,1600,0,7,3,library_2,1,memory-2step-stake-s,642,2862081,0.0-19.0-0.1-0.152,A3EZEVKRB0VRNM,306996CF7Z0Y3F4KVQ7DFLTE4FJB13,3K9FOBBF2LZGGEVFHSZ7FFY9DM0NL5,5,6
153,3,object_05,object_09,1011.6000001431,5,1,750.79999995232,0.8888888888888888,1,object_01,5,1640,0,8,6,library_7,1,memory-2step-stake-s,643,2871008,0.0-19.0-0.1-0.153,A3EZEVKRB0VRNM,306996CF7Z0Y3F4KVQ7DFLTE4FJB13,3K9FOBBF2LZGGEVFHSZ7FFY9DM0NL5,5,6
154,3,object_09,object_05,-1.0,-1,-1,-1.0,0.0,-,0,5,1640,0,9,7,library_2,1,memory-2step-stake-s,644,2877571,0.0-19.0-0.1-0.154,A3EZEVKRB0VRNM,306996CF7Z0Y3F4KVQ7DFLTE4FJB13,3K9FOBBF2LZGGEVFHSZ7FFY9DM0NL5,6,5
155,1,object_04,object_10,926.10000014305,1,1,588.10000014305,0.7777777777777778,1,object_01,1,1647,0,7,7,desert_1,1,memory-2step-stake-s,645,2886281,0.0-19.0-0.1-0.155,A3EZEVKRB0VRNM,306996CF7Z0Y3F4KVQ7DFLTE4FJB13,3K9FOBBF2LZGGEVFHSZ7FFY9DM0NL5,1,2
156,1,object_10,object_04,1135.2999999523,2,1,601.70000004768,0.8888888888888888,2,object_03,1,1655,0,8,8,desert_2,1,memory-2step-stake-s,646,2895111,0.0-19.0-0.1-0.156,A3EZEVKRB0VRNM,306996CF7Z0Y3F4KVQ7DFLTE4FJB13,3K9FOBBF2LZGGEVFHSZ7FFY9DM0NL5,2,1
157,2,object_02,object_08,980.40000009537,4,2,736.70000004768,0.5555555555555556,2,object_03,5,1680,0,6,5,forest_4,1,memory-2step-stake-s,647,2903618,0.0-19.0-0.1-0.157,A3EZEVKRB0VRNM,306996CF7Z0Y3F4KVQ7DFLTE4FJB13,3K9FOBBF2LZGGEVFHSZ7FFY9DM0NL5,3,4
158,4,object_07,object_06,1047.2999999523,8,1,744.70000004768,0.1111111111111111,2,object_03,5,1685,0,7,1,restaurant_7,1,memory-2step-stake-s,648,2911732,0.0-19.0-0.1-0.158,A3EZEVKRB0VRNM,306996CF7Z0Y3F4KVQ7DFLTE4FJB13,3K9FOBBF2LZGGEVFHSZ7FFY9DM0NL5,8,7
159,2,object_02,object_08,940.89999985695,3,1,480.5,0.3333333333333333,1,object_01,1,1688,0,3,1,forest_5,1,memory-2step-stake-s,649,2919878,0.0-19.0-0.1-0.159,A3EZEVKRB0VRNM,306996CF7Z0Y3F4KVQ7DFLTE4FJB13,3K9FOBBF2LZGGEVFHSZ7FFY9DM0NL5,3,4
160,4,object_06,object_07,1301.6999998093,7,1,665.60000014305,0.6666666666666666,1,object_01,5,1718,0,6,1,restaurant_2,1,memory-2step-stake-s,650,2928527,0.0-19.0-0.1-0.160,A3EZEVKRB0VRNM,306996CF7Z0Y3F4KVQ7DFLTE4FJB13,3K9FOBBF2LZGGEVFHSZ7FFY9DM0NL5,7,8
161,3,object_09,object_05,895.29999995232,6,1,567.29999995232,0.0,2,object_03,1,1718,0,5,0,library_4,1,memory-2step-stake-s,651,2936404,0.0-19.0-0.1-0.161,A3EZEVKRB0VRNM,306996CF7Z0Y3F4KVQ7DFLTE4FJB13,3K9FOBBF2LZGGEVFHSZ7FFY9DM0NL5,6,5
162,1,object_04,object_10,1202.6000001431,2,2,690.0,0.1111111111111111,2,object_03,1,1719,0,4,1,desert_6,1,memory-2step-stake-s,652,2944504,0.0-19.0-0.1-0.162,A3EZEVKRB0VRNM,306996CF7Z0Y3F4KVQ7DFLTE4FJB13,3K9FOBBF2LZGGEVFHSZ7FFY9DM0NL5,1,2
163,2,object_02,object_08,1316.9000000954,4,2,637.5,0.1111111111111111,2,object_03,5,1724,0,3,1,forest_5,1,memory-2step-stake-s,653,2952525,0.0-19.0-0.1-0.163,A3EZEVKRB0VRNM,306996CF7Z0Y3F4KVQ7DFLTE4FJB13,3K9FOBBF2LZGGEVFHSZ7FFY9DM0NL5,3,4
164,1,object_10,object_04,1355.0999999046,1,2,667.0,0.2222222222222222,1,object_01,5,1734,0,2,0,desert_6,1,memory-2step-stake-s,654,2960664,0.0-19.0-0.1-0.164,A3EZEVKRB0VRNM,306996CF7Z0Y3F4KVQ7DFLTE4FJB13,3K9FOBBF2LZGGEVFHSZ7FFY9DM0NL5,2,1
165,4,object_06,object_07,1046.4000000954,8,2,546.29999995232,0.2222222222222222,2,object_03,5,1744,0,2,2,restaurant_5,1,memory-2step-stake-s,655,2968655,0.0-19.0-0.1-0.165,A3EZEVKRB0VRNM,306996CF7Z0Y3F4KVQ7DFLTE4FJB13,3K9FOBBF2LZGGEVFHSZ7FFY9DM0NL5,7,8
166,4,object_07,object_06,1162.1999998093,7,2,716.39999985695,0.1111111111111111,1,object_01,5,1749,0,1,2,restaurant_7,1,memory-2step-stake-s,656,2976785,0.0-19.0-0.1-0.166,A3EZEVKRB0VRNM,306996CF7Z0Y3F4KVQ7DFLTE4FJB13,3K9FOBBF2LZGGEVFHSZ7FFY9DM0NL5,8,7
167,3,object_05,object_09,939.09999990463,6,2,513.5,0.1111111111111111,2,object_03,5,1754,0,3,1,library_7,1,memory-2step-stake-s,657,2984736,0.0-19.0-0.1-0.167,A3EZEVKRB0VRNM,306996CF7Z0Y3F4KVQ7DFLTE4FJB13,3K9FOBBF2LZGGEVFHSZ7FFY9DM0NL5,5,6
168,2,object_08,object_02,1113.0,4,1,789.59999990463,0.4444444444444444,2,object_03,1,1758,0,7,4,forest_4,1,memory-2step-stake-s,658,2993296,0.0-19.0-0.1-0.168,A3EZEVKRB0VRNM,306996CF7Z0Y3F4KVQ7DFLTE4FJB13,3K9FOBBF2LZGGEVFHSZ7FFY9DM0NL5,4,3
169,1,object_10,object_04,1065.7999999523,2,1,781.5,0.6666666666666666,2,object_03,1,1764,0,5,6,desert_1,1,memory-2step-stake-s,659,3002066,0.0-19.0-0.1-0.169,A3EZEVKRB0VRNM,306996CF7Z0Y3F4KVQ7DFLTE4FJB13,3K9FOBBF2LZGGEVFHSZ7FFY9DM0NL5,2,1
170,3,object_09,object_05,926.79999995232,5,2,711.20000004768,0.7777777777777778,1,object_01,5,1799,0,7,5,library_2,1,memory-2step-stake-s,660,3010866,0.0-19.0-0.1-0.170,A3EZEVKRB0VRNM,306996CF7Z0Y3F4KVQ7DFLTE4FJB13,3K9FOBBF2LZGGEVFHSZ7FFY9DM0NL5,6,5
171,1,object_04,object_10,1102.7000000477,1,1,670.40000009537,1.0,1,object_01,1,1808,0,9,8,desert_1,1,memory-2step-stake-s,661,3019867,0.0-19.0-0.1-0.171,A3EZEVKRB0VRNM,306996CF7Z0Y3F4KVQ7DFLTE4FJB13,3K9FOBBF2LZGGEVFHSZ7FFY9DM0NL5,1,2
172,4,object_07,object_06,1241.5999999046,8,1,743.19999980927,0.7777777777777778,2,object_03,1,1815,0,9,7,restaurant_7,1,memory-2step-stake-s,662,3028707,0.0-19.0-0.1-0.172,A3EZEVKRB0VRNM,306996CF7Z0Y3F4KVQ7DFLTE4FJB13,3K9FOBBF2LZGGEVFHSZ7FFY9DM0NL5,8,7
173,2,object_08,object_02,972.89999985695,4,1,622.79999995232,0.6666666666666666,2,object_03,1,1821,0,6,6,forest_6,1,memory-2step-stake-s,663,3037317,0.0-19.0-0.1-0.173,A3EZEVKRB0VRNM,306996CF7Z0Y3F4KVQ7DFLTE4FJB13,3K9FOBBF2LZGGEVFHSZ7FFY9DM0NL5,4,3
174,1,object_04,object_10,1125.0,2,2,531.70000004768,0.6666666666666666,2,object_03,1,1827,0,5,6,desert_1,1,memory-2step-stake-s,664,3045864,0.0-19.0-0.1-0.174,A3EZEVKRB0VRNM,306996CF7Z0Y3F4KVQ7DFLTE4FJB13,3K9FOBBF2LZGGEVFHSZ7FFY9DM0NL5,1,2
175,2,object_02,object_08,878.0,4,2,821.90000009537,0.5555555555555556,2,object_03,1,1832,0,9,5,forest_5,1,memory-2step-stake-s,665,3054567,0.0-19.0-0.1-0.175,A3EZEVKRB0VRNM,306996CF7Z0Y3F4KVQ7DFLTE4FJB13,3K9FOBBF2LZGGEVFHSZ7FFY9DM0NL5,3,4
176,4,object_06,object_07,1073.0999999046,8,2,544.90000009537,0.1111111111111111,2,object_03,5,1837,0,9,1,restaurant_4,1,memory-2step-stake-s,666,3062537,0.0-19.0-0.1-0.176,A3EZEVKRB0VRNM,306996CF7Z0Y3F4KVQ7DFLTE4FJB13,3K9FOBBF2LZGGEVFHSZ7FFY9DM0NL5,7,8
177,2,object_08,object_02,859.59999990463,4,1,466.29999995232,0.2222222222222222,2,object_03,1,1839,0,9,2,forest_1,1,memory-2step-stake-s,667,3070568,0.0-19.0-0.1-0.177,A3EZEVKRB0VRNM,306996CF7Z0Y3F4KVQ7DFLTE4FJB13,3K9FOBBF2LZGGEVFHSZ7FFY9DM0NL5,4,3
178,2,object_02,object_08,1432.1000001431,4,2,499.10000014305,0.3333333333333333,2,object_03,1,1842,0,4,3,forest_1,1,memory-2step-stake-s,668,3078708,0.0-19.0-0.1-0.178,A3EZEVKRB0VRNM,306996CF7Z0Y3F4KVQ7DFLTE4FJB13,3K9FOBBF2LZGGEVFHSZ7FFY9DM0NL5,3,4
179,4,object_06,object_07,932.0,8,2,431.39999985695,0.5555555555555556,2,object_03,1,1847,0,9,5,restaurant_4,1,memory-2step-stake-s,669,3087018,0.0-19.0-0.1-0.179,A3EZEVKRB0VRNM,306996CF7Z0Y3F4KVQ7DFLTE4FJB13,3K9FOBBF2LZGGEVFHSZ7FFY9DM0NL5,7,8
180,2,object_08,object_02,1307.4000000954,4,1,507.69999980927,0.7777777777777778,2,object_03,1,1854,0,8,7,forest_6,1,memory-2step-stake-s,670,3095638,0.0-19.0-0.1-0.180,A3EZEVKRB0VRNM,306996CF7Z0Y3F4KVQ7DFLTE4FJB13,3K9FOBBF2LZGGEVFHSZ7FFY9DM0NL5,4,3
181,2,object_02,object_08,1086.8999998569,4,2,674.79999995232,0.8888888888888888,2,object_03,5,1894,0,6,8,forest_1,1,memory-2step-stake-s,671,3104549,0.0-19.0-0.1-0.181,A3EZEVKRB0VRNM,306996CF7Z0Y3F4KVQ7DFLTE4FJB13,3K9FOBBF2LZGGEVFHSZ7FFY9DM0NL5,3,4
182,4,object_07,object_06,1050.1000001431,8,1,659.39999985695,0.5555555555555556,2,object_03,5,1919,0,6,5,restaurant_4,1,memory-2step-stake-s,672,3113090,0.0-19.0-0.1-0.182,A3EZEVKRB0VRNM,306996CF7Z0Y3F4KVQ7DFLTE4FJB13,3K9FOBBF2LZGGEVFHSZ7FFY9DM0NL5,8,7
183,2,object_02,object_08,634.19999980927,3,1,454.39999985695,0.8888888888888888,1,object_01,1,1927,0,8,6,forest_1,1,memory-2step-stake-s,673,3121766,0.0-19.0-0.1-0.183,A3EZEVKRB0VRNM,306996CF7Z0Y3F4KVQ7DFLTE4FJB13,3K9FOBBF2LZGGEVFHSZ7FFY9DM0NL5,3,4
184,3,object_09,object_05,1066.9000000954,5,2,581.5,0.7777777777777778,1,object_01,5,1962,0,7,5,library_3,1,memory-2step-stake-s,674,3130440,0.0-19.0-0.1-0.184,A3EZEVKRB0VRNM,306996CF7Z0Y3F4KVQ7DFLTE4FJB13,3K9FOBBF2LZGGEVFHSZ7FFY9DM0NL5,6,5
185,1,object_04,object_10,1114.8999998569,2,2,660.20000004768,0.5555555555555556,2,object_03,1,1967,0,5,5,desert_6,1,memory-2step-stake-s,675,3138953,0.0-19.0-0.1-0.185,A3EZEVKRB0VRNM,306996CF7Z0Y3F4KVQ7DFLTE4FJB13,3K9FOBBF2LZGGEVFHSZ7FFY9DM0NL5,1,2
186,4,object_07,object_06,979.39999985695,8,1,674.90000009537,0.3333333333333333,2,object_03,5,1982,0,5,3,restaurant_5,1,memory-2step-stake-s,676,3147294,0.0-19.0-0.1-0.186,A3EZEVKRB0VRNM,306996CF7Z0Y3F4KVQ7DFLTE4FJB13,3K9FOBBF2LZGGEVFHSZ7FFY9DM0NL5,8,7
187,3,object_09,object_05,1083.9000000954,5,2,633.90000009537,0.1111111111111111,1,object_01,5,1987,0,1,1,library_7,1,memory-2step-stake-s,677,3155331,0.0-19.0-0.1-0.187,A3EZEVKRB0VRNM,306996CF7Z0Y3F4KVQ7DFLTE4FJB13,3K9FOBBF2LZGGEVFHSZ7FFY9DM0NL5,6,5
188,3,object_05,object_09,1114.0,6,2,673.5,0.0,2,object_03,5,1987,0,3,0,library_4,1,memory-2step-stake-s,678,3163311,0.0-19.0-0.1-0.188,A3EZEVKRB0VRNM,306996CF7Z0Y3F4KVQ7DFLTE4FJB13,3K9FOBBF2LZGGEVFHSZ7FFY9DM0NL5,5,6
189,1,object_04,object_10,825.29999995232,1,1,609.79999995232,0.3333333333333333,1,object_01,1,1990,0,3,3,desert_2,1,memory-2step-stake-s,679,3171541,0.0-19.0-0.1-0.189,A3EZEVKRB0VRNM,306996CF7Z0Y3F4KVQ7DFLTE4FJB13,3K9FOBBF2LZGGEVFHSZ7FFY9DM0NL5,1,2
190,3,object_09,object_05,777.29999995232,6,1,666.70000004768,0.6666666666666666,2,object_03,5,2020,0,4,6,library_2,1,memory-2step-stake-s,680,3180211,0.0-19.0-0.1-0.190,A3EZEVKRB0VRNM,306996CF7Z0Y3F4KVQ7DFLTE4FJB13,3K9FOBBF2LZGGEVFHSZ7FFY9DM0NL5,6,5
191,4,object_07,object_06,1191.3000001907,7,2,649.79999995232,0.7777777777777778,1,object_01,5,2055,0,7,6,restaurant_4,1,memory-2step-stake-s,681,3189002,0.0-19.0-0.1-0.191,A3EZEVKRB0VRNM,306996CF7Z0Y3F4KVQ7DFLTE4FJB13,3K9FOBBF2LZGGEVFHSZ7FFY9DM0NL5,8,7
192,3,object_05,object_09,950.30000019073,6,2,554.40000009537,0.6666666666666666,2,object_03,1,2061,0,5,6,library_3,1,memory-2step-stake-s,682,3197522,0.0-19.0-0.1-0.192,A3EZEVKRB0VRNM,306996CF7Z0Y3F4KVQ7DFLTE4FJB13,3K9FOBBF2LZGGEVFHSZ7FFY9DM0NL5,5,6
193,3,object_05,object_09,654.40000009537,6,2,601.59999990463,0.8888888888888888,2,object_03,5,2101,0,7,8,library_7,1,memory-2step-stake-s,683,3206171,0.0-19.0-0.1-0.193,A3EZEVKRB0VRNM,306996CF7Z0Y3F4KVQ7DFLTE4FJB13,3K9FOBBF2LZGGEVFHSZ7FFY9DM0NL5,5,6
194,4,object_06,object_07,1025.0,7,1,1042.7999999523,0.1111111111111111,1,object_01,5,2106,0,1,9,restaurant_2,1,memory-2step-stake-s,684,3214623,0.0-19.0-0.1-0.194,A3EZEVKRB0VRNM,306996CF7Z0Y3F4KVQ7DFLTE4FJB13,3K9FOBBF2LZGGEVFHSZ7FFY9DM0NL5,7,8
195,1,object_10,object_04,714.59999990463,1,2,639.5,0.2222222222222222,1,object_01,1,2108,0,2,8,desert_8,1,memory-2step-stake-s,685,3222803,0.0-19.0-0.1-0.195,A3EZEVKRB0VRNM,306996CF7Z0Y3F4KVQ7DFLTE4FJB13,3K9FOBBF2LZGGEVFHSZ7FFY9DM0NL5,2,1
196,4,object_06,object_07,1177.2999999523,7,1,576.30000019073,0.2222222222222222,1,object_01,5,2118,0,2,6,restaurant_2,1,memory-2step-stake-s,686,3230903,0.0-19.0-0.1-0.196,A3EZEVKRB0VRNM,306996CF7Z0Y3F4KVQ7DFLTE4FJB13,3K9FOBBF2LZGGEVFHSZ7FFY9DM0NL5,7,8
197,3,object_05,object_09,1105.7999999523,5,1,580.0,0.2222222222222222,1,object_01,5,2128,0,2,8,library_7,1,memory-2step-stake-s,687,3239033,0.0-19.0-0.1-0.197,A3EZEVKRB0VRNM,306996CF7Z0Y3F4KVQ7DFLTE4FJB13,3K9FOBBF2LZGGEVFHSZ7FFY9DM0NL5,5,6
198,1,object_10,object_04,1086.3000001907,2,1,558.5,1.0,2,object_03,1,2137,0,4,9,desert_1,1,memory-2step-stake-s,688,3247943,0.0-19.0-0.1-0.198,A3EZEVKRB0VRNM,306996CF7Z0Y3F4KVQ7DFLTE4FJB13,3K9FOBBF2LZGGEVFHSZ7FFY9DM0NL5,2,1
199,1,object_04,object_10,804.09999990463,2,2,517.29999995232,0.8888888888888888,2,object_03,5,2177,0,5,8,desert_1,1,memory-2step-stake-s,689,3256714,0.0-19.0-0.1-0.199,A3EZEVKRB0VRNM,306996CF7Z0Y3F4KVQ7DFLTE4FJB13,3K9FOBBF2LZGGEVFHSZ7FFY9DM0NL5,1,2
200,2,object_02,object_08,1043.7999999523,3,1,603.09999990463,0.6666666666666666,1,object_01,1,2183,0,6,8,forest_5,1,memory-2step-stake-s,690,3265172,0.0-19.0-0.1-0.200,A3EZEVKRB0VRNM,306996CF7Z0Y3F4KVQ7DFLTE4FJB13,3K9FOBBF2LZGGEVFHSZ7FFY9DM0NL5,3,4
201,4,object_06,object_07,1287.6000001431,8,2,54.299999952316,0.7777777777777778,2,object_03,5,2218,0,7,7,restaurant_7,1,memory-2step-stake-s,691,3273324,0.0-19.0-0.1-0.201,A3EZEVKRB0VRNM,306996CF7Z0Y3F4KVQ7DFLTE4FJB13,3K9FOBBF2LZGGEVFHSZ7FFY9DM0NL5,7,8
202,3,object_05,object_09,1158.3999998569,5,1,657.5,0.8888888888888888,1,object_01,5,2258,0,8,6,library_4,1,memory-2step-stake-s,692,3282204,0.0-19.0-0.1-0.202,A3EZEVKRB0VRNM,306996CF7Z0Y3F4KVQ7DFLTE4FJB13,3K9FOBBF2LZGGEVFHSZ7FFY9DM0NL5,5,6
203,4,object_06,object_07,1413.8999998569,8,2,553.5,0.7777777777777778,2,object_03,5,2293,0,8,7,restaurant_7,1,memory-2step-stake-s,693,3290855,0.0-19.0-0.1-0.203,A3EZEVKRB0VRNM,306996CF7Z0Y3F4KVQ7DFLTE4FJB13,3K9FOBBF2LZGGEVFHSZ7FFY9DM0NL5,7,8
204,3,object_09,object_05,931.70000004768,5,2,556.89999985695,0.7777777777777778,1,object_01,5,2328,0,7,8,library_7,1,memory-2step-stake-s,694,3299555,0.0-19.0-0.1-0.204,A3EZEVKRB0VRNM,306996CF7Z0Y3F4KVQ7DFLTE4FJB13,3K9FOBBF2LZGGEVFHSZ7FFY9DM0NL5,6,5
205,4,object_06,object_07,883.20000004768,8,2,574.90000009537,0.7777777777777778,2,object_03,5,2363,0,8,7,restaurant_4,1,memory-2step-stake-s,695,3308225,0.0-19.0-0.1-0.205,A3EZEVKRB0VRNM,306996CF7Z0Y3F4KVQ7DFLTE4FJB13,3K9FOBBF2LZGGEVFHSZ7FFY9DM0NL5,7,8
206,3,object_05,object_09,1153.0,5,1,708.5,1.0,1,object_01,5,2408,0,9,7,library_2,1,memory-2step-stake-s,696,3317285,0.0-19.0-0.1-0.206,A3EZEVKRB0VRNM,306996CF7Z0Y3F4KVQ7DFLTE4FJB13,3K9FOBBF2LZGGEVFHSZ7FFY9DM0NL5,5,6
207,3,object_05,object_09,985.60000014305,5,1,619.20000004768,0.6666666666666666,1,object_01,1,2414,0,6,6,library_4,1,memory-2step-stake-s,697,3325751,0.0-19.0-0.1-0.207,A3EZEVKRB0VRNM,306996CF7Z0Y3F4KVQ7DFLTE4FJB13,3K9FOBBF2LZGGEVFHSZ7FFY9DM0NL5,5,6
208,1,object_10,object_04,1261.1999998093,2,1,673.90000009537,0.5555555555555556,2,object_03,1,2419,0,7,5,desert_6,1,memory-2step-stake-s,698,3334306,0.0-19.0-0.1-0.208,A3EZEVKRB0VRNM,306996CF7Z0Y3F4KVQ7DFLTE4FJB13,3K9FOBBF2LZGGEVFHSZ7FFY9DM0NL5,2,1
209,2,object_02,object_08,1402.9000000954,3,1,806.19999980927,0.7777777777777778,1,object_01,1,2426,0,7,7,forest_5,1,memory-2step-stake-s,699,3343216,0.0-19.0-0.1-0.209,A3EZEVKRB0VRNM,306996CF7Z0Y3F4KVQ7DFLTE4FJB13,3K9FOBBF2LZGGEVFHSZ7FFY9DM0NL5,3,4
210,4,object_07,object_06,1392.9000000954,8,1,617.0,0.8888888888888888,2,object_03,5,2466,0,7,8,restaurant_5,1,memory-2step-stake-s,700,3352077,0.0-19.0-0.1-0.210,A3EZEVKRB0VRNM,306996CF7Z0Y3F4KVQ7DFLTE4FJB13,3K9FOBBF2LZGGEVFHSZ7FFY9DM0NL5,8,7
211,1,object_04,object_10,1272.2999999523,2,2,602.09999990463,0.7777777777777778,2,object_03,1,2473,0,3,7,desert_8,1,memory-2step-stake-s,701,3360777,0.0-19.0-0.1-0.211,A3EZEVKRB0VRNM,306996CF7Z0Y3F4KVQ7DFLTE4FJB13,3K9FOBBF2LZGGEVFHSZ7FFY9DM0NL5,1,2
212,2,object_02,object_08,962.09999990463,3,1,663.5,0.3333333333333333,1,object_01,1,2476,0,3,8,forest_4,1,memory-2step-stake-s,702,3369078,0.0-19.0-0.1-0.212,A3EZEVKRB0VRNM,306996CF7Z0Y3F4KVQ7DFLTE4FJB13,3K9FOBBF2LZGGEVFHSZ7FFY9DM0NL5,3,4
213,3,object_05,object_09,1032.2999999523,5,1,688.20000004768,0.2222222222222222,1,object_01,1,2478,0,2,6,library_3,1,memory-2step-stake-s,703,3377298,0.0-19.0-0.1-0.213,A3EZEVKRB0VRNM,306996CF7Z0Y3F4KVQ7DFLTE4FJB13,3K9FOBBF2LZGGEVFHSZ7FFY9DM0NL5,5,6
214,2,object_02,object_08,954.39999985695,4,2,499.70000004768,0.8888888888888888,2,object_03,1,2486,0,0,8,forest_5,1,memory-2step-stake-s,704,3385858,0.0-19.0-0.1-0.214,A3EZEVKRB0VRNM,306996CF7Z0Y3F4KVQ7DFLTE4FJB13,3K9FOBBF2LZGGEVFHSZ7FFY9DM0NL5,3,4
215,3,object_09,object_05,993.20000004768,6,1,538.09999990463,1.0,2,object_03,5,2531,0,0,9,library_3,1,memory-2step-stake-s,705,3394698,0.0-19.0-0.1-0.215,A3EZEVKRB0VRNM,306996CF7Z0Y3F4KVQ7DFLTE4FJB13,3K9FOBBF2LZGGEVFHSZ7FFY9DM0NL5,6,5
216,3,object_09,object_05,517.79999995232,6,1,510.20000004768,0.8888888888888888,2,object_03,5,2571,0,1,8,library_2,1,memory-2step-stake-s,706,3403438,0.0-19.0-0.1-0.216,A3EZEVKRB0VRNM,306996CF7Z0Y3F4KVQ7DFLTE4FJB13,3K9FOBBF2LZGGEVFHSZ7FFY9DM0NL5,6,5
217,3,object_09,object_05,602.59999990463,6,1,631.89999985695,0.5555555555555556,2,object_03,5,2596,0,2,5,library_3,1,memory-2step-stake-s,707,3411928,0.0-19.0-0.1-0.217,A3EZEVKRB0VRNM,306996CF7Z0Y3F4KVQ7DFLTE4FJB13,3K9FOBBF2LZGGEVFHSZ7FFY9DM0NL5,6,5
218,3,object_09,object_05,604.0,6,1,655.90000009537,0.3333333333333333,2,object_03,5,2611,0,1,3,library_2,1,memory-2step-stake-s,708,3420238,0.0-19.0-0.1-0.218,A3EZEVKRB0VRNM,306996CF7Z0Y3F4KVQ7DFLTE4FJB13,3K9FOBBF2LZGGEVFHSZ7FFY9DM0NL5,6,5
219,2,object_08,object_02,922.59999990463,3,2,428.40000009537,0.2222222222222222,1,object_01,1,2613,0,2,1,forest_6,1,memory-2step-stake-s,709,3428198,0.0-19.0-0.1-0.219,A3EZEVKRB0VRNM,306996CF7Z0Y3F4KVQ7DFLTE4FJB13,3K9FOBBF2LZGGEVFHSZ7FFY9DM0NL5,4,3
220,1,object_04,object_10,1028.7000000477,2,2,767.19999980927,0.3333333333333333,2,object_03,5,2628,0,3,3,desert_1,1,memory-2step-stake-s,710,3436589,0.0-19.0-0.1-0.220,A3EZEVKRB0VRNM,306996CF7Z0Y3F4KVQ7DFLTE4FJB13,3K9FOBBF2LZGGEVFHSZ7FFY9DM0NL5,1,2
221,1,object_10,object_04,1197.5,1,2,562.79999995232,0.2222222222222222,1,object_01,1,2630,0,2,4,desert_8,1,memory-2step-stake-s,711,3444599,0.0-19.0-0.1-0.221,A3EZEVKRB0VRNM,306996CF7Z0Y3F4KVQ7DFLTE4FJB13,3K9FOBBF2LZGGEVFHSZ7FFY9DM0NL5,2,1
222,3,object_09,object_05,1060.2999999523,5,2,465.29999995232,0.1111111111111111,1,object_01,1,2631,0,1,5,library_4,1,memory-2step-stake-s,712,3452459,0.0-19.0-0.1-0.222,A3EZEVKRB0VRNM,306996CF7Z0Y3F4KVQ7DFLTE4FJB13,3K9FOBBF2LZGGEVFHSZ7FFY9DM0NL5,6,5
223,3,object_05,object_09,1434.3000001907,6,2,572.39999985695,0.5555555555555556,2,object_03,5,2656,0,1,5,library_3,1,memory-2step-stake-s,713,3460940,0.0-19.0-0.1-0.223,A3EZEVKRB0VRNM,306996CF7Z0Y3F4KVQ7DFLTE4FJB13,3K9FOBBF2LZGGEVFHSZ7FFY9DM0NL5,5,6
224,1,object_10,object_04,1426.5,1,2,507.90000009537,0.2222222222222222,1,object_01,1,2658,0,2,5,desert_6,1,memory-2step-stake-s,714,3468981,0.0-19.0-0.1-0.224,A3EZEVKRB0VRNM,306996CF7Z0Y3F4KVQ7DFLTE4FJB13,3K9FOBBF2LZGGEVFHSZ7FFY9DM0NL5,2,1
225,3,object_05,object_09,1464.2999999523,6,2,577.0,0.4444444444444444,2,object_03,1,2662,0,1,4,library_7,1,memory-2step-stake-s,715,3477311,0.0-19.0-0.1-0.225,A3EZEVKRB0VRNM,306996CF7Z0Y3F4KVQ7DFLTE4FJB13,3K9FOBBF2LZGGEVFHSZ7FFY9DM0NL5,5,6
226,2,object_02,object_08,1138.8999998569,4,2,611.89999985695,0.3333333333333333,2,object_03,1,2665,0,1,3,forest_6,1,memory-2step-stake-s,716,3485601,0.0-19.0-0.1-0.226,A3EZEVKRB0VRNM,306996CF7Z0Y3F4KVQ7DFLTE4FJB13,3K9FOBBF2LZGGEVFHSZ7FFY9DM0NL5,3,4
227,3,object_09,object_05,1180.0,6,1,916.70000004768,0.6666666666666666,2,object_03,5,2695,0,1,6,library_4,1,memory-2step-stake-s,717,3494512,0.0-19.0-0.1-0.227,A3EZEVKRB0VRNM,306996CF7Z0Y3F4KVQ7DFLTE4FJB13,3K9FOBBF2LZGGEVFHSZ7FFY9DM0NL5,6,5
228,1,object_04,object_10,1051.3999998569,2,2,654.59999990463,0.6666666666666666,2,object_03,1,2701,0,0,6,desert_1,1,memory-2step-stake-s,718,3503013,0.0-19.0-0.1-0.228,A3EZEVKRB0VRNM,306996CF7Z0Y3F4KVQ7DFLTE4FJB13,3K9FOBBF2LZGGEVFHSZ7FFY9DM0NL5,1,2
229,4,object_07,object_06,1098.0999999046,7,2,779.0,0.2222222222222222,1,object_01,5,2711,0,2,6,restaurant_2,1,memory-2step-stake-s,719,3511272,0.0-19.0-0.1-0.229,A3EZEVKRB0VRNM,306996CF7Z0Y3F4KVQ7DFLTE4FJB13,3K9FOBBF2LZGGEVFHSZ7FFY9DM0NL5,8,7
230,3,object_05,object_09,947.70000004768,5,1,537.79999995232,0.4444444444444444,1,object_01,5,2731,0,4,5,library_3,1,memory-2step-stake-s,720,3519592,0.0-19.0-0.1-0.230,A3EZEVKRB0VRNM,306996CF7Z0Y3F4KVQ7DFLTE4FJB13,3K9FOBBF2LZGGEVFHSZ7FFY9DM0NL5,5,6
231,4,object_07,object_06,992.60000014305,8,1,742.70000004768,0.3333333333333333,2,object_03,5,2746,0,3,3,restaurant_5,1,memory-2step-stake-s,721,3527982,0.0-19.0-0.1-0.231,A3EZEVKRB0VRNM,306996CF7Z0Y3F4KVQ7DFLTE4FJB13,3K9FOBBF2LZGGEVFHSZ7FFY9DM0NL5,8,7
232,1,object_04,object_10,1023.0,1,1,785.5,0.5555555555555556,1,object_01,1,2751,0,5,3,desert_8,1,memory-2step-stake-s,722,3536653,0.0-19.0-0.1-0.232,A3EZEVKRB0VRNM,306996CF7Z0Y3F4KVQ7DFLTE4FJB13,3K9FOBBF2LZGGEVFHSZ7FFY9DM0NL5,1,2
233,3,object_09,object_05,904.20000004768,5,2,658.0,0.4444444444444444,1,object_01,1,2755,0,4,4,library_7,1,memory-2step-stake-s,723,3545093,0.0-19.0-0.1-0.233,A3EZEVKRB0VRNM,306996CF7Z0Y3F4KVQ7DFLTE4FJB13,3K9FOBBF2LZGGEVFHSZ7FFY9DM0NL5,6,5
234,1,object_04,object_10,824.90000009537,1,1,642.09999990463,0.3333333333333333,1,object_01,1,2758,0,3,5,desert_1,1,memory-2step-stake-s,724,3553393,0.0-19.0-0.1-0.234,A3EZEVKRB0VRNM,306996CF7Z0Y3F4KVQ7DFLTE4FJB13,3K9FOBBF2LZGGEVFHSZ7FFY9DM0NL5,1,2
235,3,object_09,object_05,1072.5999999046,5,2,708.5,0.5555555555555556,1,object_01,5,2783,0,5,3,library_7,1,memory-2step-stake-s,725,3561862,0.0-19.0-0.1-0.235,A3EZEVKRB0VRNM,306996CF7Z0Y3F4KVQ7DFLTE4FJB13,3K9FOBBF2LZGGEVFHSZ7FFY9DM0NL5,6,5
236,2,object_02,object_08,755.89999985695,3,1,1304.7999999523,0.8888888888888888,1,object_01,1,2791,0,8,6,forest_5,1,memory-2step-stake-s,726,3571284,0.0-19.0-0.1-0.236,A3EZEVKRB0VRNM,306996CF7Z0Y3F4KVQ7DFLTE4FJB13,3K9FOBBF2LZGGEVFHSZ7FFY9DM0NL5,3,4
237,4,object_06,object_07,1363.1000001431,8,2,674.5,0.1111111111111111,2,object_03,5,2796,0,6,1,restaurant_4,1,memory-2step-stake-s,727,3579394,0.0-19.0-0.1-0.237,A3EZEVKRB0VRNM,306996CF7Z0Y3F4KVQ7DFLTE4FJB13,3K9FOBBF2LZGGEVFHSZ7FFY9DM0NL5,7,8
238,1,object_04,object_10,1198.2000000477,2,2,654.19999980927,0.3333333333333333,2,object_03,1,2799,0,5,3,desert_2,1,memory-2step-stake-s,728,3587704,0.0-19.0-0.1-0.238,A3EZEVKRB0VRNM,306996CF7Z0Y3F4KVQ7DFLTE4FJB13,3K9FOBBF2LZGGEVFHSZ7FFY9DM0NL5,1,2
239,3,object_09,object_05,705.79999995232,6,1,577.70000004768,0.3333333333333333,2,object_03,1,2802,0,5,3,library_7,1,memory-2step-stake-s,729,3595923,0.0-19.0-0.1-0.239,A3EZEVKRB0VRNM,306996CF7Z0Y3F4KVQ7DFLTE4FJB13,3K9FOBBF2LZGGEVFHSZ7FFY9DM0NL5,6,5
240,4,object_06,object_07,1000.6999998093,7,1,674.29999995232,0.4444444444444444,1,object_01,5,2822,0,4,0,restaurant_2,1,memory-2step-stake-s,730,3604353,0.0-19.0-0.1-0.240,A3EZEVKRB0VRNM,306996CF7Z0Y3F4KVQ7DFLTE4FJB13,3K9FOBBF2LZGGEVFHSZ7FFY9DM0NL5,7,8
241,1,object_04,object_10,1187.0999999046,1,1,599.19999980927,0.0,1,object_01,5,2822,0,0,0,desert_6,1,memory-2step-stake-s,731,3612254,0.0-19.0-0.1-0.241,A3EZEVKRB0VRNM,306996CF7Z0Y3F4KVQ7DFLTE4FJB13,3K9FOBBF2LZGGEVFHSZ7FFY9DM0NL5,1,2
242,3,object_09,object_05,980.09999990463,5,2,677.0,0.3333333333333333,1,object_01,5,2837,0,3,0,library_4,1,memory-2step-stake-s,732,3620484,0.0-19.0-0.1-0.242,A3EZEVKRB0VRNM,306996CF7Z0Y3F4KVQ7DFLTE4FJB13,3K9FOBBF2LZGGEVFHSZ7FFY9DM0NL5,6,5
243,3,object_09,object_05,855.40000009537,6,1,680.20000004768,0.3333333333333333,2,object_03,1,2840,0,2,3,library_7,1,memory-2step-stake-s,733,3628714,0.0-19.0-0.1-0.243,A3EZEVKRB0VRNM,306996CF7Z0Y3F4KVQ7DFLTE4FJB13,3K9FOBBF2LZGGEVFHSZ7FFY9DM0NL5,6,5
244,3,object_09,object_05,1283.5,5,2,602.29999995232,0.1111111111111111,1,object_01,5,2845,0,1,1,library_4,1,memory-2step-stake-s,734,3636714,0.0-19.0-0.1-0.244,A3EZEVKRB0VRNM,306996CF7Z0Y3F4KVQ7DFLTE4FJB13,3K9FOBBF2LZGGEVFHSZ7FFY9DM0NL5,6,5
245,3,object_05,object_09,1328.6000001431,6,2,903.29999995232,0.1111111111111111,2,object_03,5,2850,0,1,1,library_2,1,memory-2step-stake-s,735,3645055,0.0-19.0-0.1-0.245,A3EZEVKRB0VRNM,306996CF7Z0Y3F4KVQ7DFLTE4FJB13,3K9FOBBF2LZGGEVFHSZ7FFY9DM0NL5,5,6
246,2,object_02,object_08,1140.3000001907,3,1,718.90000009537,0.0,1,object_01,1,2850,0,0,2,forest_6,1,memory-2step-stake-s,736,3653096,0.0-19.0-0.1-0.246,A3EZEVKRB0VRNM,306996CF7Z0Y3F4KVQ7DFLTE4FJB13,3K9FOBBF2LZGGEVFHSZ7FFY9DM0NL5,3,4
247,4,object_07,object_06,1390.2000000477,7,2,713.09999990463,0.0,1,object_01,5,2850,0,0,1,restaurant_4,1,memory-2step-stake-s,737,3661126,0.0-19.0-0.1-0.247,A3EZEVKRB0VRNM,306996CF7Z0Y3F4KVQ7DFLTE4FJB13,3K9FOBBF2LZGGEVFHSZ7FFY9DM0NL5,8,7
248,2,object_02,object_08,1382.3000001907,4,2,657.5,0.3333333333333333,2,object_03,5,2865,0,0,3,forest_5,1,memory-2step-stake-s,738,3669427,0.0-19.0-0.1-0.248,A3EZEVKRB0VRNM,306996CF7Z0Y3F4KVQ7DFLTE4FJB13,3K9FOBBF2LZGGEVFHSZ7FFY9DM0NL5,3,4
249,4,object_07,object_06,1088.1999998093,7,2,662.80000019073,0.1111111111111111,1,object_01,5,2870,0,1,5,restaurant_7,1,memory-2step-stake-s,739,3677507,0.0-19.0-0.1-0.249,A3EZEVKRB0VRNM,306996CF7Z0Y3F4KVQ7DFLTE4FJB13,3K9FOBBF2LZGGEVFHSZ7FFY9DM0NL5,8,7
250,4,object_07,object_06,882.29999995232,8,1,-1.0,0.0,2,object_03,5,2870,0,1,6,restaurant_4,1,memory-2step-stake-s,740,3686034,0.0-19.0-0.1-0.250,A3EZEVKRB0VRNM,306996CF7Z0Y3F4KVQ7DFLTE4FJB13,3K9FOBBF2LZGGEVFHSZ7FFY9DM0NL5,8,7
251,3,object_05,object_09,721.29999995232,6,2,-1.0,0.0,2,object_03,5,2870,0,2,7,library_2,1,memory-2step-stake-s,741,3694564,0.0-19.0-0.1-0.251,A3EZEVKRB0VRNM,306996CF7Z0Y3F4KVQ7DFLTE4FJB13,3K9FOBBF2LZGGEVFHSZ7FFY9DM0NL5,5,6
252,4,object_06,object_07,651.90000009537,8,2,589.59999990463,0.7777777777777778,2,object_03,5,2905,0,2,7,restaurant_4,1,memory-2step-stake-s,742,3703098,0.0-19.0-0.1-0.252,A3EZEVKRB0VRNM,306996CF7Z0Y3F4KVQ7DFLTE4FJB13,3K9FOBBF2LZGGEVFHSZ7FFY9DM0NL5,7,8
253,2,object_02,object_08,685.79999995232,4,2,686.5,0.5555555555555556,2,object_03,1,2910,0,0,5,forest_1,1,memory-2step-stake-s,743,3711658,0.0-19.0-0.1-0.253,A3EZEVKRB0VRNM,306996CF7Z0Y3F4KVQ7DFLTE4FJB13,3K9FOBBF2LZGGEVFHSZ7FFY9DM0NL5,3,4
254,2,object_02,object_08,1360.8000001907,4,2,969.10000014305,0.5555555555555556,2,object_03,1,2915,0,1,5,forest_4,1,memory-2step-stake-s,744,3720528,0.0-19.0-0.1-0.254,A3EZEVKRB0VRNM,306996CF7Z0Y3F4KVQ7DFLTE4FJB13,3K9FOBBF2LZGGEVFHSZ7FFY9DM0NL5,3,4
255,2,object_02,object_08,619.59999990463,3,1,618.70000004768,0.2222222222222222,1,object_01,1,2917,0,2,4,forest_1,1,memory-2step-stake-s,745,3728708,0.0-19.0-0.1-0.255,A3EZEVKRB0VRNM,306996CF7Z0Y3F4KVQ7DFLTE4FJB13,3K9FOBBF2LZGGEVFHSZ7FFY9DM0NL5,3,4
