,state1,stim_left,stim_right,rt_1,choice1,response1,rt_2,points,state2,stim_state2,stake,score,practice,rews1,rews2,background,high_arm,trial_type,trial_index,time_elapsed,internal_node_id,subid,hitid,assignmentid,stim_left_num,stim_right_num
0,1,object_07,object_03,1183.9150000005,1,2,996.74499999941,0.3333333333333333,1,object_08,5,15,0,3,1,desert_6,2,memory-2step-stake-s,499,978879,0.0-19.0-0.0-0.0,A2H2DJL45BZBD,3VGZ74AYUJWEHZMTR9OBXS32OP2GCF,31HQ4X3T3WQDWRNKPOGTE98F0LXSLB,2,1
1,2,object_09,object_02,1119.3050000002,4,2,380.97999999998,0.3333333333333333,2,object_05,1,18,0,3,3,forest_2,2,memory-2step-stake-s,500,986767,0.0-19.0-0.0-0.1,A2H2DJL45BZBD,3VGZ74AYUJWEHZMTR9OBXS32OP2GCF,31HQ4X3T3WQDWRNKPOGTE98F0LXSLB,3,4
2,2,object_09,object_02,1007.6899999994,3,1,605.15000000026,0.5555555555555556,1,object_08,1,23,0,5,4,forest_6,2,memory-2step-stake-s,501,995079,0.0-19.0-0.0-0.2,A2H2DJL45BZBD,3VGZ74AYUJWEHZMTR9OBXS32OP2GCF,31HQ4X3T3WQDWRNKPOGTE98F0LXSLB,3,4
3,2,object_09,object_02,663.13999999966,3,1,428.94500000053,0.7777777777777778,1,object_08,1,30,0,7,5,forest_8,2,memory-2step-stake-s,502,1003415,0.0-19.0-0.0-0.3,A2H2DJL45BZBD,3VGZ74AYUJWEHZMTR9OBXS32OP2GCF,31HQ4X3T3WQDWRNKPOGTE98F0LXSLB,3,4
4,1,object_07,object_03,991.36999999965,1,2,461.1750000004,0.7777777777777778,1,object_08,5,65,0,7,5,desert_2,2,memory-2step-stake-s,503,1011783,0.0-19.0-0.0-0.4,A2H2DJL45BZBD,3VGZ74AYUJWEHZMTR9OBXS32OP2GCF,31HQ4X3T3WQDWRNKPOGTE98F0LXSLB,2,1
5,2,object_02,object_09,839.43999999971,3,2,540.78000000026,0.8888888888888888,1,object_08,5,105,0,8,4,forest_2,2,memory-2step-stake-s,504,1020332,0.0-19.0-0.0-0.5,A2H2DJL45BZBD,3VGZ74AYUJWEHZMTR9OBXS32OP2GCF,31HQ4X3T3WQDWRNKPOGTE98F0LXSLB,4,3
6,2,object_09,object_02,1018.2150000001,3,1,760.15000000014,0.5555555555555556,1,object_08,5,130,0,5,1,forest_6,2,memory-2step-stake-s,505,1028799,0.0-19.0-0.0-0.6,A2H2DJL45BZBD,3VGZ74AYUJWEHZMTR9OBXS32OP2GCF,31HQ4X3T3WQDWRNKPOGTE98F0LXSLB,3,4
7,3,object_06,object_01,1007.0549999999,6,1,549.18999999971,0.1111111111111111,2,object_05,1,131,0,7,1,library_8,2,memory-2step-stake-s,506,1036654,0.0-19.0-0.0-0.7,A2H2DJL45BZBD,3VGZ74AYUJWEHZMTR9OBXS32OP2GCF,31HQ4X3T3WQDWRNKPOGTE98F0LXSLB,6,5
8,1,object_07,object_03,-1.0,-1,-1,-1.0,0.0,-,0,5,131,0,6,1,desert_1,2,memory-2step-stake-s,507,1043157,0.0-19.0-0.0-0.8,A2H2DJL45BZBD,3VGZ74AYUJWEHZMTR9OBXS32OP2GCF,31HQ4X3T3WQDWRNKPOGTE98F0LXSLB,2,1
9,3,object_06,object_01,753.75499999977,5,2,391.11500000034,0.1111111111111111,1,object_08,1,132,0,1,1,library_8,2,memory-2step-stake-s,508,1050854,0.0-19.0-0.0-0.9,A2H2DJL45BZBD,3VGZ74AYUJWEHZMTR9OBXS32OP2GCF,31HQ4X3T3WQDWRNKPOGTE98F0LXSLB,6,5
10,4,object_10,object_04,1041.0250000004,8,2,686.74499999988,0.1111111111111111,2,object_05,5,137,0,0,1,restaurant_5,2,memory-2step-stake-s,509,1058846,0.0-19.0-0.0-0.10,A2H2DJL45BZBD,3VGZ74AYUJWEHZMTR9OBXS32OP2GCF,31HQ4X3T3WQDWRNKPOGTE98F0LXSLB,7,8
11,4,object_04,object_10,1304.8300000001,8,1,942.12999999942,0.1111111111111111,2,object_05,1,138,0,1,1,restaurant_6,2,memory-2step-stake-s,510,1067094,0.0-19.0-0.0-0.11,A2H2DJL45BZBD,3VGZ74AYUJWEHZMTR9OBXS32OP2GCF,31HQ4X3T3WQDWRNKPOGTE98F0LXSLB,8,7
12,1,object_07,object_03,1071.7099999993,2,1,212.31999999983,0.1111111111111111,2,object_05,5,143,0,1,1,desert_2,2,memory-2step-stake-s,511,1074614,0.0-19.0-0.0-0.12,A2H2DJL45BZBD,3VGZ74AYUJWEHZMTR9OBXS32OP2GCF,31HQ4X3T3WQDWRNKPOGTE98F0LXSLB,2,1
13,2,object_09,object_02,536.87999999966,4,2,301.95499999984,0.1111111111111111,2,object_05,5,148,0,0,1,forest_8,2,memory-2step-stake-s,512,1082222,0.0-19.0-0.0-0.13,A2H2DJL45BZBD,3VGZ74AYUJWEHZMTR9OBXS32OP2GCF,31HQ4X3T3WQDWRNKPOGTE98F0LXSLB,3,4
14,4,object_04,object_10,776.87499999953,7,2,254.07000000007,0.2222222222222222,1,object_08,1,150,0,2,2,restaurant_5,2,memory-2step-stake-s,513,1089882,0.0-19.0-0.0-0.14,A2H2DJL45BZBD,3VGZ74AYUJWEHZMTR9OBXS32OP2GCF,31HQ4X3T3WQDWRNKPOGTE98F0LXSLB,8,7
15,4,object_04,object_10,740.62500000023,7,2,369.82499999972,0.3333333333333333,1,object_08,1,153,0,3,1,restaurant_2,2,memory-2step-stake-s,514,1097758,0.0-19.0-0.0-0.15,A2H2DJL45BZBD,3VGZ74AYUJWEHZMTR9OBXS32OP2GCF,31HQ4X3T3WQDWRNKPOGTE98F0LXSLB,8,7
16,3,object_01,object_06,609.12999999989,6,2,262.56000000006,0.0,2,object_05,1,153,0,3,0,library_8,2,memory-2step-stake-s,515,1105225,0.0-19.0-0.0-0.16,A2H2DJL45BZBD,3VGZ74AYUJWEHZMTR9OBXS32OP2GCF,31HQ4X3T3WQDWRNKPOGTE98F0LXSLB,5,6
17,2,object_09,object_02,765.50500000035,3,1,323.08999999985,0.6666666666666666,1,object_08,5,183,0,6,4,forest_2,2,memory-2step-stake-s,516,1113356,0.0-19.0-0.0-0.17,A2H2DJL45BZBD,3VGZ74AYUJWEHZMTR9OBXS32OP2GCF,31HQ4X3T3WQDWRNKPOGTE98F0LXSLB,3,4
18,4,object_10,object_04,931.23000000021,7,1,769.19499999983,0.5555555555555556,1,object_08,1,188,0,5,2,restaurant_5,2,memory-2step-stake-s,517,1121831,0.0-19.0-0.0-0.18,A2H2DJL45BZBD,3VGZ74AYUJWEHZMTR9OBXS32OP2GCF,31HQ4X3T3WQDWRNKPOGTE98F0LXSLB,7,8
19,3,object_01,object_06,911.42999999924,6,2,477.20999999996,0.1111111111111111,2,object_05,1,189,0,6,1,library_6,2,memory-2step-stake-s,518,1129614,0.0-19.0-0.0-0.19,A2H2DJL45BZBD,3VGZ74AYUJWEHZMTR9OBXS32OP2GCF,31HQ4X3T3WQDWRNKPOGTE98F0LXSLB,5,6
20,1,object_03,object_07,816.75999999978,2,2,222.11000000057,0.1111111111111111,2,object_05,5,194,0,6,1,desert_1,2,memory-2step-stake-s,519,1137142,0.0-19.0-0.0-0.20,A2H2DJL45BZBD,3VGZ74AYUJWEHZMTR9OBXS32OP2GCF,31HQ4X3T3WQDWRNKPOGTE98F0LXSLB,1,2
21,4,object_04,object_10,696.85500000021,7,2,246.00999999978,0.4444444444444444,1,object_08,1,198,0,4,1,restaurant_4,2,memory-2step-stake-s,520,1144995,0.0-19.0-0.0-0.21,A2H2DJL45BZBD,3VGZ74AYUJWEHZMTR9OBXS32OP2GCF,31HQ4X3T3WQDWRNKPOGTE98F0LXSLB,8,7
22,1,object_03,object_07,1172.2200000002,1,1,409.86999999941,0.2222222222222222,1,object_08,5,208,0,2,0,desert_6,2,memory-2step-stake-s,521,1152810,0.0-19.0-0.0-0.22,A2H2DJL45BZBD,3VGZ74AYUJWEHZMTR9OBXS32OP2GCF,31HQ4X3T3WQDWRNKPOGTE98F0LXSLB,1,2
23,1,object_03,object_07,1043.5250000001,2,2,409.13500000071,0.0,2,object_05,5,208,0,2,0,desert_2,2,memory-2step-stake-s,522,1160425,0.0-19.0-0.0-0.23,A2H2DJL45BZBD,3VGZ74AYUJWEHZMTR9OBXS32OP2GCF,31HQ4X3T3WQDWRNKPOGTE98F0LXSLB,1,2
24,2,object_09,object_02,565.19000000041,3,1,219.08000000077,0.1111111111111111,1,object_08,1,209,0,1,2,forest_6,2,memory-2step-stake-s,523,1167950,0.0-19.0-0.0-0.24,A2H2DJL45BZBD,3VGZ74AYUJWEHZMTR9OBXS32OP2GCF,31HQ4X3T3WQDWRNKPOGTE98F0LXSLB,3,4
25,3,object_01,object_06,1024.9850000001,5,1,294.31499999925,0.0,1,object_08,5,209,0,0,4,library_6,2,memory-2step-stake-s,524,1175450,0.0-19.0-0.0-0.25,A2H2DJL45BZBD,3VGZ74AYUJWEHZMTR9OBXS32OP2GCF,31HQ4X3T3WQDWRNKPOGTE98F0LXSLB,5,6
26,4,object_04,object_10,909.13499999978,7,2,282.88000000082,0.2222222222222222,1,object_08,5,219,0,2,6,restaurant_6,2,memory-2step-stake-s,525,1183138,0.0-19.0-0.0-0.26,A2H2DJL45BZBD,3VGZ74AYUJWEHZMTR9OBXS32OP2GCF,31HQ4X3T3WQDWRNKPOGTE98F0LXSLB,8,7
27,2,object_09,object_02,1147.5950000004,3,1,618.0149999999,0.5555555555555556,1,object_08,5,244,0,5,4,forest_8,2,memory-2step-stake-s,526,1191463,0.0-19.0-0.0-0.27,A2H2DJL45BZBD,3VGZ74AYUJWEHZMTR9OBXS32OP2GCF,31HQ4X3T3WQDWRNKPOGTE98F0LXSLB,3,4
28,4,object_04,object_10,831.33000000101,7,2,403.97500000102,0.6666666666666666,1,object_08,1,250,0,6,3,restaurant_5,2,memory-2step-stake-s,527,1199675,0.0-19.0-0.0-0.28,A2H2DJL45BZBD,3VGZ74AYUJWEHZMTR9OBXS32OP2GCF,31HQ4X3T3WQDWRNKPOGTE98F0LXSLB,8,7
29,3,object_01,object_06,891.48000000021,6,2,377.02000000002,0.0,2,object_05,1,250,0,6,0,library_7,2,memory-2step-stake-s,528,1207257,0.0-19.0-0.0-0.29,A2H2DJL45BZBD,3VGZ74AYUJWEHZMTR9OBXS32OP2GCF,31HQ4X3T3WQDWRNKPOGTE98F0LXSLB,5,6
30,4,object_10,object_04,901.84999999846,7,1,498.64999999944,0.5555555555555556,1,object_08,1,255,0,5,2,restaurant_4,2,memory-2step-stake-s,529,1215463,0.0-19.0-0.0-0.30,A2H2DJL45BZBD,3VGZ74AYUJWEHZMTR9OBXS32OP2GCF,31HQ4X3T3WQDWRNKPOGTE98F0LXSLB,7,8
31,3,object_01,object_06,1048.0849999986,5,1,406.18999999971,0.5555555555555556,1,object_08,1,260,0,5,4,library_6,2,memory-2step-stake-s,530,1223575,0.0-19.0-0.0-0.31,A2H2DJL45BZBD,3VGZ74AYUJWEHZMTR9OBXS32OP2GCF,31HQ4X3T3WQDWRNKPOGTE98F0LXSLB,5,6
32,3,object_01,object_06,1072.0249999994,5,1,366.18000000087,0.6666666666666666,1,object_08,1,266,0,6,7,library_4,2,memory-2step-stake-s,531,1231747,0.0-19.0-0.0-0.32,A2H2DJL45BZBD,3VGZ74AYUJWEHZMTR9OBXS32OP2GCF,31HQ4X3T3WQDWRNKPOGTE98F0LXSLB,5,6
33,4,object_10,object_04,627.55000000098,7,1,617.07499999995,0.2222222222222222,1,object_08,1,268,0,2,6,restaurant_2,2,memory-2step-stake-s,532,1239770,0.0-19.0-0.0-0.33,A2H2DJL45BZBD,3VGZ74AYUJWEHZMTR9OBXS32OP2GCF,31HQ4X3T3WQDWRNKPOGTE98F0LXSLB,7,8
34,4,object_04,object_10,676.84000000008,7,2,561.97500000033,0.3333333333333333,1,object_08,1,271,0,3,2,restaurant_4,2,memory-2step-stake-s,533,1247839,0.0-19.0-0.0-0.34,A2H2DJL45BZBD,3VGZ74AYUJWEHZMTR9OBXS32OP2GCF,31HQ4X3T3WQDWRNKPOGTE98F0LXSLB,8,7
35,4,object_04,object_10,496.38500000024,7,2,638.17500000005,0.3333333333333333,1,object_08,1,274,0,3,1,restaurant_4,2,memory-2step-stake-s,534,1255983,0.0-19.0-0.0-0.35,A2H2DJL45BZBD,3VGZ74AYUJWEHZMTR9OBXS32OP2GCF,31HQ4X3T3WQDWRNKPOGTE98F0LXSLB,8,7
36,1,object_07,object_03,1088.1649999991,1,2,254.12999999942,0.6666666666666666,1,object_08,5,304,0,6,1,desert_2,2,memory-2step-stake-s,535,1264043,0.0-19.0-0.0-0.36,A2H2DJL45BZBD,3VGZ74AYUJWEHZMTR9OBXS32OP2GCF,31HQ4X3T3WQDWRNKPOGTE98F0LXSLB,2,1
37,2,object_09,object_02,523.99499999965,4,2,257.10000000056,0.6666666666666666,2,object_05,5,334,0,8,6,forest_6,2,memory-2step-stake-s,536,1272107,0.0-19.0-0.0-0.37,A2H2DJL45BZBD,3VGZ74AYUJWEHZMTR9OBXS32OP2GCF,31HQ4X3T3WQDWRNKPOGTE98F0LXSLB,3,4
38,4,object_04,object_10,587.75500000035,7,2,417.25500000035,0.8888888888888888,1,object_08,1,342,0,8,8,restaurant_2,2,memory-2step-stake-s,537,1280532,0.0-19.0-0.0-0.38,A2H2DJL45BZBD,3VGZ74AYUJWEHZMTR9OBXS32OP2GCF,31HQ4X3T3WQDWRNKPOGTE98F0LXSLB,8,7
39,2,object_09,object_02,587.43499999959,4,2,465.18499999912,0.5555555555555556,2,object_05,1,347,0,8,5,forest_3,2,memory-2step-stake-s,538,1288703,0.0-19.0-0.0-0.39,A2H2DJL45BZBD,3VGZ74AYUJWEHZMTR9OBXS32OP2GCF,31HQ4X3T3WQDWRNKPOGTE98F0LXSLB,3,4
40,3,object_01,object_06,880.12999999942,5,1,598.34499999834,0.5555555555555556,1,object_08,5,372,0,5,7,library_8,2,memory-2step-stake-s,539,1297007,0.0-19.0-0.0-0.40,A2H2DJL45BZBD,3VGZ74AYUJWEHZMTR9OBXS32OP2GCF,31HQ4X3T3WQDWRNKPOGTE98F0LXSLB,5,6
41,2,object_09,object_02,744.19000000111,4,2,358.16499999957,0.2222222222222222,2,object_05,5,382,0,7,2,forest_2,2,memory-2step-stake-s,540,1304771,0.0-19.0-0.0-0.41,A2H2DJL45BZBD,3VGZ74AYUJWEHZMTR9OBXS32OP2GCF,31HQ4X3T3WQDWRNKPOGTE98F0LXSLB,3,4
42,2,object_09,object_02,540.83999999962,3,1,474.10000000126,0.8888888888888888,1,object_08,5,422,0,8,3,forest_8,2,memory-2step-stake-s,541,1313252,0.0-19.0-0.0-0.42,A2H2DJL45BZBD,3VGZ74AYUJWEHZMTR9OBXS32OP2GCF,31HQ4X3T3WQDWRNKPOGTE98F0LXSLB,3,4
43,1,object_07,object_03,907.55499999993,1,2,249.39500000072,1.0,1,object_08,5,467,0,9,2,desert_6,2,memory-2step-stake-s,542,1321609,0.0-19.0-0.0-0.43,A2H2DJL45BZBD,3VGZ74AYUJWEHZMTR9OBXS32OP2GCF,31HQ4X3T3WQDWRNKPOGTE98F0LXSLB,2,1
44,4,object_10,object_04,726.96999999974,7,1,555.99000000069,1.0,1,object_08,1,476,0,9,4,restaurant_5,2,memory-2step-stake-s,543,1330272,0.0-19.0-0.0-0.44,A2H2DJL45BZBD,3VGZ74AYUJWEHZMTR9OBXS32OP2GCF,31HQ4X3T3WQDWRNKPOGTE98F0LXSLB,7,8
45,1,object_03,object_07,734.99000000092,1,1,67.895000000251,0.8888888888888888,1,object_08,1,484,0,8,2,desert_1,2,memory-2step-stake-s,544,1338349,0.0-19.0-0.0-0.45,A2H2DJL45BZBD,3VGZ74AYUJWEHZMTR9OBXS32OP2GCF,31HQ4X3T3WQDWRNKPOGTE98F0LXSLB,1,2
46,3,object_06,object_01,947.17500000121,5,2,361.16500000027,0.5555555555555556,1,object_08,5,509,0,5,1,library_4,2,memory-2step-stake-s,545,1346416,0.0-19.0-0.0-0.46,A2H2DJL45BZBD,3VGZ74AYUJWEHZMTR9OBXS32OP2GCF,31HQ4X3T3WQDWRNKPOGTE98F0LXSLB,6,5
47,4,object_10,object_04,687.95000000135,7,1,285.00999999978,0.7777777777777778,1,object_08,1,516,0,7,0,restaurant_4,2,memory-2step-stake-s,546,1354608,0.0-19.0-0.0-0.47,A2H2DJL45BZBD,3VGZ74AYUJWEHZMTR9OBXS32OP2GCF,31HQ4X3T3WQDWRNKPOGTE98F0LXSLB,7,8
48,3,object_01,object_06,1039.3449999993,5,1,572.10999999917,0.6666666666666666,1,object_08,1,522,0,6,2,library_8,2,memory-2step-stake-s,547,1362988,0.0-19.0-0.0-0.48,A2H2DJL45BZBD,3VGZ74AYUJWEHZMTR9OBXS32OP2GCF,31HQ4X3T3WQDWRNKPOGTE98F0LXSLB,5,6
49,4,object_04,object_10,587.4149999998,7,2,361.07999999868,0.7777777777777778,1,object_08,1,529,0,7,1,restaurant_5,2,memory-2step-stake-s,548,1371257,0.0-19.0-0.0-0.49,A2H2DJL45BZBD,3VGZ74AYUJWEHZMTR9OBXS32OP2GCF,31HQ4X3T3WQDWRNKPOGTE98F0LXSLB,8,7
50,2,object_09,object_02,847.41999999993,3,1,236.95499999844,0.8888888888888888,1,object_08,5,569,0,8,2,forest_3,2,memory-2step-stake-s,549,1379501,0.0-19.0-0.0-0.50,A2H2DJL45BZBD,3VGZ74AYUJWEHZMTR9OBXS32OP2GCF,31HQ4X3T3WQDWRNKPOGTE98F0LXSLB,3,4
51,1,object_03,object_07,755.54000000004,1,1,825.20500000101,0.8888888888888888,1,object_08,5,609,0,8,0,desert_1,2,memory-2step-stake-s,550,1388333,0.0-19.0-0.0-0.51,A2H2DJL45BZBD,3VGZ74AYUJWEHZMTR9OBXS32OP2GCF,31HQ4X3T3WQDWRNKPOGTE98F0LXSLB,1,2
52,3,object_01,object_06,1347.169999999,5,1,841.28500000038,1.0,1,object_08,1,618,0,9,1,library_4,2,memory-2step-stake-s,551,1397282,0.0-19.0-0.0-0.52,A2H2DJL45BZBD,3VGZ74AYUJWEHZMTR9OBXS32OP2GCF,31HQ4X3T3WQDWRNKPOGTE98F0LXSLB,5,6
53,2,object_09,object_02,1070.5400000007,4,2,260.10000000126,0.3333333333333333,2,object_05,5,633,0,9,3,forest_3,2,memory-2step-stake-s,552,1405048,0.0-19.0-0.0-0.53,A2H2DJL45BZBD,3VGZ74AYUJWEHZMTR9OBXS32OP2GCF,31HQ4X3T3WQDWRNKPOGTE98F0LXSLB,3,4
54,2,object_09,object_02,832.3450000009,3,1,358.21999999997,0.6666666666666666,1,object_08,1,639,0,6,3,forest_8,2,memory-2step-stake-s,553,1413212,0.0-19.0-0.0-0.54,A2H2DJL45BZBD,3VGZ74AYUJWEHZMTR9OBXS32OP2GCF,31HQ4X3T3WQDWRNKPOGTE98F0LXSLB,3,4
55,3,object_01,object_06,1044.1150000007,5,1,544.67500000121,0.6666666666666666,1,object_08,1,645,0,6,1,library_8,2,memory-2step-stake-s,554,1421564,0.0-19.0-0.0-0.55,A2H2DJL45BZBD,3VGZ74AYUJWEHZMTR9OBXS32OP2GCF,31HQ4X3T3WQDWRNKPOGTE98F0LXSLB,5,6
56,3,object_06,object_01,947.64000000013,5,2,681.28999999864,1.0,1,object_08,1,654,0,9,1,library_8,2,memory-2step-stake-s,555,1430353,0.0-19.0-0.0-0.56,A2H2DJL45BZBD,3VGZ74AYUJWEHZMTR9OBXS32OP2GCF,31HQ4X3T3WQDWRNKPOGTE98F0LXSLB,6,5
57,2,object_09,object_02,942.97999999998,3,1,67.869999998948,0.8888888888888888,1,object_08,5,694,0,8,2,forest_2,2,memory-2step-stake-s,556,1438429,0.0-19.0-0.0-0.57,A2H2DJL45BZBD,3VGZ74AYUJWEHZMTR9OBXS32OP2GCF,31HQ4X3T3WQDWRNKPOGTE98F0LXSLB,3,4
58,2,object_09,object_02,499.03999999887,4,2,473.21999999997,0.2222222222222222,2,object_05,1,696,0,7,2,forest_3,2,memory-2step-stake-s,557,1446308,0.0-19.0-0.0-0.58,A2H2DJL45BZBD,3VGZ74AYUJWEHZMTR9OBXS32OP2GCF,31HQ4X3T3WQDWRNKPOGTE98F0LXSLB,3,4
59,3,object_01,object_06,708.70499999914,5,1,370.0150000006,0.8888888888888888,1,object_08,1,704,0,8,2,library_7,2,memory-2step-stake-s,558,1454685,0.0-19.0-0.0-0.59,A2H2DJL45BZBD,3VGZ74AYUJWEHZMTR9OBXS32OP2GCF,31HQ4X3T3WQDWRNKPOGTE98F0LXSLB,5,6
60,1,object_07,object_03,803.09499999927,1,2,465.23499999964,0.8888888888888888,1,object_08,5,744,0,8,3,desert_8,2,memory-2step-stake-s,559,1463157,0.0-19.0-0.0-0.60,A2H2DJL45BZBD,3VGZ74AYUJWEHZMTR9OBXS32OP2GCF,31HQ4X3T3WQDWRNKPOGTE98F0LXSLB,2,1
61,2,object_09,object_02,787.14000000036,4,2,41.114999999991,0.6666666666666666,2,object_05,5,774,0,8,6,forest_2,2,memory-2step-stake-s,560,1471005,0.0-19.0-0.0-0.61,A2H2DJL45BZBD,3VGZ74AYUJWEHZMTR9OBXS32OP2GCF,31HQ4X3T3WQDWRNKPOGTE98F0LXSLB,3,4
62,1,object_03,object_07,859.99000000092,1,1,816.95500000007,0.7777777777777778,1,object_08,1,781,0,7,6,desert_2,2,memory-2step-stake-s,561,1479729,0.0-19.0-0.0-0.62,A2H2DJL45BZBD,3VGZ74AYUJWEHZMTR9OBXS32OP2GCF,31HQ4X3T3WQDWRNKPOGTE98F0LXSLB,1,2
63,1,object_03,object_07,663.61499999929,1,1,581.11999999895,0.8888888888888888,1,object_08,5,821,0,8,3,desert_6,2,memory-2step-stake-s,562,1488317,0.0-19.0-0.0-0.63,A2H2DJL45BZBD,3VGZ74AYUJWEHZMTR9OBXS32OP2GCF,31HQ4X3T3WQDWRNKPOGTE98F0LXSLB,1,2
64,2,object_09,object_02,891.16500000097,4,2,265.07499999925,0.4444444444444444,2,object_05,5,841,0,2,4,forest_3,2,memory-2step-stake-s,563,1496188,0.0-19.0-0.0-0.64,A2H2DJL45BZBD,3VGZ74AYUJWEHZMTR9OBXS32OP2GCF,31HQ4X3T3WQDWRNKPOGTE98F0LXSLB,3,4
65,3,object_06,object_01,788.13500000071,5,2,1411.110000001,0.0,1,object_08,1,841,0,0,4,library_6,2,memory-2step-stake-s,564,1504804,0.0-19.0-0.0-0.65,A2H2DJL45BZBD,3VGZ74AYUJWEHZMTR9OBXS32OP2GCF,31HQ4X3T3WQDWRNKPOGTE98F0LXSLB,6,5
66,3,object_01,object_06,604.29500000086,5,1,330.34000000032,0.3333333333333333,1,object_08,1,844,0,3,3,library_8,2,memory-2step-stake-s,565,1512640,0.0-19.0-0.0-0.66,A2H2DJL45BZBD,3VGZ74AYUJWEHZMTR9OBXS32OP2GCF,31HQ4X3T3WQDWRNKPOGTE98F0LXSLB,5,6
67,4,object_10,object_04,760.21999999997,7,1,502.17499999958,0.2222222222222222,1,object_08,1,846,0,2,1,restaurant_6,2,memory-2step-stake-s,566,1520548,0.0-19.0-0.0-0.67,A2H2DJL45BZBD,3VGZ74AYUJWEHZMTR9OBXS32OP2GCF,31HQ4X3T3WQDWRNKPOGTE98F0LXSLB,7,8
68,4,object_04,object_10,948.7200000002,7,2,920.67999999924,0.1111111111111111,1,object_08,5,851,0,1,0,restaurant_6,2,memory-2step-stake-s,567,1528776,0.0-19.0-0.0-0.68,A2H2DJL45BZBD,3VGZ74AYUJWEHZMTR9OBXS32OP2GCF,31HQ4X3T3WQDWRNKPOGTE98F0LXSLB,8,7
69,2,object_09,object_02,1008.7249999999,4,2,430.40500000096,0.1111111111111111,2,object_05,1,852,0,0,1,forest_2,2,memory-2step-stake-s,568,1536512,0.0-19.0-0.0-0.69,A2H2DJL45BZBD,3VGZ74AYUJWEHZMTR9OBXS32OP2GCF,31HQ4X3T3WQDWRNKPOGTE98F0LXSLB,3,4
70,2,object_02,object_09,673.51000000047,3,2,246.50000000116,0.0,1,object_08,5,852,0,0,3,forest_2,2,memory-2step-stake-s,569,1543963,0.0-19.0-0.0-0.70,A2H2DJL45BZBD,3VGZ74AYUJWEHZMTR9OBXS32OP2GCF,31HQ4X3T3WQDWRNKPOGTE98F0LXSLB,4,3
71,3,object_06,object_01,740.87999999942,5,2,41.979999999981,0.0,1,object_08,5,852,0,0,6,library_8,2,memory-2step-stake-s,570,1551211,0.0-19.0-0.0-0.71,A2H2DJL45BZBD,3VGZ74AYUJWEHZMTR9OBXS32OP2GCF,31HQ4X3T3WQDWRNKPOGTE98F0LXSLB,6,5
72,2,object_02,object_09,661.42000000016,4,1,154.95000000019,0.5555555555555556,2,object_05,5,877,0,3,5,forest_2,2,memory-2step-stake-s,571,1559073,0.0-19.0-0.0-0.72,A2H2DJL45BZBD,3VGZ74AYUJWEHZMTR9OBXS32OP2GCF,31HQ4X3T3WQDWRNKPOGTE98F0LXSLB,4,3
73,3,object_06,object_01,1040.2850000011,6,1,334.14499999885,0.4444444444444444,2,object_05,1,881,0,3,4,library_7,2,memory-2step-stake-s,572,1567013,0.0-19.0-0.0-0.73,A2H2DJL45BZBD,3VGZ74AYUJWEHZMTR9OBXS32OP2GCF,31HQ4X3T3WQDWRNKPOGTE98F0LXSLB,6,5
74,4,object_04,object_10,892.46499999892,8,1,250.00999999978,0.3333333333333333,2,object_05,1,884,0,0,3,restaurant_4,2,memory-2step-stake-s,573,1574768,0.0-19.0-0.0-0.74,A2H2DJL45BZBD,3VGZ74AYUJWEHZMTR9OBXS32OP2GCF,31HQ4X3T3WQDWRNKPOGTE98F0LXSLB,8,7
75,4,object_04,object_10,936.44500000123,7,2,350.15000000014,0.3333333333333333,1,object_08,1,887,0,3,3,restaurant_2,2,memory-2step-stake-s,574,1582624,0.0-19.0-0.0-0.75,A2H2DJL45BZBD,3VGZ74AYUJWEHZMTR9OBXS32OP2GCF,31HQ4X3T3WQDWRNKPOGTE98F0LXSLB,8,7
76,4,object_10,object_04,680.68000000133,8,2,349.83000000101,0.3333333333333333,2,object_05,1,890,0,4,3,restaurant_4,2,memory-2step-stake-s,575,1590480,0.0-19.0-0.0-0.76,A2H2DJL45BZBD,3VGZ74AYUJWEHZMTR9OBXS32OP2GCF,31HQ4X3T3WQDWRNKPOGTE98F0LXSLB,7,8
77,4,object_04,object_10,728.69999999949,7,2,318.25500000035,0.4444444444444444,1,object_08,1,894,0,4,9,restaurant_2,2,memory-2step-stake-s,576,1598405,0.0-19.0-0.0-0.77,A2H2DJL45BZBD,3VGZ74AYUJWEHZMTR9OBXS32OP2GCF,31HQ4X3T3WQDWRNKPOGTE98F0LXSLB,8,7
78,4,object_10,object_04,900.29999999935,8,2,322.0149999999,0.8888888888888888,2,object_05,1,902,0,5,8,restaurant_6,2,memory-2step-stake-s,577,1606734,0.0-19.0-0.0-0.78,A2H2DJL45BZBD,3VGZ74AYUJWEHZMTR9OBXS32OP2GCF,31HQ4X3T3WQDWRNKPOGTE98F0LXSLB,7,8
79,1,object_07,object_03,1268.145,2,1,272.54999999981,0.8888888888888888,2,object_05,5,942,0,9,8,desert_6,2,memory-2step-stake-s,578,1615014,0.0-19.0-0.0-0.79,A2H2DJL45BZBD,3VGZ74AYUJWEHZMTR9OBXS32OP2GCF,31HQ4X3T3WQDWRNKPOGTE98F0LXSLB,2,1
80,2,object_09,object_02,1098.3049999995,3,1,104.06499999971,0.8888888888888888,1,object_08,5,982,0,8,7,forest_3,2,memory-2step-stake-s,579,1623126,0.0-19.0-0.0-0.80,A2H2DJL45BZBD,3VGZ74AYUJWEHZMTR9OBXS32OP2GCF,31HQ4X3T3WQDWRNKPOGTE98F0LXSLB,3,4
81,4,object_10,object_04,859.63000000082,8,2,441.13499999908,0.4444444444444444,2,object_05,1,986,0,7,4,restaurant_6,2,memory-2step-stake-s,580,1631173,0.0-19.0-0.0-0.81,A2H2DJL45BZBD,3VGZ74AYUJWEHZMTR9OBXS32OP2GCF,31HQ4X3T3WQDWRNKPOGTE98F0LXSLB,7,8
82,4,object_04,object_10,892.05000000051,8,1,41.979999999981,0.1111111111111111,2,object_05,5,991,0,7,1,restaurant_5,2,memory-2step-stake-s,581,1638520,0.0-19.0-0.0-0.82,A2H2DJL45BZBD,3VGZ74AYUJWEHZMTR9OBXS32OP2GCF,31HQ4X3T3WQDWRNKPOGTE98F0LXSLB,8,7
83,3,object_06,object_01,800.86999999918,6,1,261.53999999934,0.5555555555555556,2,object_05,5,1016,0,6,5,library_6,2,memory-2step-stake-s,582,1646489,0.0-19.0-0.0-0.83,A2H2DJL45BZBD,3VGZ74AYUJWEHZMTR9OBXS32OP2GCF,31HQ4X3T3WQDWRNKPOGTE98F0LXSLB,6,5
84,1,object_07,object_03,687.79999999958,1,2,356.9700000009,0.6666666666666666,1,object_08,5,1046,0,6,5,desert_8,2,memory-2step-stake-s,583,1654653,0.0-19.0-0.0-0.84,A2H2DJL45BZBD,3VGZ74AYUJWEHZMTR9OBXS32OP2GCF,31HQ4X3T3WQDWRNKPOGTE98F0LXSLB,2,1
85,1,object_07,object_03,1076.4400000006,1,2,458.03499999968,0.6666666666666666,1,object_08,5,1076,0,6,5,desert_1,2,memory-2step-stake-s,584,1662917,0.0-19.0-0.0-0.85,A2H2DJL45BZBD,3VGZ74AYUJWEHZMTR9OBXS32OP2GCF,31HQ4X3T3WQDWRNKPOGTE98F0LXSLB,2,1
86,1,object_03,object_07,715.79500000016,1,1,857.26000000071,0.6666666666666666,1,object_08,5,1106,0,6,6,desert_6,2,memory-2step-stake-s,585,1671581,0.0-19.0-0.0-0.86,A2H2DJL45BZBD,3VGZ74AYUJWEHZMTR9OBXS32OP2GCF,31HQ4X3T3WQDWRNKPOGTE98F0LXSLB,1,2
87,1,object_03,object_07,851.1400000006,1,1,648.03000000026,0.8888888888888888,1,object_08,5,1146,0,8,5,desert_1,2,memory-2step-stake-s,586,1680238,0.0-19.0-0.0-0.87,A2H2DJL45BZBD,3VGZ74AYUJWEHZMTR9OBXS32OP2GCF,31HQ4X3T3WQDWRNKPOGTE98F0LXSLB,1,2
88,4,object_04,object_10,707.39499999932,7,2,528.92499999865,1.0,1,object_08,1,1155,0,9,3,restaurant_5,2,memory-2step-stake-s,587,1688874,0.0-19.0-0.0-0.88,A2H2DJL45BZBD,3VGZ74AYUJWEHZMTR9OBXS32OP2GCF,31HQ4X3T3WQDWRNKPOGTE98F0LXSLB,8,7
89,1,object_07,object_03,1071.4900000005,2,1,372.97999999998,0.4444444444444444,2,object_05,5,1175,0,9,4,desert_2,2,memory-2step-stake-s,588,1696853,0.0-19.0-0.0-0.89,A2H2DJL45BZBD,3VGZ74AYUJWEHZMTR9OBXS32OP2GCF,31HQ4X3T3WQDWRNKPOGTE98F0LXSLB,2,1
90,1,object_03,object_07,1075.9400000006,1,1,512.71499999892,0.4444444444444444,1,object_08,5,1195,0,4,1,desert_8,2,memory-2step-stake-s,589,1704973,0.0-19.0-0.0-0.90,A2H2DJL45BZBD,3VGZ74AYUJWEHZMTR9OBXS32OP2GCF,31HQ4X3T3WQDWRNKPOGTE98F0LXSLB,1,2
91,1,object_03,object_07,820.30499999924,1,1,-1.0,0.0,1,object_08,1,1195,0,3,0,desert_2,2,memory-2step-stake-s,590,1713478,0.0-19.0-0.0-0.91,A2H2DJL45BZBD,3VGZ74AYUJWEHZMTR9OBXS32OP2GCF,31HQ4X3T3WQDWRNKPOGTE98F0LXSLB,1,2
92,1,object_03,object_07,675.1949999996,1,1,297.0850000002,0.3333333333333333,1,object_08,1,1198,0,3,1,desert_6,2,memory-2step-stake-s,591,1721281,0.0-19.0-0.0-0.92,A2H2DJL45BZBD,3VGZ74AYUJWEHZMTR9OBXS32OP2GCF,31HQ4X3T3WQDWRNKPOGTE98F0LXSLB,1,2
93,1,object_03,object_07,640.64999999944,2,2,381.96499999869,0.2222222222222222,2,object_05,1,1200,0,3,2,desert_6,2,memory-2step-stake-s,592,1729069,0.0-19.0-0.0-0.93,A2H2DJL45BZBD,3VGZ74AYUJWEHZMTR9OBXS32OP2GCF,31HQ4X3T3WQDWRNKPOGTE98F0LXSLB,1,2
94,1,object_03,object_07,708.74499999988,2,2,386.14500000048,0.2222222222222222,2,object_05,5,1210,0,1,2,desert_2,2,memory-2step-stake-s,593,1736861,0.0-19.0-0.0-0.94,A2H2DJL45BZBD,3VGZ74AYUJWEHZMTR9OBXS32OP2GCF,31HQ4X3T3WQDWRNKPOGTE98F0LXSLB,1,2
95,3,object_06,object_01,732.85000000033,5,2,474.94999999972,0.2222222222222222,1,object_08,1,1212,0,2,2,library_4,2,memory-2step-stake-s,594,1744742,0.0-19.0-0.0-0.95,A2H2DJL45BZBD,3VGZ74AYUJWEHZMTR9OBXS32OP2GCF,31HQ4X3T3WQDWRNKPOGTE98F0LXSLB,6,5
96,4,object_10,object_04,659.81499999925,7,1,345.20499999961,0.1111111111111111,1,object_08,1,1213,0,1,1,restaurant_5,2,memory-2step-stake-s,595,1752392,0.0-19.0-0.0-0.96,A2H2DJL45BZBD,3VGZ74AYUJWEHZMTR9OBXS32OP2GCF,31HQ4X3T3WQDWRNKPOGTE98F0LXSLB,7,8
97,3,object_01,object_06,848.94999999972,5,1,1118.1749999998,0.4444444444444444,1,object_08,1,1217,0,4,4,library_4,2,memory-2step-stake-s,596,1761117,0.0-19.0-0.0-0.97,A2H2DJL45BZBD,3VGZ74AYUJWEHZMTR9OBXS32OP2GCF,31HQ4X3T3WQDWRNKPOGTE98F0LXSLB,5,6
98,4,object_04,object_10,603.94999999879,7,2,417.47000000044,0.6666666666666666,1,object_08,1,1223,0,6,4,restaurant_2,2,memory-2step-stake-s,597,1769342,0.0-19.0-0.0-0.98,A2H2DJL45BZBD,3VGZ74AYUJWEHZMTR9OBXS32OP2GCF,31HQ4X3T3WQDWRNKPOGTE98F0LXSLB,8,7
99,2,object_02,object_09,1043.1100000006,3,2,768.79000000027,0.7777777777777778,1,object_08,5,1258,0,7,3,forest_3,2,memory-2step-stake-s,598,1778018,0.0-19.0-0.0-0.99,A2H2DJL45BZBD,3VGZ74AYUJWEHZMTR9OBXS32OP2GCF,31HQ4X3T3WQDWRNKPOGTE98F0LXSLB,4,3
100,2,object_09,object_02,543.61000000057,4,2,413.375,0.1111111111111111,2,object_05,5,1263,0,8,1,forest_2,2,memory-2step-stake-s,599,1785737,0.0-19.0-0.0-0.100,A2H2DJL45BZBD,3VGZ74AYUJWEHZMTR9OBXS32OP2GCF,31HQ4X3T3WQDWRNKPOGTE98F0LXSLB,3,4
101,2,object_02,object_09,856.89999999898,4,1,525.82999999868,0.1111111111111111,2,object_05,5,1268,0,8,1,forest_6,2,memory-2step-stake-s,600,1793569,0.0-19.0-0.0-0.101,A2H2DJL45BZBD,3VGZ74AYUJWEHZMTR9OBXS32OP2GCF,31HQ4X3T3WQDWRNKPOGTE98F0LXSLB,4,3
102,3,object_06,object_01,752.84999999893,6,1,285.62500000047,0.4444444444444444,2,object_05,1,1272,0,7,4,library_4,2,memory-2step-stake-s,601,1801462,0.0-19.0-0.0-0.102,A2H2DJL45BZBD,3VGZ74AYUJWEHZMTR9OBXS32OP2GCF,31HQ4X3T3WQDWRNKPOGTE98F0LXSLB,6,5
103,2,object_09,object_02,404.05000000121,4,2,234.28499999875,0.6666666666666666,2,object_05,5,1302,0,6,6,forest_3,2,memory-2step-stake-s,602,1809502,0.0-19.0-0.0-0.103,A2H2DJL45BZBD,3VGZ74AYUJWEHZMTR9OBXS32OP2GCF,31HQ4X3T3WQDWRNKPOGTE98F0LXSLB,3,4
104,1,object_07,object_03,739.15000000107,1,2,281.21000000113,0.5555555555555556,1,object_08,5,1327,0,5,8,desert_1,2,memory-2step-stake-s,603,1817490,0.0-19.0-0.0-0.104,A2H2DJL45BZBD,3VGZ74AYUJWEHZMTR9OBXS32OP2GCF,31HQ4X3T3WQDWRNKPOGTE98F0LXSLB,2,1
105,4,object_04,object_10,495.60999999987,7,2,-1.0,0.0,1,object_08,1,1327,0,2,8,restaurant_4,2,memory-2step-stake-s,604,1825995,0.0-19.0-0.0-0.105,A2H2DJL45BZBD,3VGZ74AYUJWEHZMTR9OBXS32OP2GCF,31HQ4X3T3WQDWRNKPOGTE98F0LXSLB,8,7
106,1,object_07,object_03,645.95000000019,2,1,585.76000000001,0.5555555555555556,2,object_05,5,1352,0,1,5,desert_2,2,memory-2step-stake-s,605,1834290,0.0-19.0-0.0-0.106,A2H2DJL45BZBD,3VGZ74AYUJWEHZMTR9OBXS32OP2GCF,31HQ4X3T3WQDWRNKPOGTE98F0LXSLB,2,1
107,2,object_02,object_09,615.79999999958,4,1,1429.1350000002,0.8888888888888888,2,object_05,5,1392,0,2,8,forest_2,2,memory-2step-stake-s,606,1843726,0.0-19.0-0.0-0.107,A2H2DJL45BZBD,3VGZ74AYUJWEHZMTR9OBXS32OP2GCF,31HQ4X3T3WQDWRNKPOGTE98F0LXSLB,4,3
108,3,object_06,object_01,835.56499999948,6,1,-1.0,0.0,2,object_05,5,1392,0,0,7,library_8,2,memory-2step-stake-s,607,1852231,0.0-19.0-0.0-0.108,A2H2DJL45BZBD,3VGZ74AYUJWEHZMTR9OBXS32OP2GCF,31HQ4X3T3WQDWRNKPOGTE98F0LXSLB,6,5
109,4,object_04,object_10,570.20500000007,7,2,384.18500000099,0.1111111111111111,1,object_08,5,1397,0,1,7,restaurant_2,2,memory-2step-stake-s,608,1859921,0.0-19.0-0.0-0.109,A2H2DJL45BZBD,3VGZ74AYUJWEHZMTR9OBXS32OP2GCF,31HQ4X3T3WQDWRNKPOGTE98F0LXSLB,8,7
110,2,object_02,object_09,360.57500000042,3,2,415.2799999991,0.1111111111111111,1,object_08,1,1398,0,1,9,forest_6,2,memory-2step-stake-s,609,1867642,0.0-19.0-0.0-0.110,A2H2DJL45BZBD,3VGZ74AYUJWEHZMTR9OBXS32OP2GCF,31HQ4X3T3WQDWRNKPOGTE98F0LXSLB,4,3
111,1,object_07,object_03,15.504999999423,2,1,165.09500000044,0.6666666666666666,2,object_05,5,1428,0,4,6,desert_1,2,memory-2step-stake-s,610,1875614,0.0-19.0-0.0-0.111,A2H2DJL45BZBD,3VGZ74AYUJWEHZMTR9OBXS32OP2GCF,31HQ4X3T3WQDWRNKPOGTE98F0LXSLB,2,1
112,2,object_09,object_02,51.959999998799,3,1,185.23999999906,0.6666666666666666,1,object_08,5,1458,0,6,7,forest_6,2,memory-2step-stake-s,611,1883606,0.0-19.0-0.0-0.112,A2H2DJL45BZBD,3VGZ74AYUJWEHZMTR9OBXS32OP2GCF,31HQ4X3T3WQDWRNKPOGTE98F0LXSLB,3,4
113,1,object_03,object_07,36.335000000894,2,2,57.844999999274,1.0,2,object_05,5,1503,0,5,9,desert_8,2,memory-2step-stake-s,612,1891770,0.0-19.0-0.0-0.113,A2H2DJL45BZBD,3VGZ74AYUJWEHZMTR9OBXS32OP2GCF,31HQ4X3T3WQDWRNKPOGTE98F0LXSLB,1,2
114,1,object_07,object_03,55.365000000224,2,1,157.02000000048,0.7777777777777778,2,object_05,5,1538,0,4,7,desert_6,2,memory-2step-stake-s,613,1899834,0.0-19.0-0.0-0.114,A2H2DJL45BZBD,3VGZ74AYUJWEHZMTR9OBXS32OP2GCF,31HQ4X3T3WQDWRNKPOGTE98F0LXSLB,2,1
115,3,object_01,object_06,87.379999998957,6,2,132.97000000067,0.4444444444444444,2,object_05,1,1542,0,0,4,library_6,2,memory-2step-stake-s,614,1907573,0.0-19.0-0.0-0.115,A2H2DJL45BZBD,3VGZ74AYUJWEHZMTR9OBXS32OP2GCF,31HQ4X3T3WQDWRNKPOGTE98F0LXSLB,5,6
116,1,object_03,object_07,108.73499999964,1,1,186.12000000034,0.1111111111111111,1,object_08,5,1547,0,1,5,desert_8,2,memory-2step-stake-s,615,1915065,0.0-19.0-0.0-0.116,A2H2DJL45BZBD,3VGZ74AYUJWEHZMTR9OBXS32OP2GCF,31HQ4X3T3WQDWRNKPOGTE98F0LXSLB,1,2
117,4,object_04,object_10,153.03000000119,8,1,111.3349999995,0.3333333333333333,2,object_05,1,1550,0,2,3,restaurant_2,2,memory-2step-stake-s,616,1922681,0.0-19.0-0.0-0.117,A2H2DJL45BZBD,3VGZ74AYUJWEHZMTR9OBXS32OP2GCF,31HQ4X3T3WQDWRNKPOGTE98F0LXSLB,8,7
118,3,object_06,object_01,201.23000000068,5,2,69.910000000149,0.2222222222222222,1,object_08,1,1552,0,2,3,library_6,2,memory-2step-stake-s,617,1930158,0.0-19.0-0.0-0.118,A2H2DJL45BZBD,3VGZ74AYUJWEHZMTR9OBXS32OP2GCF,31HQ4X3T3WQDWRNKPOGTE98F0LXSLB,6,5
119,2,object_02,object_09,91.895000001416,3,2,136.46499999962,0.2222222222222222,1,object_08,5,1562,0,2,1,forest_2,2,memory-2step-stake-s,618,1937701,0.0-19.0-0.0-0.119,A2H2DJL45BZBD,3VGZ74AYUJWEHZMTR9OBXS32OP2GCF,31HQ4X3T3WQDWRNKPOGTE98F0LXSLB,4,3
120,1,object_07,object_03,37.104999999516,1,2,74.725000000559,0.1111111111111111,1,object_08,5,1567,0,1,2,desert_2,2,memory-2step-stake-s,619,1945081,0.0-19.0-0.0-0.120,A2H2DJL45BZBD,3VGZ74AYUJWEHZMTR9OBXS32OP2GCF,31HQ4X3T3WQDWRNKPOGTE98F0LXSLB,2,1
121,3,object_06,object_01,81.245000001276,5,2,55.154999999795,0.3333333333333333,1,object_08,1,1570,0,3,0,library_8,2,memory-2step-stake-s,620,1952641,0.0-19.0-0.0-0.121,A2H2DJL45BZBD,3VGZ74AYUJWEHZMTR9OBXS32OP2GCF,31HQ4X3T3WQDWRNKPOGTE98F0LXSLB,6,5
122,2,object_09,object_02,48.964999999851,4,2,93.810000000289,0.0,2,object_05,5,1570,0,1,0,forest_3,2,memory-2step-stake-s,621,1959940,0.0-19.0-0.0-0.122,A2H2DJL45BZBD,3VGZ74AYUJWEHZMTR9OBXS32OP2GCF,31HQ4X3T3WQDWRNKPOGTE98F0LXSLB,3,4
123,1,object_07,object_03,173.55000000144,2,1,51.304999999003,0.1111111111111111,2,object_05,5,1575,0,3,1,desert_1,2,memory-2step-stake-s,622,1967297,0.0-19.0-0.0-0.123,A2H2DJL45BZBD,3VGZ74AYUJWEHZMTR9OBXS32OP2GCF,31HQ4X3T3WQDWRNKPOGTE98F0LXSLB,2,1
124,3,object_06,object_01,41.000000000931,6,1,55.179999999469,0.2222222222222222,2,object_05,1,1577,0,0,2,library_6,2,memory-2step-stake-s,623,1974757,0.0-19.0-0.0-0.124,A2H2DJL45BZBD,3VGZ74AYUJWEHZMTR9OBXS32OP2GCF,31HQ4X3T3WQDWRNKPOGTE98F0LXSLB,6,5
125,4,object_10,object_04,84.60999999987,7,1,73.990000000689,0.2222222222222222,1,object_08,5,1587,0,2,1,restaurant_2,2,memory-2step-stake-s,624,1982237,0.0-19.0-0.0-0.125,A2H2DJL45BZBD,3VGZ74AYUJWEHZMTR9OBXS32OP2GCF,31HQ4X3T3WQDWRNKPOGTE98F0LXSLB,7,8
126,3,object_01,object_06,29.069999998668,6,2,147.25,0.0,2,object_05,1,1587,0,1,0,library_4,2,memory-2step-stake-s,625,1989589,0.0-19.0-0.0-0.126,A2H2DJL45BZBD,3VGZ74AYUJWEHZMTR9OBXS32OP2GCF,31HQ4X3T3WQDWRNKPOGTE98F0LXSLB,5,6
127,4,object_10,object_04,52.899999998743,8,2,146.52500000014,0.1111111111111111,2,object_05,1,1588,0,2,1,restaurant_6,2,memory-2step-stake-s,626,1997041,0.0-19.0-0.0-0.127,A2H2DJL45BZBD,3VGZ74AYUJWEHZMTR9OBXS32OP2GCF,31HQ4X3T3WQDWRNKPOGTE98F0LXSLB,7,8
128,4,object_10,object_04,537.54499999923,8,2,-1.0,0.0,2,object_05,1,1588,0,3,1,restaurant_4,2,memory-2step-stake-s,628,2005657,0.0-19.0-0.1-0.128,A2H2DJL45BZBD,3VGZ74AYUJWEHZMTR9OBXS32OP2GCF,31HQ4X3T3WQDWRNKPOGTE98F0LXSLB,7,8
129,1,object_07,object_03,424.57499999925,1,2,381.67500000051,0.2222222222222222,1,object_08,1,1590,0,2,0,desert_1,2,memory-2step-stake-s,629,2013445,0.0-19.0-0.1-0.129,A2H2DJL45BZBD,3VGZ74AYUJWEHZMTR9OBXS32OP2GCF,31HQ4X3T3WQDWRNKPOGTE98F0LXSLB,2,1
130,4,object_10,object_04,572.61500000092,8,2,41.90000000014,0.1111111111111111,2,object_05,1,1591,0,2,1,restaurant_4,2,memory-2step-stake-s,630,2020793,0.0-19.0-0.1-0.130,A2H2DJL45BZBD,3VGZ74AYUJWEHZMTR9OBXS32OP2GCF,31HQ4X3T3WQDWRNKPOGTE98F0LXSLB,7,8
131,4,object_04,object_10,713.1950000003,8,1,287.01000000001,0.1111111111111111,2,object_05,1,1592,0,3,1,restaurant_6,2,memory-2step-stake-s,631,2028385,0.0-19.0-0.1-0.131,A2H2DJL45BZBD,3VGZ74AYUJWEHZMTR9OBXS32OP2GCF,31HQ4X3T3WQDWRNKPOGTE98F0LXSLB,8,7
132,1,object_03,object_07,512.56500000088,2,2,623.35000000172,0.2222222222222222,2,object_05,5,1602,0,1,2,desert_8,2,memory-2step-stake-s,632,2036414,0.0-19.0-0.1-0.132,A2H2DJL45BZBD,3VGZ74AYUJWEHZMTR9OBXS32OP2GCF,31HQ4X3T3WQDWRNKPOGTE98F0LXSLB,1,2
133,4,object_04,object_10,-1.0,-1,-1,-1.0,0.0,-,0,1,1602,0,1,4,restaurant_2,2,memory-2step-stake-s,633,2042917,0.0-19.0-0.1-0.133,A2H2DJL45BZBD,3VGZ74AYUJWEHZMTR9OBXS32OP2GCF,31HQ4X3T3WQDWRNKPOGTE98F0LXSLB,8,7
134,3,object_06,object_01,364.67500000075,5,2,537.77999999886,0.2222222222222222,1,object_08,1,1604,0,2,6,library_4,2,memory-2step-stake-s,634,2050861,0.0-19.0-0.1-0.134,A2H2DJL45BZBD,3VGZ74AYUJWEHZMTR9OBXS32OP2GCF,31HQ4X3T3WQDWRNKPOGTE98F0LXSLB,6,5
135,4,object_04,object_10,156.55500000133,7,2,322.14000000036,0.1111111111111111,1,object_08,1,1605,0,1,6,restaurant_4,2,memory-2step-stake-s,635,2058489,0.0-19.0-0.1-0.135,A2H2DJL45BZBD,3VGZ74AYUJWEHZMTR9OBXS32OP2GCF,31HQ4X3T3WQDWRNKPOGTE98F0LXSLB,8,7
136,2,object_02,object_09,80.845000000438,3,2,37.850000000792,0.4444444444444444,1,object_08,1,1609,0,4,3,forest_3,2,memory-2step-stake-s,636,2066134,0.0-19.0-0.1-0.136,A2H2DJL45BZBD,3VGZ74AYUJWEHZMTR9OBXS32OP2GCF,31HQ4X3T3WQDWRNKPOGTE98F0LXSLB,4,3
137,4,object_04,object_10,52.084999999497,7,2,609.875,0.2222222222222222,1,object_08,1,1611,0,2,5,restaurant_6,2,memory-2step-stake-s,637,2074150,0.0-19.0-0.1-0.137,A2H2DJL45BZBD,3VGZ74AYUJWEHZMTR9OBXS32OP2GCF,31HQ4X3T3WQDWRNKPOGTE98F0LXSLB,8,7
138,3,object_01,object_06,45.22499999986,6,2,458.08000000031,0.7777777777777778,2,object_05,1,1618,0,3,7,library_6,2,memory-2step-stake-s,638,2082514,0.0-19.0-0.1-0.138,A2H2DJL45BZBD,3VGZ74AYUJWEHZMTR9OBXS32OP2GCF,31HQ4X3T3WQDWRNKPOGTE98F0LXSLB,5,6
139,1,object_07,object_03,535.70000000042,2,1,69.235000000801,0.8888888888888888,2,object_05,5,1658,0,3,8,desert_2,2,memory-2step-stake-s,639,2090590,0.0-19.0-0.1-0.139,A2H2DJL45BZBD,3VGZ74AYUJWEHZMTR9OBXS32OP2GCF,31HQ4X3T3WQDWRNKPOGTE98F0LXSLB,2,1
140,1,object_03,object_07,59.430000001099,1,1,385.58499999996,0.4444444444444444,1,object_08,5,1678,0,4,8,desert_8,2,memory-2step-stake-s,640,2098582,0.0-19.0-0.1-0.140,A2H2DJL45BZBD,3VGZ74AYUJWEHZMTR9OBXS32OP2GCF,31HQ4X3T3WQDWRNKPOGTE98F0LXSLB,1,2
141,4,object_04,object_10,35.645000000019,8,1,113.44500000076,0.8888888888888888,2,object_05,5,1718,0,5,8,restaurant_4,2,memory-2step-stake-s,641,2106703,0.0-19.0-0.1-0.141,A2H2DJL45BZBD,3VGZ74AYUJWEHZMTR9OBXS32OP2GCF,31HQ4X3T3WQDWRNKPOGTE98F0LXSLB,8,7
142,2,object_02,object_09,67.269999999553,3,2,1.2100000004284,0.4444444444444444,1,object_08,1,1722,0,4,7,forest_3,2,memory-2step-stake-s,642,2114310,0.0-19.0-0.1-0.142,A2H2DJL45BZBD,3VGZ74AYUJWEHZMTR9OBXS32OP2GCF,31HQ4X3T3WQDWRNKPOGTE98F0LXSLB,4,3
143,4,object_04,object_10,340.36999999965,7,2,344.71500000078,0.3333333333333333,1,object_08,1,1725,0,3,6,restaurant_4,2,memory-2step-stake-s,643,2122162,0.0-19.0-0.1-0.143,A2H2DJL45BZBD,3VGZ74AYUJWEHZMTR9OBXS32OP2GCF,31HQ4X3T3WQDWRNKPOGTE98F0LXSLB,8,7
144,3,object_01,object_06,480.77499999991,6,2,429.86500000022,1.0,2,object_05,1,1734,0,2,9,library_7,2,memory-2step-stake-s,644,2130699,0.0-19.0-0.1-0.144,A2H2DJL45BZBD,3VGZ74AYUJWEHZMTR9OBXS32OP2GCF,31HQ4X3T3WQDWRNKPOGTE98F0LXSLB,5,6
145,1,object_07,object_03,566.78499999875,1,2,524.26500000013,0.0,1,object_08,5,1734,0,0,9,desert_6,2,memory-2step-stake-s,645,2138429,0.0-19.0-0.1-0.145,A2H2DJL45BZBD,3VGZ74AYUJWEHZMTR9OBXS32OP2GCF,31HQ4X3T3WQDWRNKPOGTE98F0LXSLB,2,1
146,2,object_02,object_09,277.40999999875,3,2,722.97999999905,0.1111111111111111,1,object_08,5,1739,0,1,8,forest_6,2,memory-2step-stake-s,646,2146457,0.0-19.0-0.1-0.146,A2H2DJL45BZBD,3VGZ74AYUJWEHZMTR9OBXS32OP2GCF,31HQ4X3T3WQDWRNKPOGTE98F0LXSLB,4,3
147,3,object_06,object_01,256.45000000065,6,1,262.08500000043,0.8888888888888888,2,object_05,5,1779,0,1,8,library_7,2,memory-2step-stake-s,647,2154727,0.0-19.0-0.1-0.147,A2H2DJL45BZBD,3VGZ74AYUJWEHZMTR9OBXS32OP2GCF,31HQ4X3T3WQDWRNKPOGTE98F0LXSLB,6,5
148,1,object_07,object_03,473.26000000071,2,1,318.75500000035,0.6666666666666666,2,object_05,5,1809,0,0,6,desert_1,2,memory-2step-stake-s,648,2162854,0.0-19.0-0.1-0.148,A2H2DJL45BZBD,3VGZ74AYUJWEHZMTR9OBXS32OP2GCF,31HQ4X3T3WQDWRNKPOGTE98F0LXSLB,2,1
149,4,object_04,object_10,444.125,8,1,522.47999999952,0.5555555555555556,2,object_05,1,1814,0,3,5,restaurant_2,2,memory-2step-stake-s,649,2171083,0.0-19.0-0.1-0.149,A2H2DJL45BZBD,3VGZ74AYUJWEHZMTR9OBXS32OP2GCF,31HQ4X3T3WQDWRNKPOGTE98F0LXSLB,8,7
150,1,object_07,object_03,312.43999999948,2,1,637.03999999957,0.6666666666666666,2,object_05,5,1844,0,0,6,desert_2,2,memory-2step-stake-s,650,2179526,0.0-19.0-0.1-0.150,A2H2DJL45BZBD,3VGZ74AYUJWEHZMTR9OBXS32OP2GCF,31HQ4X3T3WQDWRNKPOGTE98F0LXSLB,2,1
151,3,object_06,object_01,531.45000000065,6,1,969.20499999961,0.4444444444444444,2,object_05,5,1864,0,3,4,library_7,2,memory-2step-stake-s,651,2188102,0.0-19.0-0.1-0.151,A2H2DJL45BZBD,3VGZ74AYUJWEHZMTR9OBXS32OP2GCF,31HQ4X3T3WQDWRNKPOGTE98F0LXSLB,6,5
152,1,object_03,object_07,315.87500000047,1,1,569.35000000196,0.4444444444444444,1,object_08,1,1868,0,4,4,desert_1,2,memory-2step-stake-s,652,2196278,0.0-19.0-0.1-0.152,A2H2DJL45BZBD,3VGZ74AYUJWEHZMTR9OBXS32OP2GCF,31HQ4X3T3WQDWRNKPOGTE98F0LXSLB,1,2
153,4,object_04,object_10,723.81499999948,8,1,553.39500000048,0.7777777777777778,2,object_05,1,1875,0,6,7,restaurant_6,2,memory-2step-stake-s,653,2204739,0.0-19.0-0.1-0.153,A2H2DJL45BZBD,3VGZ74AYUJWEHZMTR9OBXS32OP2GCF,31HQ4X3T3WQDWRNKPOGTE98F0LXSLB,8,7
154,2,object_02,object_09,607.22999999952,4,1,885.1949999989,0.4444444444444444,2,object_05,5,1895,0,5,4,forest_6,2,memory-2step-stake-s,654,2213230,0.0-19.0-0.1-0.154,A2H2DJL45BZBD,3VGZ74AYUJWEHZMTR9OBXS32OP2GCF,31HQ4X3T3WQDWRNKPOGTE98F0LXSLB,4,3
155,1,object_03,object_07,428.12500000047,1,1,137.37500000047,0.5555555555555556,1,object_08,5,1920,0,5,3,desert_8,2,memory-2step-stake-s,655,2221074,0.0-19.0-0.1-0.155,A2H2DJL45BZBD,3VGZ74AYUJWEHZMTR9OBXS32OP2GCF,31HQ4X3T3WQDWRNKPOGTE98F0LXSLB,1,2
156,3,object_01,object_06,88.170000000857,5,1,54.360000000335,0.6666666666666666,1,object_08,1,1926,0,6,6,library_6,2,memory-2step-stake-s,656,2228934,0.0-19.0-0.1-0.156,A2H2DJL45BZBD,3VGZ74AYUJWEHZMTR9OBXS32OP2GCF,31HQ4X3T3WQDWRNKPOGTE98F0LXSLB,5,6
157,2,object_09,object_02,67.565000001341,4,2,17.264999998733,0.5555555555555556,2,object_05,5,1951,0,9,5,forest_8,2,memory-2step-stake-s,657,2236658,0.0-19.0-0.1-0.157,A2H2DJL45BZBD,3VGZ74AYUJWEHZMTR9OBXS32OP2GCF,31HQ4X3T3WQDWRNKPOGTE98F0LXSLB,3,4
158,1,object_03,object_07,263.95999999996,2,2,77.035000000149,0.8888888888888888,2,object_05,5,1991,0,7,8,desert_6,2,memory-2step-stake-s,658,2244743,0.0-19.0-0.1-0.158,A2H2DJL45BZBD,3VGZ74AYUJWEHZMTR9OBXS32OP2GCF,31HQ4X3T3WQDWRNKPOGTE98F0LXSLB,1,2
159,4,object_10,object_04,323.53999999957,8,2,9.1499999999069,0.7777777777777778,2,object_05,1,1998,0,7,7,restaurant_5,2,memory-2step-stake-s,659,2252658,0.0-19.0-0.1-0.159,A2H2DJL45BZBD,3VGZ74AYUJWEHZMTR9OBXS32OP2GCF,31HQ4X3T3WQDWRNKPOGTE98F0LXSLB,7,8
160,3,object_01,object_06,17.504999999888,6,2,285.5849999995,0.7777777777777778,2,object_05,1,2005,0,8,7,library_7,2,memory-2step-stake-s,660,2260850,0.0-19.0-0.1-0.160,A2H2DJL45BZBD,3VGZ74AYUJWEHZMTR9OBXS32OP2GCF,31HQ4X3T3WQDWRNKPOGTE98F0LXSLB,5,6
161,1,object_03,object_07,111.82499999972,2,2,29.020000000019,0.6666666666666666,2,object_05,5,2035,0,5,6,desert_8,2,memory-2step-stake-s,661,2268686,0.0-19.0-0.1-0.161,A2H2DJL45BZBD,3VGZ74AYUJWEHZMTR9OBXS32OP2GCF,31HQ4X3T3WQDWRNKPOGTE98F0LXSLB,1,2
162,4,object_10,object_04,90.265000000596,8,2,480.21500000171,1.0,2,object_05,1,2044,0,8,9,restaurant_5,2,memory-2step-stake-s,662,2277275,0.0-19.0-0.1-0.162,A2H2DJL45BZBD,3VGZ74AYUJWEHZMTR9OBXS32OP2GCF,31HQ4X3T3WQDWRNKPOGTE98F0LXSLB,7,8
163,4,object_04,object_10,150.62000000058,8,1,4.8499999996275,0.8888888888888888,2,object_05,5,2084,0,7,8,restaurant_5,2,memory-2step-stake-s,663,2285288,0.0-19.0-0.1-0.163,A2H2DJL45BZBD,3VGZ74AYUJWEHZMTR9OBXS32OP2GCF,31HQ4X3T3WQDWRNKPOGTE98F0LXSLB,8,7
164,4,object_04,object_10,113.74500000058,8,1,39.084999998566,0.8888888888888888,2,object_05,1,2092,0,5,8,restaurant_2,2,memory-2step-stake-s,664,2293335,0.0-19.0-0.1-0.164,A2H2DJL45BZBD,3VGZ74AYUJWEHZMTR9OBXS32OP2GCF,31HQ4X3T3WQDWRNKPOGTE98F0LXSLB,8,7
165,2,object_09,object_02,330.9299999997,3,1,112.7350000008,0.6666666666666666,1,object_08,5,2122,0,6,6,forest_8,2,memory-2step-stake-s,665,2301255,0.0-19.0-0.1-0.165,A2H2DJL45BZBD,3VGZ74AYUJWEHZMTR9OBXS32OP2GCF,31HQ4X3T3WQDWRNKPOGTE98F0LXSLB,3,4
166,3,object_06,object_01,459.66000000015,6,1,505.49500000104,0.8888888888888888,2,object_05,1,2130,0,6,8,library_6,2,memory-2step-stake-s,666,2309767,0.0-19.0-0.1-0.166,A2H2DJL45BZBD,3VGZ74AYUJWEHZMTR9OBXS32OP2GCF,31HQ4X3T3WQDWRNKPOGTE98F0LXSLB,6,5
167,2,object_02,object_09,443.35499999905,4,1,601.02499999991,1.0,2,object_05,5,2175,0,7,9,forest_6,2,memory-2step-stake-s,667,2318475,0.0-19.0-0.1-0.167,A2H2DJL45BZBD,3VGZ74AYUJWEHZMTR9OBXS32OP2GCF,31HQ4X3T3WQDWRNKPOGTE98F0LXSLB,4,3
168,2,object_09,object_02,383.15999999922,3,1,1381.3900000006,0.8888888888888888,1,object_08,5,2215,0,8,8,forest_8,2,memory-2step-stake-s,668,2327863,0.0-19.0-0.1-0.168,A2H2DJL45BZBD,3VGZ74AYUJWEHZMTR9OBXS32OP2GCF,31HQ4X3T3WQDWRNKPOGTE98F0LXSLB,3,4
169,2,object_09,object_02,187.3450000002,3,1,121.14999999898,0.8888888888888888,1,object_08,1,2223,0,8,7,forest_8,2,memory-2step-stake-s,669,2335991,0.0-19.0-0.1-0.169,A2H2DJL45BZBD,3VGZ74AYUJWEHZMTR9OBXS32OP2GCF,31HQ4X3T3WQDWRNKPOGTE98F0LXSLB,3,4
170,1,object_07,object_03,163.79500000039,2,1,137.11999999965,0.4444444444444444,2,object_05,5,2243,0,8,4,desert_6,2,memory-2step-stake-s,670,2343734,0.0-19.0-0.1-0.170,A2H2DJL45BZBD,3VGZ74AYUJWEHZMTR9OBXS32OP2GCF,31HQ4X3T3WQDWRNKPOGTE98F0LXSLB,2,1
171,1,object_03,object_07,332.22500000009,1,1,106.28500000015,0.8888888888888888,1,object_08,5,2283,0,8,1,desert_1,2,memory-2step-stake-s,671,2351846,0.0-19.0-0.1-0.171,A2H2DJL45BZBD,3VGZ74AYUJWEHZMTR9OBXS32OP2GCF,31HQ4X3T3WQDWRNKPOGTE98F0LXSLB,1,2
172,1,object_03,object_07,147.66000000061,1,1,65.280000000726,0.7777777777777778,1,object_08,1,2290,0,7,3,desert_6,2,memory-2step-stake-s,672,2359818,0.0-19.0-0.1-0.172,A2H2DJL45BZBD,3VGZ74AYUJWEHZMTR9OBXS32OP2GCF,31HQ4X3T3WQDWRNKPOGTE98F0LXSLB,1,2
173,3,object_06,object_01,119.55499999924,6,1,45.06500000041,0.2222222222222222,2,object_05,1,2292,0,9,2,library_7,2,memory-2step-stake-s,673,2367269,0.0-19.0-0.1-0.173,A2H2DJL45BZBD,3VGZ74AYUJWEHZMTR9OBXS32OP2GCF,31HQ4X3T3WQDWRNKPOGTE98F0LXSLB,6,5
174,1,object_07,object_03,52.895000000484,2,1,74.005000000354,0.2222222222222222,2,object_05,1,2294,0,7,2,desert_6,2,memory-2step-stake-s,674,2374749,0.0-19.0-0.1-0.174,A2H2DJL45BZBD,3VGZ74AYUJWEHZMTR9OBXS32OP2GCF,31HQ4X3T3WQDWRNKPOGTE98F0LXSLB,2,1
175,3,object_01,object_06,812.71499999985,6,2,378.42000000086,0.2222222222222222,2,object_05,1,2296,0,8,2,library_4,2,memory-2step-stake-s,675,2382534,0.0-19.0-0.1-0.175,A2H2DJL45BZBD,3VGZ74AYUJWEHZMTR9OBXS32OP2GCF,31HQ4X3T3WQDWRNKPOGTE98F0LXSLB,5,6
176,1,object_07,object_03,164.31999999983,1,2,297.98999999883,1.0,1,object_08,5,2341,0,9,1,desert_6,2,memory-2step-stake-s,676,2390941,0.0-19.0-0.1-0.176,A2H2DJL45BZBD,3VGZ74AYUJWEHZMTR9OBXS32OP2GCF,31HQ4X3T3WQDWRNKPOGTE98F0LXSLB,2,1
177,2,object_09,object_02,260.56500000041,4,2,666.125,0.3333333333333333,2,object_05,5,2356,0,8,3,forest_6,2,memory-2step-stake-s,677,2399114,0.0-19.0-0.1-0.177,A2H2DJL45BZBD,3VGZ74AYUJWEHZMTR9OBXS32OP2GCF,31HQ4X3T3WQDWRNKPOGTE98F0LXSLB,3,4
178,2,object_02,object_09,376.2200000002,3,2,501.46000000136,0.8888888888888888,1,object_08,5,2396,0,8,2,forest_3,2,memory-2step-stake-s,678,2407623,0.0-19.0-0.1-0.178,A2H2DJL45BZBD,3VGZ74AYUJWEHZMTR9OBXS32OP2GCF,31HQ4X3T3WQDWRNKPOGTE98F0LXSLB,4,3
179,1,object_07,object_03,547.45500000147,1,2,592.91500000097,0.7777777777777778,1,object_08,5,2431,0,7,4,desert_8,2,memory-2step-stake-s,679,2416123,0.0-19.0-0.1-0.179,A2H2DJL45BZBD,3VGZ74AYUJWEHZMTR9OBXS32OP2GCF,31HQ4X3T3WQDWRNKPOGTE98F0LXSLB,2,1
180,4,object_10,object_04,279.77999999933,8,2,573.25500000129,0.5555555555555556,2,object_05,5,2456,0,8,5,restaurant_4,2,memory-2step-stake-s,680,2424402,0.0-19.0-0.1-0.180,A2H2DJL45BZBD,3VGZ74AYUJWEHZMTR9OBXS32OP2GCF,31HQ4X3T3WQDWRNKPOGTE98F0LXSLB,7,8
181,2,object_09,object_02,360.16999999993,4,2,758.0400000005,0.7777777777777778,2,object_05,1,2463,0,8,7,forest_2,2,memory-2step-stake-s,681,2433066,0.0-19.0-0.1-0.181,A2H2DJL45BZBD,3VGZ74AYUJWEHZMTR9OBXS32OP2GCF,31HQ4X3T3WQDWRNKPOGTE98F0LXSLB,3,4
182,4,object_04,object_10,328.55999999959,8,1,61.485000000335,0.8888888888888888,2,object_05,1,2471,0,9,8,restaurant_2,2,memory-2step-stake-s,682,2441135,0.0-19.0-0.1-0.182,A2H2DJL45BZBD,3VGZ74AYUJWEHZMTR9OBXS32OP2GCF,31HQ4X3T3WQDWRNKPOGTE98F0LXSLB,8,7
183,2,object_09,object_02,179.59999999916,3,1,1281.3649999988,0.8888888888888888,1,object_08,5,2511,0,8,7,forest_3,2,memory-2step-stake-s,683,2450423,0.0-19.0-0.1-0.183,A2H2DJL45BZBD,3VGZ74AYUJWEHZMTR9OBXS32OP2GCF,31HQ4X3T3WQDWRNKPOGTE98F0LXSLB,3,4
184,2,object_09,object_02,43.339999999851,3,1,249.35499999998,0.8888888888888888,1,object_08,1,2519,0,8,5,forest_6,2,memory-2step-stake-s,684,2458679,0.0-19.0-0.1-0.184,A2H2DJL45BZBD,3VGZ74AYUJWEHZMTR9OBXS32OP2GCF,31HQ4X3T3WQDWRNKPOGTE98F0LXSLB,3,4
185,1,object_03,object_07,11.069999998435,1,1,473.66499999957,0.8888888888888888,1,object_08,1,2527,0,8,4,desert_8,2,memory-2step-stake-s,685,2467159,0.0-19.0-0.1-0.185,A2H2DJL45BZBD,3VGZ74AYUJWEHZMTR9OBXS32OP2GCF,31HQ4X3T3WQDWRNKPOGTE98F0LXSLB,1,2
186,2,object_02,object_09,746.73999999883,4,1,-1.0,0.0,2,object_05,5,2527,0,7,6,forest_6,2,memory-2step-stake-s,686,2475665,0.0-19.0-0.1-0.186,A2H2DJL45BZBD,3VGZ74AYUJWEHZMTR9OBXS32OP2GCF,31HQ4X3T3WQDWRNKPOGTE98F0LXSLB,4,3
187,3,object_01,object_06,553.38499999931,5,1,823.54499999946,0.7777777777777778,1,object_08,1,2534,0,7,3,library_4,2,memory-2step-stake-s,687,2484395,0.0-19.0-0.1-0.187,A2H2DJL45BZBD,3VGZ74AYUJWEHZMTR9OBXS32OP2GCF,31HQ4X3T3WQDWRNKPOGTE98F0LXSLB,5,6
188,3,object_06,object_01,679.13500000024,6,1,1397.2949999985,0.1111111111111111,2,object_05,5,2539,0,8,1,library_8,2,memory-2step-stake-s,688,2493097,0.0-19.0-0.1-0.188,A2H2DJL45BZBD,3VGZ74AYUJWEHZMTR9OBXS32OP2GCF,31HQ4X3T3WQDWRNKPOGTE98F0LXSLB,6,5
189,3,object_01,object_06,912.6099999994,6,2,454.16499999911,0.2222222222222222,2,object_05,5,2549,0,9,2,library_7,2,memory-2step-stake-s,689,2500957,0.0-19.0-0.1-0.189,A2H2DJL45BZBD,3VGZ74AYUJWEHZMTR9OBXS32OP2GCF,31HQ4X3T3WQDWRNKPOGTE98F0LXSLB,5,6
190,3,object_01,object_06,309.0549999997,6,2,354.84499999974,0.4444444444444444,2,object_05,1,2553,0,6,4,library_7,2,memory-2step-stake-s,690,2508918,0.0-19.0-0.1-0.190,A2H2DJL45BZBD,3VGZ74AYUJWEHZMTR9OBXS32OP2GCF,31HQ4X3T3WQDWRNKPOGTE98F0LXSLB,5,6
191,3,object_01,object_06,347.7650000006,6,2,514.3349999995,0.7777777777777778,2,object_05,1,2560,0,6,7,library_4,2,memory-2step-stake-s,691,2517339,0.0-19.0-0.1-0.191,A2H2DJL45BZBD,3VGZ74AYUJWEHZMTR9OBXS32OP2GCF,31HQ4X3T3WQDWRNKPOGTE98F0LXSLB,5,6
192,4,object_04,object_10,430.58000000007,7,2,-1.0,0.0,1,object_08,1,2560,0,7,7,restaurant_4,2,memory-2step-stake-s,692,2525844,0.0-19.0-0.1-0.192,A2H2DJL45BZBD,3VGZ74AYUJWEHZMTR9OBXS32OP2GCF,31HQ4X3T3WQDWRNKPOGTE98F0LXSLB,8,7
193,1,object_03,object_07,301.99999999953,2,2,10.935000000522,0.5555555555555556,2,object_05,5,2585,0,4,5,desert_1,2,memory-2step-stake-s,693,2533562,0.0-19.0-0.1-0.193,A2H2DJL45BZBD,3VGZ74AYUJWEHZMTR9OBXS32OP2GCF,31HQ4X3T3WQDWRNKPOGTE98F0LXSLB,1,2
194,4,object_10,object_04,72.509999999776,8,2,533.88000000082,0.3333333333333333,2,object_05,5,2600,0,5,3,restaurant_2,2,memory-2step-stake-s,694,2541602,0.0-19.0-0.1-0.194,A2H2DJL45BZBD,3VGZ74AYUJWEHZMTR9OBXS32OP2GCF,31HQ4X3T3WQDWRNKPOGTE98F0LXSLB,7,8
195,3,object_06,object_01,560.24499999871,5,2,773.47499999963,0.6666666666666666,1,object_08,1,2606,0,6,1,library_6,2,memory-2step-stake-s,695,2550183,0.0-19.0-0.1-0.195,A2H2DJL45BZBD,3VGZ74AYUJWEHZMTR9OBXS32OP2GCF,31HQ4X3T3WQDWRNKPOGTE98F0LXSLB,6,5
196,3,object_01,object_06,339.57500000019,6,2,425.01000000071,0.1111111111111111,2,object_05,5,2611,0,7,1,library_6,2,memory-2step-stake-s,696,2557913,0.0-19.0-0.1-0.196,A2H2DJL45BZBD,3VGZ74AYUJWEHZMTR9OBXS32OP2GCF,31HQ4X3T3WQDWRNKPOGTE98F0LXSLB,5,6
197,3,object_01,object_06,305.2650000006,6,2,486.73499999894,0.2222222222222222,2,object_05,1,2613,0,8,2,library_6,2,memory-2step-stake-s,697,2565805,0.0-19.0-0.1-0.197,A2H2DJL45BZBD,3VGZ74AYUJWEHZMTR9OBXS32OP2GCF,31HQ4X3T3WQDWRNKPOGTE98F0LXSLB,5,6
198,3,object_06,object_01,420.51499999966,5,2,506.37000000104,1.0,1,object_08,1,2622,0,9,3,library_7,2,memory-2step-stake-s,698,2574419,0.0-19.0-0.1-0.198,A2H2DJL45BZBD,3VGZ74AYUJWEHZMTR9OBXS32OP2GCF,31HQ4X3T3WQDWRNKPOGTE98F0LXSLB,6,5
199,4,object_10,object_04,302.57499999972,8,2,716.07000000076,0.1111111111111111,2,object_05,1,2623,0,7,1,restaurant_6,2,memory-2step-stake-s,699,2582441,0.0-19.0-0.1-0.199,A2H2DJL45BZBD,3VGZ74AYUJWEHZMTR9OBXS32OP2GCF,31HQ4X3T3WQDWRNKPOGTE98F0LXSLB,7,8
200,2,object_02,object_09,224.81499999948,4,1,421.72500000009,0.0,2,object_05,5,2623,0,8,0,forest_8,2,memory-2step-stake-s,700,2590069,0.0-19.0-0.1-0.200,A2H2DJL45BZBD,3VGZ74AYUJWEHZMTR9OBXS32OP2GCF,31HQ4X3T3WQDWRNKPOGTE98F0LXSLB,4,3
201,2,object_02,object_09,708.99500000058,4,1,418.37999999942,0.2222222222222222,2,object_05,5,2633,0,9,2,forest_2,2,memory-2step-stake-s,701,2597894,0.0-19.0-0.1-0.201,A2H2DJL45BZBD,3VGZ74AYUJWEHZMTR9OBXS32OP2GCF,31HQ4X3T3WQDWRNKPOGTE98F0LXSLB,4,3
202,3,object_06,object_01,325.0400000019,6,1,858.20000000065,0.4444444444444444,2,object_05,1,2637,0,8,4,library_8,2,memory-2step-stake-s,702,2606358,0.0-19.0-0.1-0.202,A2H2DJL45BZBD,3VGZ74AYUJWEHZMTR9OBXS32OP2GCF,31HQ4X3T3WQDWRNKPOGTE98F0LXSLB,6,5
203,4,object_10,object_04,348.00999999978,7,1,577.84999999963,0.7777777777777778,1,object_08,1,2644,0,7,1,restaurant_5,2,memory-2step-stake-s,703,2614843,0.0-19.0-0.1-0.203,A2H2DJL45BZBD,3VGZ74AYUJWEHZMTR9OBXS32OP2GCF,31HQ4X3T3WQDWRNKPOGTE98F0LXSLB,7,8
204,3,object_06,object_01,471.43499999959,6,1,541.37500000047,0.2222222222222222,2,object_05,1,2646,0,7,2,library_7,2,memory-2step-stake-s,704,2622790,0.0-19.0-0.1-0.204,A2H2DJL45BZBD,3VGZ74AYUJWEHZMTR9OBXS32OP2GCF,31HQ4X3T3WQDWRNKPOGTE98F0LXSLB,6,5
205,3,object_01,object_06,556.71000000089,5,1,329.16499999911,0.8888888888888888,1,object_08,5,2686,0,8,4,library_8,2,memory-2step-stake-s,705,2631127,0.0-19.0-0.1-0.205,A2H2DJL45BZBD,3VGZ74AYUJWEHZMTR9OBXS32OP2GCF,31HQ4X3T3WQDWRNKPOGTE98F0LXSLB,5,6
206,3,object_01,object_06,611.28000000119,5,1,608.95999999996,0.7777777777777778,1,object_08,1,2693,0,7,6,library_7,2,memory-2step-stake-s,706,2639643,0.0-19.0-0.1-0.206,A2H2DJL45BZBD,3VGZ74AYUJWEHZMTR9OBXS32OP2GCF,31HQ4X3T3WQDWRNKPOGTE98F0LXSLB,5,6
207,3,object_06,object_01,703.49499999965,6,1,837.35999999987,0.5555555555555556,2,object_05,1,2698,0,8,5,library_4,2,memory-2step-stake-s,707,2648187,0.0-19.0-0.1-0.207,A2H2DJL45BZBD,3VGZ74AYUJWEHZMTR9OBXS32OP2GCF,31HQ4X3T3WQDWRNKPOGTE98F0LXSLB,6,5
208,1,object_03,object_07,207.84000000125,2,2,315.73000000045,0.7777777777777778,2,object_05,5,2733,0,9,7,desert_8,2,memory-2step-stake-s,708,2656411,0.0-19.0-0.1-0.208,A2H2DJL45BZBD,3VGZ74AYUJWEHZMTR9OBXS32OP2GCF,31HQ4X3T3WQDWRNKPOGTE98F0LXSLB,1,2
209,4,object_04,object_10,23.540000000037,7,2,164.91499999911,1.0,1,object_08,1,2742,0,9,8,restaurant_4,2,memory-2step-stake-s,709,2664683,0.0-19.0-0.1-0.209,A2H2DJL45BZBD,3VGZ74AYUJWEHZMTR9OBXS32OP2GCF,31HQ4X3T3WQDWRNKPOGTE98F0LXSLB,8,7
210,4,object_04,object_10,303.21999999974,7,2,453.06000000006,0.8888888888888888,1,object_08,1,2750,0,8,8,restaurant_5,2,memory-2step-stake-s,710,2673143,0.0-19.0-0.1-0.210,A2H2DJL45BZBD,3VGZ74AYUJWEHZMTR9OBXS32OP2GCF,31HQ4X3T3WQDWRNKPOGTE98F0LXSLB,8,7
211,4,object_10,object_04,283.55500000017,8,2,401.03499999875,0.8888888888888888,2,object_05,1,2758,0,6,8,restaurant_5,2,memory-2step-stake-s,711,2681551,0.0-19.0-0.1-0.211,A2H2DJL45BZBD,3VGZ74AYUJWEHZMTR9OBXS32OP2GCF,31HQ4X3T3WQDWRNKPOGTE98F0LXSLB,7,8
212,1,object_03,object_07,338.85499999998,2,2,440.44999999972,1.0,2,object_05,5,2803,0,6,9,desert_1,2,memory-2step-stake-s,712,2690100,0.0-19.0-0.1-0.212,A2H2DJL45BZBD,3VGZ74AYUJWEHZMTR9OBXS32OP2GCF,31HQ4X3T3WQDWRNKPOGTE98F0LXSLB,1,2
213,4,object_04,object_10,534.41000000015,7,2,596.07499999972,1.0,1,object_08,1,2812,0,9,6,restaurant_6,2,memory-2step-stake-s,713,2698803,0.0-19.0-0.1-0.213,A2H2DJL45BZBD,3VGZ74AYUJWEHZMTR9OBXS32OP2GCF,31HQ4X3T3WQDWRNKPOGTE98F0LXSLB,8,7
214,4,object_10,object_04,319.10999999847,8,2,397.09499999881,0.6666666666666666,2,object_05,1,2818,0,4,6,restaurant_6,2,memory-2step-stake-s,714,2707007,0.0-19.0-0.1-0.214,A2H2DJL45BZBD,3VGZ74AYUJWEHZMTR9OBXS32OP2GCF,31HQ4X3T3WQDWRNKPOGTE98F0LXSLB,7,8
215,4,object_04,object_10,-1.0,-1,-1,-1.0,0.0,-,0,1,2818,0,1,8,restaurant_2,2,memory-2step-stake-s,715,2713510,0.0-19.0-0.1-0.215,A2H2DJL45BZBD,3VGZ74AYUJWEHZMTR9OBXS32OP2GCF,31HQ4X3T3WQDWRNKPOGTE98F0LXSLB,8,7
216,1,object_07,object_03,268.54499999899,2,1,433.9049999998,1.0,2,object_05,5,2863,0,1,9,desert_2,2,memory-2step-stake-s,716,2722051,0.0-19.0-0.1-0.216,A2H2DJL45BZBD,3VGZ74AYUJWEHZMTR9OBXS32OP2GCF,31HQ4X3T3WQDWRNKPOGTE98F0LXSLB,2,1
217,4,object_04,object_10,334.73500000034,8,1,412.39000000153,0.8888888888888888,2,object_05,5,2903,0,1,8,restaurant_6,2,memory-2step-stake-s,717,2730471,0.0-19.0-0.1-0.217,A2H2DJL45BZBD,3VGZ74AYUJWEHZMTR9OBXS32OP2GCF,31HQ4X3T3WQDWRNKPOGTE98F0LXSLB,8,7
218,2,object_09,object_02,274.57499999925,3,1,360.08000000007,0.3333333333333333,1,object_08,5,2918,0,3,9,forest_8,2,memory-2step-stake-s,718,2738338,0.0-19.0-0.1-0.218,A2H2DJL45BZBD,3VGZ74AYUJWEHZMTR9OBXS32OP2GCF,31HQ4X3T3WQDWRNKPOGTE98F0LXSLB,3,4
219,2,object_02,object_09,504.55999999959,4,1,110.10000000009,0.6666666666666666,2,object_05,1,2924,0,1,6,forest_8,2,memory-2step-stake-s,719,2746254,0.0-19.0-0.1-0.219,A2H2DJL45BZBD,3VGZ74AYUJWEHZMTR9OBXS32OP2GCF,31HQ4X3T3WQDWRNKPOGTE98F0LXSLB,4,3
220,3,object_06,object_01,28.314999999478,6,1,169.73999999929,0.5555555555555556,2,object_05,5,2949,0,1,5,library_8,2,memory-2step-stake-s,720,2754130,0.0-19.0-0.1-0.220,A2H2DJL45BZBD,3VGZ74AYUJWEHZMTR9OBXS32OP2GCF,31HQ4X3T3WQDWRNKPOGTE98F0LXSLB,6,5
221,3,object_01,object_06,88.450000001118,5,1,126.17000000179,0.2222222222222222,1,object_08,1,2951,0,2,5,library_8,2,memory-2step-stake-s,721,2761661,0.0-19.0-0.1-0.221,A2H2DJL45BZBD,3VGZ74AYUJWEHZMTR9OBXS32OP2GCF,31HQ4X3T3WQDWRNKPOGTE98F0LXSLB,5,6
222,4,object_10,object_04,12.705000001006,7,1,98.074999999721,0.3333333333333333,1,object_08,1,2954,0,3,9,restaurant_6,2,memory-2step-stake-s,722,2769265,0.0-19.0-0.1-0.222,A2H2DJL45BZBD,3VGZ74AYUJWEHZMTR9OBXS32OP2GCF,31HQ4X3T3WQDWRNKPOGTE98F0LXSLB,7,8
223,2,object_09,object_02,72.984999998938,3,1,77.999999999534,0.3333333333333333,1,object_08,5,2969,0,3,4,forest_2,2,memory-2step-stake-s,723,2776849,0.0-19.0-0.1-0.223,A2H2DJL45BZBD,3VGZ74AYUJWEHZMTR9OBXS32OP2GCF,31HQ4X3T3WQDWRNKPOGTE98F0LXSLB,3,4
224,1,object_03,object_07,536.79499999993,2,2,118.16499999957,0.8888888888888888,2,object_05,5,3009,0,1,8,desert_2,2,memory-2step-stake-s,724,2784975,0.0-19.0-0.1-0.224,A2H2DJL45BZBD,3VGZ74AYUJWEHZMTR9OBXS32OP2GCF,31HQ4X3T3WQDWRNKPOGTE98F0LXSLB,1,2
225,2,object_09,object_02,147.39500000002,4,2,281.32500000158,0.5555555555555556,2,object_05,5,3034,0,2,5,forest_3,2,memory-2step-stake-s,725,2792962,0.0-19.0-0.1-0.225,A2H2DJL45BZBD,3VGZ74AYUJWEHZMTR9OBXS32OP2GCF,31HQ4X3T3WQDWRNKPOGTE98F0LXSLB,3,4
226,2,object_02,object_09,128.16999999993,3,2,358.02000000002,0.1111111111111111,1,object_08,5,3039,0,1,4,forest_8,2,memory-2step-stake-s,726,2800625,0.0-19.0-0.1-0.226,A2H2DJL45BZBD,3VGZ74AYUJWEHZMTR9OBXS32OP2GCF,31HQ4X3T3WQDWRNKPOGTE98F0LXSLB,4,3
227,2,object_09,object_02,128.91500000097,4,2,6.1349999997765,0.5555555555555556,2,object_05,5,3064,0,2,5,forest_8,2,memory-2step-stake-s,727,2808338,0.0-19.0-0.1-0.227,A2H2DJL45BZBD,3VGZ74AYUJWEHZMTR9OBXS32OP2GCF,31HQ4X3T3WQDWRNKPOGTE98F0LXSLB,3,4
228,2,object_09,object_02,176.18000000017,4,2,317.98999999976,0.4444444444444444,2,object_05,5,3084,0,4,4,forest_8,2,memory-2step-stake-s,728,2816262,0.0-19.0-0.1-0.228,A2H2DJL45BZBD,3VGZ74AYUJWEHZMTR9OBXS32OP2GCF,31HQ4X3T3WQDWRNKPOGTE98F0LXSLB,3,4
229,2,object_09,object_02,44.69000000041,4,2,26.240000001155,0.3333333333333333,2,object_05,5,3099,0,5,3,forest_3,2,memory-2step-stake-s,729,2823794,0.0-19.0-0.1-0.229,A2H2DJL45BZBD,3VGZ74AYUJWEHZMTR9OBXS32OP2GCF,31HQ4X3T3WQDWRNKPOGTE98F0LXSLB,3,4
230,2,object_02,object_09,488.66000000061,3,2,485.81499999994,1.0,1,object_08,1,3108,0,9,3,forest_6,2,memory-2step-stake-s,730,2832387,0.0-19.0-0.1-0.230,A2H2DJL45BZBD,3VGZ74AYUJWEHZMTR9OBXS32OP2GCF,31HQ4X3T3WQDWRNKPOGTE98F0LXSLB,4,3
231,4,object_10,object_04,55.269999999087,7,1,20.710000000428,0.8888888888888888,1,object_08,1,3116,0,8,8,restaurant_6,2,memory-2step-stake-s,731,2840415,0.0-19.0-0.1-0.231,A2H2DJL45BZBD,3VGZ74AYUJWEHZMTR9OBXS32OP2GCF,31HQ4X3T3WQDWRNKPOGTE98F0LXSLB,7,8
232,3,object_06,object_01,419.22499999963,6,1,984.7500000014,0.7777777777777778,2,object_05,1,3123,0,5,7,library_6,2,memory-2step-stake-s,732,2849307,0.0-19.0-0.1-0.232,A2H2DJL45BZBD,3VGZ74AYUJWEHZMTR9OBXS32OP2GCF,31HQ4X3T3WQDWRNKPOGTE98F0LXSLB,6,5
233,1,object_03,object_07,135.51500000013,1,1,53.284999999683,0.7777777777777778,1,object_08,5,3158,0,7,8,desert_8,2,memory-2step-stake-s,733,2857266,0.0-19.0-0.1-0.233,A2H2DJL45BZBD,3VGZ74AYUJWEHZMTR9OBXS32OP2GCF,31HQ4X3T3WQDWRNKPOGTE98F0LXSLB,1,2
234,1,object_03,object_07,103.93999999901,1,1,60.490000000224,0.6666666666666666,1,object_08,1,3164,0,6,5,desert_8,2,memory-2step-stake-s,734,2865134,0.0-19.0-0.1-0.234,A2H2DJL45BZBD,3VGZ74AYUJWEHZMTR9OBXS32OP2GCF,31HQ4X3T3WQDWRNKPOGTE98F0LXSLB,1,2
235,3,object_01,object_06,219.73999999836,5,1,817.22500000056,0.8888888888888888,1,object_08,1,3172,0,8,7,library_4,2,memory-2step-stake-s,735,2873958,0.0-19.0-0.1-0.235,A2H2DJL45BZBD,3VGZ74AYUJWEHZMTR9OBXS32OP2GCF,31HQ4X3T3WQDWRNKPOGTE98F0LXSLB,5,6
236,2,object_02,object_09,27.725000000093,3,2,120.8200000003,1.0,1,object_08,1,3181,0,9,9,forest_6,2,memory-2step-stake-s,736,2882187,0.0-19.0-0.1-0.236,A2H2DJL45BZBD,3VGZ74AYUJWEHZMTR9OBXS32OP2GCF,31HQ4X3T3WQDWRNKPOGTE98F0LXSLB,4,3
237,3,object_06,object_01,71.845000000205,5,2,4.9399999990128,0.7777777777777778,1,object_08,1,3188,0,7,6,library_7,2,memory-2step-stake-s,737,2890098,0.0-19.0-0.1-0.237,A2H2DJL45BZBD,3VGZ74AYUJWEHZMTR9OBXS32OP2GCF,31HQ4X3T3WQDWRNKPOGTE98F0LXSLB,6,5
238,1,object_03,object_07,295.84000000078,2,2,324.90999999922,0.5555555555555556,2,object_05,5,3213,0,5,5,desert_6,2,memory-2step-stake-s,738,2898130,0.0-19.0-0.1-0.238,A2H2DJL45BZBD,3VGZ74AYUJWEHZMTR9OBXS32OP2GCF,31HQ4X3T3WQDWRNKPOGTE98F0LXSLB,1,2
239,4,object_04,object_10,376.48499999894,7,2,437.56000000052,0.2222222222222222,1,object_08,5,3223,0,2,4,restaurant_2,2,memory-2step-stake-s,739,2905974,0.0-19.0-0.1-0.239,A2H2DJL45BZBD,3VGZ74AYUJWEHZMTR9OBXS32OP2GCF,31HQ4X3T3WQDWRNKPOGTE98F0LXSLB,8,7
240,2,object_02,object_09,420.22499999963,3,2,442.27499999944,0.6666666666666666,1,object_08,5,3253,0,6,4,forest_8,2,memory-2step-stake-s,740,2914222,0.0-19.0-0.1-0.240,A2H2DJL45BZBD,3VGZ74AYUJWEHZMTR9OBXS32OP2GCF,31HQ4X3T3WQDWRNKPOGTE98F0LXSLB,4,3
241,1,object_03,object_07,404.08000000054,2,2,537.89000000153,0.3333333333333333,2,object_05,5,3268,0,4,3,desert_2,2,memory-2step-stake-s,741,2922265,0.0-19.0-0.1-0.241,A2H2DJL45BZBD,3VGZ74AYUJWEHZMTR9OBXS32OP2GCF,31HQ4X3T3WQDWRNKPOGTE98F0LXSLB,1,2
242,3,object_01,object_06,1.0200000000186,6,2,111.03500000015,0.3333333333333333,2,object_05,1,3271,0,1,3,library_6,2,memory-2step-stake-s,742,2929882,0.0-19.0-0.1-0.242,A2H2DJL45BZBD,3VGZ74AYUJWEHZMTR9OBXS32OP2GCF,31HQ4X3T3WQDWRNKPOGTE98F0LXSLB,5,6
243,2,object_02,object_09,336.57000000123,4,1,559.28500000155,0.2222222222222222,2,object_05,5,3281,0,1,2,forest_2,2,memory-2step-stake-s,743,2937847,0.0-19.0-0.1-0.243,A2H2DJL45BZBD,3VGZ74AYUJWEHZMTR9OBXS32OP2GCF,31HQ4X3T3WQDWRNKPOGTE98F0LXSLB,4,3
244,2,object_09,object_02,235.5699999989,3,1,361.28500000061,0.3333333333333333,1,object_08,5,3296,0,3,2,forest_6,2,memory-2step-stake-s,744,2945714,0.0-19.0-0.1-0.244,A2H2DJL45BZBD,3VGZ74AYUJWEHZMTR9OBXS32OP2GCF,31HQ4X3T3WQDWRNKPOGTE98F0LXSLB,3,4
245,3,object_01,object_06,919.81999999937,5,1,1237.4199999995,0.2222222222222222,1,object_08,1,3298,0,2,2,library_7,2,memory-2step-stake-s,745,2954358,0.0-19.0-0.1-0.245,A2H2DJL45BZBD,3VGZ74AYUJWEHZMTR9OBXS32OP2GCF,31HQ4X3T3WQDWRNKPOGTE98F0LXSLB,5,6
246,2,object_02,object_09,901.23999999929,4,1,442.55999999959,0.1111111111111111,2,object_05,5,3303,0,2,1,forest_3,2,memory-2step-stake-s,746,2962105,0.0-19.0-0.1-0.246,A2H2DJL45BZBD,3VGZ74AYUJWEHZMTR9OBXS32OP2GCF,31HQ4X3T3WQDWRNKPOGTE98F0LXSLB,4,3
247,3,object_06,object_01,888.93500000099,6,1,606.11000000034,0.1111111111111111,2,object_05,1,3304,0,1,1,library_7,2,memory-2step-stake-s,747,2970017,0.0-19.0-0.1-0.247,A2H2DJL45BZBD,3VGZ74AYUJWEHZMTR9OBXS32OP2GCF,31HQ4X3T3WQDWRNKPOGTE98F0LXSLB,6,5
248,3,object_06,object_01,304.76000000071,6,1,29.935000000522,0.3333333333333333,2,object_05,1,3307,0,4,3,library_4,2,memory-2step-stake-s,748,2977553,0.0-19.0-0.1-0.248,A2H2DJL45BZBD,3VGZ74AYUJWEHZMTR9OBXS32OP2GCF,31HQ4X3T3WQDWRNKPOGTE98F0LXSLB,6,5
249,1,object_07,object_03,320.64500000002,2,1,46.029999999795,0.3333333333333333,2,object_05,1,3310,0,5,3,desert_2,2,memory-2step-stake-s,749,2985105,0.0-19.0-0.1-0.249,A2H2DJL45BZBD,3VGZ74AYUJWEHZMTR9OBXS32OP2GCF,31HQ4X3T3WQDWRNKPOGTE98F0LXSLB,2,1
250,4,object_10,object_04,73.080000000075,7,1,22.89000000013,0.3333333333333333,1,object_08,5,3325,0,3,2,restaurant_5,2,memory-2step-stake-s,750,2992634,0.0-19.0-0.1-0.250,A2H2DJL45BZBD,3VGZ74AYUJWEHZMTR9OBXS32OP2GCF,31HQ4X3T3WQDWRNKPOGTE98F0LXSLB,7,8
251,1,object_03,object_07,-1.0,-1,-1,-1.0,0.0,-,0,1,3325,0,2,3,desert_1,2,memory-2step-stake-s,751,2999137,0.0-19.0-0.1-0.251,A2H2DJL45BZBD,3VGZ74AYUJWEHZMTR9OBXS32OP2GCF,31HQ4X3T3WQDWRNKPOGTE98F0LXSLB,1,2
252,1,object_03,object_07,97.394999999087,1,1,7.0100000011735,0.2222222222222222,1,object_08,5,3335,0,2,6,desert_8,2,memory-2step-stake-s,752,3006549,0.0-19.0-0.1-0.252,A2H2DJL45BZBD,3VGZ74AYUJWEHZMTR9OBXS32OP2GCF,31HQ4X3T3WQDWRNKPOGTE98F0LXSLB,1,2
253,3,object_01,object_06,188.87999999942,5,1,41.139999999199,0.0,1,object_08,1,3335,0,0,9,library_4,2,memory-2step-stake-s,753,3013797,0.0-19.0-0.1-0.253,A2H2DJL45BZBD,3VGZ74AYUJWEHZMTR9OBXS32OP2GCF,31HQ4X3T3WQDWRNKPOGTE98F0LXSLB,5,6
254,3,object_06,object_01,37.110000001267,5,2,1187.1499999999,0.2222222222222222,1,object_08,1,3337,0,2,8,library_4,2,memory-2step-stake-s,754,3022389,0.0-19.0-0.1-0.254,A2H2DJL45BZBD,3VGZ74AYUJWEHZMTR9OBXS32OP2GCF,31HQ4X3T3WQDWRNKPOGTE98F0LXSLB,6,5
255,1,object_03,object_07,476.97999999952,2,2,825.69499999937,0.6666666666666666,2,object_05,5,3367,0,1,6,desert_8,2,memory-2step-stake-s,755,3031022,0.0-19.0-0.1-0.255,A2H2DJL45BZBD,3VGZ74AYUJWEHZMTR9OBXS32OP2GCF,31HQ4X3T3WQDWRNKPOGTE98F0LXSLB,1,2
