,state1,stim_left,stim_right,rt_1,choice1,response1,rt_2,points,state2,stim_state2,stake,score,practice,rews1,rews2,background,high_arm,trial_type,trial_index,time_elapsed,internal_node_id,subid,hitid,assignmentid,stim_left_num,stim_right_num
0,2,object_04,object_06,783.20000004768,3,2,-1.0,0.0,1,object_08,1,0,0,0,3,forest_4,1,memory-2step-stake-s,499,1569981,0.0-19.0-0.0-0.0,A17K1CHOI773VZ,3SNR5F7RA597AOC2DOU98SGLOEGIEB,35USIKEBNVWYXTS8UOT5QWGCNTKN6A,4,3
1,4,object_02,object_10,625.89999997616,8,1,441.39999997616,0.2222222222222222,2,object_07,5,10,0,2,2,restaurant_6,1,memory-2step-stake-s,500,1577903,0.0-19.0-0.0-0.1,A17K1CHOI773VZ,3SNR5F7RA597AOC2DOU98SGLOEGIEB,35USIKEBNVWYXTS8UOT5QWGCNTKN6A,8,7
2,4,object_02,object_10,1060.2000000477,7,2,463.39999997616,0.2222222222222222,1,object_08,5,20,0,2,0,restaurant_8,1,memory-2step-stake-s,501,1585839,0.0-19.0-0.0-0.2,A17K1CHOI773VZ,3SNR5F7RA597AOC2DOU98SGLOEGIEB,35USIKEBNVWYXTS8UOT5QWGCNTKN6A,8,7
3,1,object_09,object_01,1432.2000000477,1,1,492.89999997616,0.2222222222222222,1,object_08,5,30,0,2,3,desert_1,1,memory-2step-stake-s,502,1593799,0.0-19.0-0.0-0.3,A17K1CHOI773VZ,3SNR5F7RA597AOC2DOU98SGLOEGIEB,35USIKEBNVWYXTS8UOT5QWGCNTKN6A,1,2
4,2,object_06,object_04,998.39999997616,3,1,767.89999997616,0.3333333333333333,1,object_08,1,33,0,3,2,forest_4,1,memory-2step-stake-s,503,1602138,0.0-19.0-0.0-0.4,A17K1CHOI773VZ,3SNR5F7RA597AOC2DOU98SGLOEGIEB,35USIKEBNVWYXTS8UOT5QWGCNTKN6A,3,4
5,4,object_02,object_10,928.79999995232,7,2,807.90000009537,0.2222222222222222,1,object_08,5,43,0,2,3,restaurant_2,1,memory-2step-stake-s,504,1610430,0.0-19.0-0.0-0.5,A17K1CHOI773VZ,3SNR5F7RA597AOC2DOU98SGLOEGIEB,35USIKEBNVWYXTS8UOT5QWGCNTKN6A,8,7
6,2,object_06,object_04,1138.7999999523,4,2,712.0,0.1111111111111111,2,object_07,1,44,0,4,1,forest_5,1,memory-2step-stake-s,505,1618522,0.0-19.0-0.0-0.6,A17K1CHOI773VZ,3SNR5F7RA597AOC2DOU98SGLOEGIEB,35USIKEBNVWYXTS8UOT5QWGCNTKN6A,3,4
7,1,object_09,object_01,1381.8999999762,2,2,527.70000004768,0.2222222222222222,2,object_07,5,54,0,3,2,desert_8,1,memory-2step-stake-s,506,1626525,0.0-19.0-0.0-0.7,A17K1CHOI773VZ,3SNR5F7RA597AOC2DOU98SGLOEGIEB,35USIKEBNVWYXTS8UOT5QWGCNTKN6A,1,2
8,3,object_05,object_03,1250.6999999285,6,2,674.79999995232,0.4444444444444444,2,object_07,5,74,0,4,4,library_1,1,memory-2step-stake-s,507,1634865,0.0-19.0-0.0-0.8,A17K1CHOI773VZ,3SNR5F7RA597AOC2DOU98SGLOEGIEB,35USIKEBNVWYXTS8UOT5QWGCNTKN6A,5,6
9,3,object_03,object_05,989.19999992847,5,2,763.29999995232,0.2222222222222222,1,object_08,5,84,0,2,7,library_7,1,memory-2step-stake-s,508,1643115,0.0-19.0-0.0-0.9,A17K1CHOI773VZ,3SNR5F7RA597AOC2DOU98SGLOEGIEB,35USIKEBNVWYXTS8UOT5QWGCNTKN6A,6,5
10,1,object_01,object_09,-1.0,-1,-1,-1.0,0.0,-,0,5,84,0,4,7,desert_1,1,memory-2step-stake-s,509,1649658,0.0-19.0-0.0-0.10,A17K1CHOI773VZ,3SNR5F7RA597AOC2DOU98SGLOEGIEB,35USIKEBNVWYXTS8UOT5QWGCNTKN6A,2,1
11,2,object_04,object_06,861.19999992847,4,1,480.5,0.6666666666666666,2,object_07,1,90,0,5,6,forest_5,1,memory-2step-stake-s,510,1658026,0.0-19.0-0.0-0.11,A17K1CHOI773VZ,3SNR5F7RA597AOC2DOU98SGLOEGIEB,35USIKEBNVWYXTS8UOT5QWGCNTKN6A,4,3
12,1,object_01,object_09,1140.1000000238,2,1,647.89999997616,0.6666666666666666,2,object_07,1,96,0,1,6,desert_5,1,memory-2step-stake-s,511,1666540,0.0-19.0-0.0-0.12,A17K1CHOI773VZ,3SNR5F7RA597AOC2DOU98SGLOEGIEB,35USIKEBNVWYXTS8UOT5QWGCNTKN6A,2,1
13,1,object_01,object_09,1035.4000000954,2,1,581.30000007153,1.0,2,object_07,1,105,0,1,9,desert_5,1,memory-2step-stake-s,512,1675355,0.0-19.0-0.0-0.13,A17K1CHOI773VZ,3SNR5F7RA597AOC2DOU98SGLOEGIEB,35USIKEBNVWYXTS8UOT5QWGCNTKN6A,2,1
14,2,object_04,object_06,886.29999995232,4,1,812.0,0.7777777777777778,2,object_07,1,112,0,0,7,forest_5,1,memory-2step-stake-s,513,1684171,0.0-19.0-0.0-0.14,A17K1CHOI773VZ,3SNR5F7RA597AOC2DOU98SGLOEGIEB,35USIKEBNVWYXTS8UOT5QWGCNTKN6A,4,3
15,4,object_02,object_10,1060.3999999762,7,2,430.79999995232,0.1111111111111111,1,object_08,5,117,0,1,4,restaurant_4,1,memory-2step-stake-s,514,1691980,0.0-19.0-0.0-0.15,A17K1CHOI773VZ,3SNR5F7RA597AOC2DOU98SGLOEGIEB,35USIKEBNVWYXTS8UOT5QWGCNTKN6A,8,7
16,4,object_02,object_10,727.10000002384,8,1,557.79999995232,0.2222222222222222,2,object_07,1,119,0,2,2,restaurant_4,1,memory-2step-stake-s,515,1700004,0.0-19.0-0.0-0.16,A17K1CHOI773VZ,3SNR5F7RA597AOC2DOU98SGLOEGIEB,35USIKEBNVWYXTS8UOT5QWGCNTKN6A,8,7
17,3,object_05,object_03,1240.5,5,1,496.29999995232,0.0,1,object_08,5,119,0,0,1,library_5,1,memory-2step-stake-s,516,1707761,0.0-19.0-0.0-0.17,A17K1CHOI773VZ,3SNR5F7RA597AOC2DOU98SGLOEGIEB,35USIKEBNVWYXTS8UOT5QWGCNTKN6A,5,6
18,3,object_05,object_03,1171.1000000238,6,2,370.0,0.4444444444444444,2,object_07,1,123,0,4,4,library_7,1,memory-2step-stake-s,517,1715811,0.0-19.0-0.0-0.18,A17K1CHOI773VZ,3SNR5F7RA597AOC2DOU98SGLOEGIEB,35USIKEBNVWYXTS8UOT5QWGCNTKN6A,5,6
19,3,object_03,object_05,1127.1000000238,6,1,932.79999995232,0.5555555555555556,2,object_07,5,148,0,5,5,library_5,1,memory-2step-stake-s,518,1724528,0.0-19.0-0.0-0.19,A17K1CHOI773VZ,3SNR5F7RA597AOC2DOU98SGLOEGIEB,35USIKEBNVWYXTS8UOT5QWGCNTKN6A,6,5
20,3,object_05,object_03,1173.5,6,2,528.29999995232,0.7777777777777778,2,object_07,5,183,0,5,7,library_7,1,memory-2step-stake-s,519,1733054,0.0-19.0-0.0-0.20,A17K1CHOI773VZ,3SNR5F7RA597AOC2DOU98SGLOEGIEB,35USIKEBNVWYXTS8UOT5QWGCNTKN6A,5,6
21,4,object_02,object_10,1010.5,7,2,533.20000004768,0.6666666666666666,1,object_08,5,213,0,6,6,restaurant_6,1,memory-2step-stake-s,520,1741468,0.0-19.0-0.0-0.21,A17K1CHOI773VZ,3SNR5F7RA597AOC2DOU98SGLOEGIEB,35USIKEBNVWYXTS8UOT5QWGCNTKN6A,8,7
22,2,object_06,object_04,794.89999997616,3,1,373.20000004768,0.6666666666666666,1,object_08,1,219,0,6,2,forest_4,1,memory-2step-stake-s,521,1749752,0.0-19.0-0.0-0.22,A17K1CHOI773VZ,3SNR5F7RA597AOC2DOU98SGLOEGIEB,35USIKEBNVWYXTS8UOT5QWGCNTKN6A,3,4
23,4,object_02,object_10,1361.8999999762,7,2,533.20000004768,0.7777777777777778,1,object_08,5,254,0,7,1,restaurant_4,1,memory-2step-stake-s,522,1758303,0.0-19.0-0.0-0.23,A17K1CHOI773VZ,3SNR5F7RA597AOC2DOU98SGLOEGIEB,35USIKEBNVWYXTS8UOT5QWGCNTKN6A,8,7
24,4,object_10,object_02,953.0,7,1,486.89999997616,0.6666666666666666,1,object_08,5,284,0,6,5,restaurant_2,1,memory-2step-stake-s,523,1766667,0.0-19.0-0.0-0.24,A17K1CHOI773VZ,3SNR5F7RA597AOC2DOU98SGLOEGIEB,35USIKEBNVWYXTS8UOT5QWGCNTKN6A,7,8
25,2,object_06,object_04,1140.2999999523,4,2,359.19999992847,0.7777777777777778,2,object_07,1,291,0,2,7,forest_6,1,memory-2step-stake-s,524,1775031,0.0-19.0-0.0-0.25,A17K1CHOI773VZ,3SNR5F7RA597AOC2DOU98SGLOEGIEB,35USIKEBNVWYXTS8UOT5QWGCNTKN6A,3,4
26,1,object_09,object_01,1344.6999999285,2,2,543.29999995232,1.0,2,object_07,1,300,0,1,9,desert_1,1,memory-2step-stake-s,525,1783780,0.0-19.0-0.0-0.26,A17K1CHOI773VZ,3SNR5F7RA597AOC2DOU98SGLOEGIEB,35USIKEBNVWYXTS8UOT5QWGCNTKN6A,1,2
27,4,object_02,object_10,977.39999997616,7,2,742.5,0.3333333333333333,1,object_08,5,315,0,3,8,restaurant_4,1,memory-2step-stake-s,526,1792123,0.0-19.0-0.0-0.27,A17K1CHOI773VZ,3SNR5F7RA597AOC2DOU98SGLOEGIEB,35USIKEBNVWYXTS8UOT5QWGCNTKN6A,8,7
28,3,object_05,object_03,1068.0,6,2,471.70000004768,0.7777777777777778,2,object_07,5,350,0,5,7,library_7,1,memory-2step-stake-s,527,1800578,0.0-19.0-0.0-0.28,A17K1CHOI773VZ,3SNR5F7RA597AOC2DOU98SGLOEGIEB,35USIKEBNVWYXTS8UOT5QWGCNTKN6A,5,6
29,2,object_06,object_04,1203.3999999762,4,2,513.5,0.6666666666666666,2,object_07,1,356,0,7,6,forest_7,1,memory-2step-stake-s,528,1809010,0.0-19.0-0.0-0.29,A17K1CHOI773VZ,3SNR5F7RA597AOC2DOU98SGLOEGIEB,35USIKEBNVWYXTS8UOT5QWGCNTKN6A,3,4
30,2,object_04,object_06,1101.3999999762,4,1,776.89999997616,0.6666666666666666,2,object_07,1,362,0,8,6,forest_4,1,memory-2step-stake-s,529,1817698,0.0-19.0-0.0-0.30,A17K1CHOI773VZ,3SNR5F7RA597AOC2DOU98SGLOEGIEB,35USIKEBNVWYXTS8UOT5QWGCNTKN6A,4,3
31,3,object_03,object_05,1120.2000000477,6,1,607.10000002384,0.8888888888888888,2,object_07,5,402,0,6,8,library_5,1,memory-2step-stake-s,530,1826412,0.0-19.0-0.0-0.31,A17K1CHOI773VZ,3SNR5F7RA597AOC2DOU98SGLOEGIEB,35USIKEBNVWYXTS8UOT5QWGCNTKN6A,6,5
32,4,object_10,object_02,1113.1000000238,7,1,690.0,0.6666666666666666,1,object_08,5,432,0,6,6,restaurant_4,1,memory-2step-stake-s,531,1834984,0.0-19.0-0.0-0.32,A17K1CHOI773VZ,3SNR5F7RA597AOC2DOU98SGLOEGIEB,35USIKEBNVWYXTS8UOT5QWGCNTKN6A,7,8
33,4,object_10,object_02,-1.0,-1,-1,-1.0,0.0,-,0,5,432,0,4,6,restaurant_2,1,memory-2step-stake-s,532,1841532,0.0-19.0-0.0-0.33,A17K1CHOI773VZ,3SNR5F7RA597AOC2DOU98SGLOEGIEB,35USIKEBNVWYXTS8UOT5QWGCNTKN6A,7,8
34,4,object_10,object_02,789.79999995232,7,1,821.10000002384,0.3333333333333333,1,object_08,5,447,0,3,8,restaurant_6,1,memory-2step-stake-s,533,1849954,0.0-19.0-0.0-0.34,A17K1CHOI773VZ,3SNR5F7RA597AOC2DOU98SGLOEGIEB,35USIKEBNVWYXTS8UOT5QWGCNTKN6A,7,8
35,3,object_03,object_05,781.60000002384,6,1,1274.2000000477,1.0,2,object_07,1,456,0,4,9,library_1,1,memory-2step-stake-s,534,1859414,0.0-19.0-0.0-0.35,A17K1CHOI773VZ,3SNR5F7RA597AOC2DOU98SGLOEGIEB,35USIKEBNVWYXTS8UOT5QWGCNTKN6A,6,5
36,2,object_06,object_04,1294.7000000477,4,2,422.60000002384,1.0,2,object_07,1,465,0,6,9,forest_5,1,memory-2step-stake-s,535,1868014,0.0-19.0-0.0-0.36,A17K1CHOI773VZ,3SNR5F7RA597AOC2DOU98SGLOEGIEB,35USIKEBNVWYXTS8UOT5QWGCNTKN6A,3,4
37,1,object_09,object_01,1193.2000000477,2,2,1236.6000000238,0.8888888888888888,2,object_07,5,505,0,4,8,desert_2,1,memory-2step-stake-s,536,1877340,0.0-19.0-0.0-0.37,A17K1CHOI773VZ,3SNR5F7RA597AOC2DOU98SGLOEGIEB,35USIKEBNVWYXTS8UOT5QWGCNTKN6A,1,2
38,3,object_05,object_03,1317.2999999523,6,2,878.79999995232,0.5555555555555556,2,object_07,1,510,0,3,5,library_2,1,memory-2step-stake-s,537,1886016,0.0-19.0-0.0-0.38,A17K1CHOI773VZ,3SNR5F7RA597AOC2DOU98SGLOEGIEB,35USIKEBNVWYXTS8UOT5QWGCNTKN6A,5,6
39,2,object_04,object_06,947.20000004768,4,1,465.5,0.3333333333333333,2,object_07,1,513,0,2,3,forest_5,1,memory-2step-stake-s,538,1894049,0.0-19.0-0.0-0.39,A17K1CHOI773VZ,3SNR5F7RA597AOC2DOU98SGLOEGIEB,35USIKEBNVWYXTS8UOT5QWGCNTKN6A,4,3
40,2,object_06,object_04,863.39999997616,4,2,365.0,0.5555555555555556,2,object_07,1,518,0,1,5,forest_6,1,memory-2step-stake-s,539,1902204,0.0-19.0-0.0-0.40,A17K1CHOI773VZ,3SNR5F7RA597AOC2DOU98SGLOEGIEB,35USIKEBNVWYXTS8UOT5QWGCNTKN6A,3,4
41,2,object_06,object_04,1002.7999999523,4,2,626.20000004768,0.3333333333333333,2,object_07,1,521,0,4,3,forest_4,1,memory-2step-stake-s,540,1910388,0.0-19.0-0.0-0.41,A17K1CHOI773VZ,3SNR5F7RA597AOC2DOU98SGLOEGIEB,35USIKEBNVWYXTS8UOT5QWGCNTKN6A,3,4
42,4,object_10,object_02,851.30000007153,7,1,403.0,0.4444444444444444,1,object_08,5,541,0,4,2,restaurant_6,1,memory-2step-stake-s,541,1918460,0.0-19.0-0.0-0.42,A17K1CHOI773VZ,3SNR5F7RA597AOC2DOU98SGLOEGIEB,35USIKEBNVWYXTS8UOT5QWGCNTKN6A,7,8
43,3,object_05,object_03,776.69999992847,6,2,630.90000009537,0.4444444444444444,2,object_07,1,545,0,6,4,library_5,1,memory-2step-stake-s,542,1926790,0.0-19.0-0.0-0.43,A17K1CHOI773VZ,3SNR5F7RA597AOC2DOU98SGLOEGIEB,35USIKEBNVWYXTS8UOT5QWGCNTKN6A,5,6
44,4,object_10,object_02,851.80000007153,7,1,494.39999997616,1.0,1,object_08,5,590,0,9,6,restaurant_4,1,memory-2step-stake-s,543,1935520,0.0-19.0-0.0-0.44,A17K1CHOI773VZ,3SNR5F7RA597AOC2DOU98SGLOEGIEB,35USIKEBNVWYXTS8UOT5QWGCNTKN6A,7,8
45,2,object_06,object_04,826.20000004768,4,2,660.29999995232,0.4444444444444444,2,object_07,1,594,0,9,4,forest_7,1,memory-2step-stake-s,544,1943855,0.0-19.0-0.0-0.45,A17K1CHOI773VZ,3SNR5F7RA597AOC2DOU98SGLOEGIEB,35USIKEBNVWYXTS8UOT5QWGCNTKN6A,3,4
46,2,object_04,object_06,682.79999995232,4,1,511.0,0.4444444444444444,2,object_07,1,598,0,9,4,forest_5,1,memory-2step-stake-s,545,1952050,0.0-19.0-0.0-0.46,A17K1CHOI773VZ,3SNR5F7RA597AOC2DOU98SGLOEGIEB,35USIKEBNVWYXTS8UOT5QWGCNTKN6A,4,3
47,3,object_03,object_05,648.20000004768,6,1,556.20000004768,0.3333333333333333,2,object_07,1,601,0,6,3,library_2,1,memory-2step-stake-s,546,1960183,0.0-19.0-0.0-0.47,A17K1CHOI773VZ,3SNR5F7RA597AOC2DOU98SGLOEGIEB,35USIKEBNVWYXTS8UOT5QWGCNTKN6A,6,5
48,3,object_05,object_03,651.29999995232,6,2,333.59999990463,0.3333333333333333,2,object_07,5,616,0,4,3,library_7,1,memory-2step-stake-s,547,1968098,0.0-19.0-0.0-0.48,A17K1CHOI773VZ,3SNR5F7RA597AOC2DOU98SGLOEGIEB,35USIKEBNVWYXTS8UOT5QWGCNTKN6A,5,6
49,2,object_04,object_06,756.40000009537,4,1,568.19999992847,0.3333333333333333,2,object_07,1,619,0,7,3,forest_7,1,memory-2step-stake-s,548,1976228,0.0-19.0-0.0-0.49,A17K1CHOI773VZ,3SNR5F7RA597AOC2DOU98SGLOEGIEB,35USIKEBNVWYXTS8UOT5QWGCNTKN6A,4,3
50,4,object_02,object_10,1276.2000000477,7,2,500.60000002384,1.0,1,object_08,5,664,0,9,4,restaurant_2,1,memory-2step-stake-s,549,1984926,0.0-19.0-0.0-0.50,A17K1CHOI773VZ,3SNR5F7RA597AOC2DOU98SGLOEGIEB,35USIKEBNVWYXTS8UOT5QWGCNTKN6A,8,7
51,1,object_09,object_01,878.29999995232,2,2,447.30000007153,0.1111111111111111,2,object_07,1,665,0,8,1,desert_5,1,memory-2step-stake-s,550,1992727,0.0-19.0-0.0-0.51,A17K1CHOI773VZ,3SNR5F7RA597AOC2DOU98SGLOEGIEB,35USIKEBNVWYXTS8UOT5QWGCNTKN6A,1,2
52,3,object_05,object_03,910.19999992847,6,2,394.29999995232,0.5555555555555556,2,object_07,5,690,0,9,5,library_5,1,memory-2step-stake-s,551,2000922,0.0-19.0-0.0-0.52,A17K1CHOI773VZ,3SNR5F7RA597AOC2DOU98SGLOEGIEB,35USIKEBNVWYXTS8UOT5QWGCNTKN6A,5,6
53,1,object_09,object_01,987.40000009537,2,2,510.39999997616,0.6666666666666666,2,object_07,1,696,0,9,6,desert_2,1,memory-2step-stake-s,552,2009335,0.0-19.0-0.0-0.53,A17K1CHOI773VZ,3SNR5F7RA597AOC2DOU98SGLOEGIEB,35USIKEBNVWYXTS8UOT5QWGCNTKN6A,1,2
54,1,object_01,object_09,961.10000002384,2,1,1212.6999999285,1.0,2,object_07,1,705,0,8,9,desert_8,1,memory-2step-stake-s,553,2018748,0.0-19.0-0.0-0.54,A17K1CHOI773VZ,3SNR5F7RA597AOC2DOU98SGLOEGIEB,35USIKEBNVWYXTS8UOT5QWGCNTKN6A,2,1
55,2,object_04,object_06,911.10000002384,4,1,543.0,0.8888888888888888,2,object_07,1,713,0,7,8,forest_7,1,memory-2step-stake-s,554,2027407,0.0-19.0-0.0-0.55,A17K1CHOI773VZ,3SNR5F7RA597AOC2DOU98SGLOEGIEB,35USIKEBNVWYXTS8UOT5QWGCNTKN6A,4,3
56,1,object_01,object_09,615.60000002384,2,1,467.29999995232,1.0,2,object_07,1,722,0,7,9,desert_1,1,memory-2step-stake-s,555,2036055,0.0-19.0-0.0-0.56,A17K1CHOI773VZ,3SNR5F7RA597AOC2DOU98SGLOEGIEB,35USIKEBNVWYXTS8UOT5QWGCNTKN6A,2,1
57,1,object_01,object_09,638.5,2,1,497.89999997616,0.6666666666666666,2,object_07,1,728,0,8,6,desert_8,1,memory-2step-stake-s,556,2044435,0.0-19.0-0.0-0.57,A17K1CHOI773VZ,3SNR5F7RA597AOC2DOU98SGLOEGIEB,35USIKEBNVWYXTS8UOT5QWGCNTKN6A,2,1
58,2,object_06,object_04,989.89999997616,4,2,527.09999990463,0.6666666666666666,2,object_07,1,734,0,8,6,forest_7,1,memory-2step-stake-s,557,2052871,0.0-19.0-0.0-0.58,A17K1CHOI773VZ,3SNR5F7RA597AOC2DOU98SGLOEGIEB,35USIKEBNVWYXTS8UOT5QWGCNTKN6A,3,4
59,3,object_05,object_03,992.69999992847,6,2,623.39999997616,0.6666666666666666,2,object_07,5,764,0,9,6,library_2,1,memory-2step-stake-s,558,2061406,0.0-19.0-0.0-0.59,A17K1CHOI773VZ,3SNR5F7RA597AOC2DOU98SGLOEGIEB,35USIKEBNVWYXTS8UOT5QWGCNTKN6A,5,6
60,1,object_09,object_01,812.69999992847,2,2,521.60000002384,0.8888888888888888,2,object_07,5,804,0,6,8,desert_8,1,memory-2step-stake-s,559,2070023,0.0-19.0-0.0-0.60,A17K1CHOI773VZ,3SNR5F7RA597AOC2DOU98SGLOEGIEB,35USIKEBNVWYXTS8UOT5QWGCNTKN6A,1,2
61,1,object_09,object_01,802.39999997616,2,2,536.60000002384,0.8888888888888888,2,object_07,1,812,0,8,8,desert_5,1,memory-2step-stake-s,560,2078674,0.0-19.0-0.0-0.61,A17K1CHOI773VZ,3SNR5F7RA597AOC2DOU98SGLOEGIEB,35USIKEBNVWYXTS8UOT5QWGCNTKN6A,1,2
62,1,object_09,object_01,664.10000002384,2,2,528.60000002384,0.8888888888888888,2,object_07,1,820,0,9,8,desert_5,1,memory-2step-stake-s,561,2087328,0.0-19.0-0.0-0.62,A17K1CHOI773VZ,3SNR5F7RA597AOC2DOU98SGLOEGIEB,35USIKEBNVWYXTS8UOT5QWGCNTKN6A,1,2
63,3,object_03,object_05,1039.3000000715,6,1,473.5,0.7777777777777778,2,object_07,5,855,0,7,7,library_2,1,memory-2step-stake-s,562,2095810,0.0-19.0-0.0-0.63,A17K1CHOI773VZ,3SNR5F7RA597AOC2DOU98SGLOEGIEB,35USIKEBNVWYXTS8UOT5QWGCNTKN6A,6,5
64,2,object_06,object_04,1324.3999999762,4,2,465.70000004768,0.6666666666666666,2,object_07,1,861,0,3,6,forest_7,1,memory-2step-stake-s,563,2104193,0.0-19.0-0.0-0.64,A17K1CHOI773VZ,3SNR5F7RA597AOC2DOU98SGLOEGIEB,35USIKEBNVWYXTS8UOT5QWGCNTKN6A,3,4
65,1,object_01,object_09,657.39999997616,2,1,500.70000004768,0.3333333333333333,2,object_07,1,864,0,2,3,desert_8,1,memory-2step-stake-s,564,2112268,0.0-19.0-0.0-0.65,A17K1CHOI773VZ,3SNR5F7RA597AOC2DOU98SGLOEGIEB,35USIKEBNVWYXTS8UOT5QWGCNTKN6A,2,1
66,2,object_06,object_04,1104.1999999285,4,2,555.79999995232,0.7777777777777778,2,object_07,1,871,0,2,7,forest_5,1,memory-2step-stake-s,565,2120812,0.0-19.0-0.0-0.66,A17K1CHOI773VZ,3SNR5F7RA597AOC2DOU98SGLOEGIEB,35USIKEBNVWYXTS8UOT5QWGCNTKN6A,3,4
67,4,object_02,object_10,1217.6000000238,7,2,351.89999997616,0.3333333333333333,1,object_08,5,886,0,3,7,restaurant_2,1,memory-2step-stake-s,566,2128735,0.0-19.0-0.0-0.67,A17K1CHOI773VZ,3SNR5F7RA597AOC2DOU98SGLOEGIEB,35USIKEBNVWYXTS8UOT5QWGCNTKN6A,8,7
68,2,object_06,object_04,911.10000002384,4,2,533.89999997616,1.0,2,object_07,1,895,0,3,9,forest_5,1,memory-2step-stake-s,567,2137479,0.0-19.0-0.0-0.68,A17K1CHOI773VZ,3SNR5F7RA597AOC2DOU98SGLOEGIEB,35USIKEBNVWYXTS8UOT5QWGCNTKN6A,3,4
69,2,object_04,object_06,737.39999997616,4,1,656.79999995232,0.8888888888888888,2,object_07,5,935,0,5,8,forest_7,1,memory-2step-stake-s,568,2146219,0.0-19.0-0.0-0.69,A17K1CHOI773VZ,3SNR5F7RA597AOC2DOU98SGLOEGIEB,35USIKEBNVWYXTS8UOT5QWGCNTKN6A,4,3
70,3,object_05,object_03,758.19999992847,6,2,670.29999995232,1.0,2,object_07,5,980,0,4,9,library_5,1,memory-2step-stake-s,569,2155100,0.0-19.0-0.0-0.70,A17K1CHOI773VZ,3SNR5F7RA597AOC2DOU98SGLOEGIEB,35USIKEBNVWYXTS8UOT5QWGCNTKN6A,5,6
71,1,object_01,object_09,580.79999995232,2,1,490.19999992847,1.0,2,object_07,1,989,0,4,9,desert_2,1,memory-2step-stake-s,570,2163755,0.0-19.0-0.0-0.71,A17K1CHOI773VZ,3SNR5F7RA597AOC2DOU98SGLOEGIEB,35USIKEBNVWYXTS8UOT5QWGCNTKN6A,2,1
72,1,object_01,object_09,662.79999995232,2,1,512.69999992847,0.6666666666666666,2,object_07,1,995,0,5,6,desert_5,1,memory-2step-stake-s,571,2172142,0.0-19.0-0.0-0.72,A17K1CHOI773VZ,3SNR5F7RA597AOC2DOU98SGLOEGIEB,35USIKEBNVWYXTS8UOT5QWGCNTKN6A,2,1
73,4,object_02,object_10,1060.1000000238,7,2,535.19999992847,0.4444444444444444,1,object_08,1,999,0,4,5,restaurant_6,1,memory-2step-stake-s,572,2180403,0.0-19.0-0.0-0.73,A17K1CHOI773VZ,3SNR5F7RA597AOC2DOU98SGLOEGIEB,35USIKEBNVWYXTS8UOT5QWGCNTKN6A,8,7
74,3,object_05,object_03,975.60000002384,6,2,482.5,0.3333333333333333,2,object_07,5,1014,0,4,3,library_2,1,memory-2step-stake-s,573,2188464,0.0-19.0-0.0-0.74,A17K1CHOI773VZ,3SNR5F7RA597AOC2DOU98SGLOEGIEB,35USIKEBNVWYXTS8UOT5QWGCNTKN6A,5,6
75,3,object_03,object_05,728.19999992847,6,1,548.60000002384,0.2222222222222222,2,object_07,5,1024,0,3,2,library_5,1,memory-2step-stake-s,574,2196479,0.0-19.0-0.0-0.75,A17K1CHOI773VZ,3SNR5F7RA597AOC2DOU98SGLOEGIEB,35USIKEBNVWYXTS8UOT5QWGCNTKN6A,6,5
76,3,object_03,object_05,756.90000009537,6,1,555.0,0.4444444444444444,2,object_07,1,1028,0,1,4,library_2,1,memory-2step-stake-s,575,2204726,0.0-19.0-0.0-0.76,A17K1CHOI773VZ,3SNR5F7RA597AOC2DOU98SGLOEGIEB,35USIKEBNVWYXTS8UOT5QWGCNTKN6A,6,5
77,3,object_03,object_05,739.80000007153,6,1,543.60000002384,0.3333333333333333,2,object_07,5,1043,0,0,3,library_7,1,memory-2step-stake-s,576,2212840,0.0-19.0-0.0-0.77,A17K1CHOI773VZ,3SNR5F7RA597AOC2DOU98SGLOEGIEB,35USIKEBNVWYXTS8UOT5QWGCNTKN6A,6,5
78,4,object_02,object_10,883.0,7,2,925.70000004768,0.0,1,object_08,1,1043,0,0,5,restaurant_4,1,memory-2step-stake-s,577,2221024,0.0-19.0-0.0-0.78,A17K1CHOI773VZ,3SNR5F7RA597AOC2DOU98SGLOEGIEB,35USIKEBNVWYXTS8UOT5QWGCNTKN6A,8,7
79,1,object_09,object_01,808.70000004768,2,2,892.70000004768,1.0,2,object_07,5,1088,0,0,9,desert_1,1,memory-2step-stake-s,578,2230134,0.0-19.0-0.0-0.79,A17K1CHOI773VZ,3SNR5F7RA597AOC2DOU98SGLOEGIEB,35USIKEBNVWYXTS8UOT5QWGCNTKN6A,1,2
80,1,object_09,object_01,797.60000002384,2,2,498.80000007153,0.7777777777777778,2,object_07,1,1095,0,0,7,desert_5,1,memory-2step-stake-s,579,2238634,0.0-19.0-0.0-0.80,A17K1CHOI773VZ,3SNR5F7RA597AOC2DOU98SGLOEGIEB,35USIKEBNVWYXTS8UOT5QWGCNTKN6A,1,2
81,4,object_02,object_10,1043.1999999285,7,2,540.60000002384,0.2222222222222222,1,object_08,1,1097,0,2,9,restaurant_8,1,memory-2step-stake-s,580,2246620,0.0-19.0-0.0-0.81,A17K1CHOI773VZ,3SNR5F7RA597AOC2DOU98SGLOEGIEB,35USIKEBNVWYXTS8UOT5QWGCNTKN6A,8,7
82,2,object_06,object_04,970.79999995232,4,2,500.89999997616,1.0,2,object_07,1,1106,0,3,9,forest_4,1,memory-2step-stake-s,581,2255350,0.0-19.0-0.0-0.82,A17K1CHOI773VZ,3SNR5F7RA597AOC2DOU98SGLOEGIEB,35USIKEBNVWYXTS8UOT5QWGCNTKN6A,3,4
83,3,object_03,object_05,604.70000004768,6,1,875.10000002384,1.0,2,object_07,5,1151,0,2,9,library_2,1,memory-2step-stake-s,582,2264438,0.0-19.0-0.0-0.83,A17K1CHOI773VZ,3SNR5F7RA597AOC2DOU98SGLOEGIEB,35USIKEBNVWYXTS8UOT5QWGCNTKN6A,6,5
84,1,object_09,object_01,670.09999990463,2,2,939.40000009537,0.5555555555555556,2,object_07,1,1156,0,0,5,desert_1,1,memory-2step-stake-s,583,2273173,0.0-19.0-0.0-0.84,A17K1CHOI773VZ,3SNR5F7RA597AOC2DOU98SGLOEGIEB,35USIKEBNVWYXTS8UOT5QWGCNTKN6A,1,2
85,2,object_04,object_06,799.89999997616,4,1,487.0,0.7777777777777778,2,object_07,5,1191,0,4,7,forest_4,1,memory-2step-stake-s,584,2281678,0.0-19.0-0.0-0.85,A17K1CHOI773VZ,3SNR5F7RA597AOC2DOU98SGLOEGIEB,35USIKEBNVWYXTS8UOT5QWGCNTKN6A,4,3
86,3,object_03,object_05,637.5,6,1,709.70000004768,0.7777777777777778,2,object_07,5,1226,0,0,7,library_2,1,memory-2step-stake-s,585,2290379,0.0-19.0-0.0-0.86,A17K1CHOI773VZ,3SNR5F7RA597AOC2DOU98SGLOEGIEB,35USIKEBNVWYXTS8UOT5QWGCNTKN6A,6,5
87,3,object_05,object_03,846.69999992847,6,2,863.30000007153,0.5555555555555556,2,object_07,5,1251,0,1,5,library_1,1,memory-2step-stake-s,586,2299027,0.0-19.0-0.0-0.87,A17K1CHOI773VZ,3SNR5F7RA597AOC2DOU98SGLOEGIEB,35USIKEBNVWYXTS8UOT5QWGCNTKN6A,5,6
88,2,object_06,object_04,843.10000002384,4,2,521.0,0.5555555555555556,2,object_07,5,1276,0,2,5,forest_5,1,memory-2step-stake-s,587,2307304,0.0-19.0-0.0-0.88,A17K1CHOI773VZ,3SNR5F7RA597AOC2DOU98SGLOEGIEB,35USIKEBNVWYXTS8UOT5QWGCNTKN6A,3,4
89,3,object_03,object_05,613.5,6,1,597.10000002384,0.5555555555555556,2,object_07,5,1301,0,1,5,library_1,1,memory-2step-stake-s,588,2315712,0.0-19.0-0.0-0.89,A17K1CHOI773VZ,3SNR5F7RA597AOC2DOU98SGLOEGIEB,35USIKEBNVWYXTS8UOT5QWGCNTKN6A,6,5
90,2,object_04,object_06,970.0,4,1,565.59999990463,0.7777777777777778,2,object_07,1,1308,0,2,7,forest_7,1,memory-2step-stake-s,589,2324275,0.0-19.0-0.0-0.90,A17K1CHOI773VZ,3SNR5F7RA597AOC2DOU98SGLOEGIEB,35USIKEBNVWYXTS8UOT5QWGCNTKN6A,4,3
91,4,object_10,object_02,792.0,7,1,885.70000004768,0.1111111111111111,1,object_08,5,1313,0,1,8,restaurant_4,1,memory-2step-stake-s,590,2332540,0.0-19.0-0.0-0.91,A17K1CHOI773VZ,3SNR5F7RA597AOC2DOU98SGLOEGIEB,35USIKEBNVWYXTS8UOT5QWGCNTKN6A,7,8
92,3,object_05,object_03,991.70000004768,6,2,483.5,0.6666666666666666,2,object_07,5,1343,0,5,6,library_7,1,memory-2step-stake-s,591,2340913,0.0-19.0-0.0-0.92,A17K1CHOI773VZ,3SNR5F7RA597AOC2DOU98SGLOEGIEB,35USIKEBNVWYXTS8UOT5QWGCNTKN6A,5,6
93,4,object_02,object_10,880.0,7,2,441.89999997616,0.4444444444444444,1,object_08,5,1363,0,4,6,restaurant_2,1,memory-2step-stake-s,592,2349049,0.0-19.0-0.0-0.93,A17K1CHOI773VZ,3SNR5F7RA597AOC2DOU98SGLOEGIEB,35USIKEBNVWYXTS8UOT5QWGCNTKN6A,8,7
94,4,object_02,object_10,539.30000007153,7,2,155.90000009537,0.6666666666666666,1,object_08,5,1393,0,6,7,restaurant_6,1,memory-2step-stake-s,593,2357066,0.0-19.0-0.0-0.94,A17K1CHOI773VZ,3SNR5F7RA597AOC2DOU98SGLOEGIEB,35USIKEBNVWYXTS8UOT5QWGCNTKN6A,8,7
95,1,object_09,object_01,1337.8999999762,2,2,425.10000002384,1.0,2,object_07,1,1402,0,5,9,desert_8,1,memory-2step-stake-s,594,2365676,0.0-19.0-0.0-0.95,A17K1CHOI773VZ,3SNR5F7RA597AOC2DOU98SGLOEGIEB,35USIKEBNVWYXTS8UOT5QWGCNTKN6A,1,2
96,2,object_06,object_04,1224.2000000477,4,2,375.80000007153,1.0,2,object_07,1,1411,0,2,9,forest_5,1,memory-2step-stake-s,595,2374266,0.0-19.0-0.0-0.96,A17K1CHOI773VZ,3SNR5F7RA597AOC2DOU98SGLOEGIEB,35USIKEBNVWYXTS8UOT5QWGCNTKN6A,3,4
97,2,object_04,object_06,1118.8999999762,4,1,1207.0,0.7777777777777778,2,object_07,1,1418,0,0,7,forest_6,1,memory-2step-stake-s,596,2383453,0.0-19.0-0.0-0.97,A17K1CHOI773VZ,3SNR5F7RA597AOC2DOU98SGLOEGIEB,35USIKEBNVWYXTS8UOT5QWGCNTKN6A,4,3
98,4,object_02,object_10,930.10000002384,7,2,767.89999997616,0.1111111111111111,1,object_08,5,1423,0,1,6,restaurant_2,1,memory-2step-stake-s,597,2391582,0.0-19.0-0.0-0.98,A17K1CHOI773VZ,3SNR5F7RA597AOC2DOU98SGLOEGIEB,35USIKEBNVWYXTS8UOT5QWGCNTKN6A,8,7
99,3,object_03,object_05,725.39999997616,6,1,612.29999995232,0.7777777777777778,2,object_07,5,1458,0,0,7,library_5,1,memory-2step-stake-s,598,2400181,0.0-19.0-0.0-0.99,A17K1CHOI773VZ,3SNR5F7RA597AOC2DOU98SGLOEGIEB,35USIKEBNVWYXTS8UOT5QWGCNTKN6A,6,5
100,2,object_06,object_04,760.39999997616,4,2,493.0,0.8888888888888888,2,object_07,1,1466,0,2,8,forest_4,1,memory-2step-stake-s,599,2408737,0.0-19.0-0.0-0.100,A17K1CHOI773VZ,3SNR5F7RA597AOC2DOU98SGLOEGIEB,35USIKEBNVWYXTS8UOT5QWGCNTKN6A,3,4
101,3,object_03,object_05,720.70000004768,6,1,576.60000002384,0.7777777777777778,2,object_07,5,1501,0,5,7,library_5,1,memory-2step-stake-s,600,2417307,0.0-19.0-0.0-0.101,A17K1CHOI773VZ,3SNR5F7RA597AOC2DOU98SGLOEGIEB,35USIKEBNVWYXTS8UOT5QWGCNTKN6A,6,5
102,2,object_06,object_04,803.5,4,2,616.80000007153,0.4444444444444444,2,object_07,1,1505,0,8,4,forest_6,1,memory-2step-stake-s,601,2425583,0.0-19.0-0.0-0.102,A17K1CHOI773VZ,3SNR5F7RA597AOC2DOU98SGLOEGIEB,35USIKEBNVWYXTS8UOT5QWGCNTKN6A,3,4
103,1,object_01,object_09,662.69999992847,2,1,457.10000002384,0.3333333333333333,2,object_07,1,1508,0,6,3,desert_1,1,memory-2step-stake-s,602,2433616,0.0-19.0-0.0-0.103,A17K1CHOI773VZ,3SNR5F7RA597AOC2DOU98SGLOEGIEB,35USIKEBNVWYXTS8UOT5QWGCNTKN6A,2,1
104,4,object_10,object_02,924.0,7,1,553.5,0.8888888888888888,1,object_08,5,1548,0,8,4,restaurant_8,1,memory-2step-stake-s,603,2442288,0.0-19.0-0.0-0.104,A17K1CHOI773VZ,3SNR5F7RA597AOC2DOU98SGLOEGIEB,35USIKEBNVWYXTS8UOT5QWGCNTKN6A,7,8
105,4,object_10,object_02,650.59999990463,7,1,716.79999995232,0.8888888888888888,1,object_08,1,1556,0,8,4,restaurant_4,1,memory-2step-stake-s,604,2451134,0.0-19.0-0.0-0.105,A17K1CHOI773VZ,3SNR5F7RA597AOC2DOU98SGLOEGIEB,35USIKEBNVWYXTS8UOT5QWGCNTKN6A,7,8
106,4,object_02,object_10,619.19999992847,7,2,631.90000009537,0.7777777777777778,1,object_08,5,1591,0,7,2,restaurant_2,1,memory-2step-stake-s,605,2459763,0.0-19.0-0.0-0.106,A17K1CHOI773VZ,3SNR5F7RA597AOC2DOU98SGLOEGIEB,35USIKEBNVWYXTS8UOT5QWGCNTKN6A,8,7
107,1,object_09,object_01,1017.2000000477,2,2,1011.8999999762,0.4444444444444444,2,object_07,5,1611,0,6,4,desert_1,1,memory-2step-stake-s,606,2468438,0.0-19.0-0.0-0.107,A17K1CHOI773VZ,3SNR5F7RA597AOC2DOU98SGLOEGIEB,35USIKEBNVWYXTS8UOT5QWGCNTKN6A,1,2
108,4,object_10,object_02,662.80000007153,7,1,658.60000002384,0.8888888888888888,1,object_08,5,1651,0,8,1,restaurant_6,1,memory-2step-stake-s,607,2477172,0.0-19.0-0.0-0.108,A17K1CHOI773VZ,3SNR5F7RA597AOC2DOU98SGLOEGIEB,35USIKEBNVWYXTS8UOT5QWGCNTKN6A,7,8
109,3,object_05,object_03,818.70000004768,6,2,605.60000002384,0.4444444444444444,2,object_07,5,1671,0,6,4,library_2,1,memory-2step-stake-s,608,2485464,0.0-19.0-0.0-0.109,A17K1CHOI773VZ,3SNR5F7RA597AOC2DOU98SGLOEGIEB,35USIKEBNVWYXTS8UOT5QWGCNTKN6A,5,6
110,2,object_04,object_06,876.89999997616,4,1,538.19999992847,0.3333333333333333,2,object_07,1,1674,0,4,3,forest_5,1,memory-2step-stake-s,609,2493571,0.0-19.0-0.0-0.110,A17K1CHOI773VZ,3SNR5F7RA597AOC2DOU98SGLOEGIEB,35USIKEBNVWYXTS8UOT5QWGCNTKN6A,4,3
111,4,object_02,object_10,831.5,7,2,513.0,0.3333333333333333,1,object_08,1,1677,0,3,3,restaurant_8,1,memory-2step-stake-s,610,2501648,0.0-19.0-0.0-0.111,A17K1CHOI773VZ,3SNR5F7RA597AOC2DOU98SGLOEGIEB,35USIKEBNVWYXTS8UOT5QWGCNTKN6A,8,7
112,1,object_01,object_09,874.20000004768,2,1,494.70000004768,0.5555555555555556,2,object_07,5,1702,0,2,5,desert_8,1,memory-2step-stake-s,611,2509935,0.0-19.0-0.0-0.112,A17K1CHOI773VZ,3SNR5F7RA597AOC2DOU98SGLOEGIEB,35USIKEBNVWYXTS8UOT5QWGCNTKN6A,2,1
113,1,object_01,object_09,685.89999997616,2,1,533.30000007153,0.1111111111111111,2,object_07,1,1703,0,4,1,desert_1,1,memory-2step-stake-s,612,2517857,0.0-19.0-0.0-0.113,A17K1CHOI773VZ,3SNR5F7RA597AOC2DOU98SGLOEGIEB,35USIKEBNVWYXTS8UOT5QWGCNTKN6A,2,1
114,4,object_10,object_02,996.40000009537,7,1,618.79999995232,0.4444444444444444,1,object_08,5,1723,0,4,1,restaurant_8,1,memory-2step-stake-s,613,2526143,0.0-19.0-0.0-0.114,A17K1CHOI773VZ,3SNR5F7RA597AOC2DOU98SGLOEGIEB,35USIKEBNVWYXTS8UOT5QWGCNTKN6A,7,8
115,4,object_02,object_10,518.89999997616,7,2,561.0,0.2222222222222222,1,object_08,5,1733,0,2,1,restaurant_6,1,memory-2step-stake-s,614,2534191,0.0-19.0-0.0-0.115,A17K1CHOI773VZ,3SNR5F7RA597AOC2DOU98SGLOEGIEB,35USIKEBNVWYXTS8UOT5QWGCNTKN6A,8,7
116,4,object_02,object_10,573.79999995232,7,2,539.70000004768,0.1111111111111111,1,object_08,5,1738,0,1,2,restaurant_6,1,memory-2step-stake-s,615,2542102,0.0-19.0-0.0-0.116,A17K1CHOI773VZ,3SNR5F7RA597AOC2DOU98SGLOEGIEB,35USIKEBNVWYXTS8UOT5QWGCNTKN6A,8,7
117,4,object_10,object_02,606.10000002384,7,1,575.79999995232,0.3333333333333333,1,object_08,1,1741,0,3,1,restaurant_8,1,memory-2step-stake-s,616,2550232,0.0-19.0-0.0-0.117,A17K1CHOI773VZ,3SNR5F7RA597AOC2DOU98SGLOEGIEB,35USIKEBNVWYXTS8UOT5QWGCNTKN6A,7,8
118,1,object_09,object_01,668.10000002384,2,2,487.60000002384,0.2222222222222222,2,object_07,1,1743,0,6,2,desert_2,1,memory-2step-stake-s,617,2558192,0.0-19.0-0.0-0.118,A17K1CHOI773VZ,3SNR5F7RA597AOC2DOU98SGLOEGIEB,35USIKEBNVWYXTS8UOT5QWGCNTKN6A,1,2
119,3,object_05,object_03,806.5,6,2,502.10000002384,0.4444444444444444,2,object_07,5,1763,0,8,4,library_1,1,memory-2step-stake-s,618,2566370,0.0-19.0-0.0-0.119,A17K1CHOI773VZ,3SNR5F7RA597AOC2DOU98SGLOEGIEB,35USIKEBNVWYXTS8UOT5QWGCNTKN6A,5,6
120,4,object_02,object_10,992.70000004768,7,2,610.39999997616,0.7777777777777778,1,object_08,1,1770,0,7,6,restaurant_4,1,memory-2step-stake-s,619,2574996,0.0-19.0-0.0-0.120,A17K1CHOI773VZ,3SNR5F7RA597AOC2DOU98SGLOEGIEB,35USIKEBNVWYXTS8UOT5QWGCNTKN6A,8,7
121,1,object_01,object_09,578.5,2,1,1258.0,0.5555555555555556,2,object_07,1,1775,0,7,5,desert_2,1,memory-2step-stake-s,620,2584004,0.0-19.0-0.0-0.121,A17K1CHOI773VZ,3SNR5F7RA597AOC2DOU98SGLOEGIEB,35USIKEBNVWYXTS8UOT5QWGCNTKN6A,2,1
122,1,object_09,object_01,628.79999995232,2,2,528.30000007153,0.2222222222222222,2,object_07,5,1785,0,4,2,desert_8,1,memory-2step-stake-s,621,2591976,0.0-19.0-0.0-0.122,A17K1CHOI773VZ,3SNR5F7RA597AOC2DOU98SGLOEGIEB,35USIKEBNVWYXTS8UOT5QWGCNTKN6A,1,2
123,2,object_06,object_04,665.5,4,2,545.20000004768,0.2222222222222222,2,object_07,1,1787,0,1,2,forest_5,1,memory-2step-stake-s,622,2599980,0.0-19.0-0.0-0.123,A17K1CHOI773VZ,3SNR5F7RA597AOC2DOU98SGLOEGIEB,35USIKEBNVWYXTS8UOT5QWGCNTKN6A,3,4
124,3,object_05,object_03,740.70000004768,6,2,547.40000009537,0.4444444444444444,2,object_07,5,1807,0,1,4,library_5,1,memory-2step-stake-s,623,2608205,0.0-19.0-0.0-0.124,A17K1CHOI773VZ,3SNR5F7RA597AOC2DOU98SGLOEGIEB,35USIKEBNVWYXTS8UOT5QWGCNTKN6A,5,6
125,1,object_09,object_01,699.89999997616,2,2,827.10000002384,0.7777777777777778,2,object_07,1,1814,0,2,7,desert_2,1,memory-2step-stake-s,624,2617031,0.0-19.0-0.0-0.125,A17K1CHOI773VZ,3SNR5F7RA597AOC2DOU98SGLOEGIEB,35USIKEBNVWYXTS8UOT5QWGCNTKN6A,1,2
126,3,object_05,object_03,717.20000004768,6,2,569.39999997616,0.8888888888888888,2,object_07,1,1822,0,3,8,library_2,1,memory-2step-stake-s,625,2625689,0.0-19.0-0.0-0.126,A17K1CHOI773VZ,3SNR5F7RA597AOC2DOU98SGLOEGIEB,35USIKEBNVWYXTS8UOT5QWGCNTKN6A,5,6
127,2,object_06,object_04,718.0,4,2,563.40000009537,0.6666666666666666,2,object_07,1,1828,0,4,6,forest_4,1,memory-2step-stake-s,626,2634155,0.0-19.0-0.0-0.127,A17K1CHOI773VZ,3SNR5F7RA597AOC2DOU98SGLOEGIEB,35USIKEBNVWYXTS8UOT5QWGCNTKN6A,3,4
128,4,object_10,object_02,656.30000007153,7,1,577.79999995232,0.5555555555555556,1,object_08,5,1853,0,5,5,restaurant_8,1,memory-2step-stake-s,628,2748880,0.0-19.0-0.1-0.128,A17K1CHOI773VZ,3SNR5F7RA597AOC2DOU98SGLOEGIEB,35USIKEBNVWYXTS8UOT5QWGCNTKN6A,7,8
129,1,object_01,object_09,619.20000004768,2,1,550.89999997616,0.3333333333333333,2,object_07,1,1856,0,5,3,desert_2,1,memory-2step-stake-s,629,2756995,0.0-19.0-0.1-0.129,A17K1CHOI773VZ,3SNR5F7RA597AOC2DOU98SGLOEGIEB,35USIKEBNVWYXTS8UOT5QWGCNTKN6A,2,1
130,3,object_05,object_03,643.0,6,2,455.20000004768,0.2222222222222222,2,object_07,5,1866,0,6,2,library_7,1,memory-2step-stake-s,630,2764922,0.0-19.0-0.1-0.130,A17K1CHOI773VZ,3SNR5F7RA597AOC2DOU98SGLOEGIEB,35USIKEBNVWYXTS8UOT5QWGCNTKN6A,5,6
131,3,object_05,object_03,561.5,6,2,546.60000002384,0.3333333333333333,2,object_07,5,1881,0,4,3,library_1,1,memory-2step-stake-s,631,2773071,0.0-19.0-0.1-0.131,A17K1CHOI773VZ,3SNR5F7RA597AOC2DOU98SGLOEGIEB,35USIKEBNVWYXTS8UOT5QWGCNTKN6A,5,6
132,1,object_09,object_01,635.60000002384,2,2,560.0,0.3333333333333333,2,object_07,1,1884,0,3,3,desert_1,1,memory-2step-stake-s,632,2781233,0.0-19.0-0.1-0.132,A17K1CHOI773VZ,3SNR5F7RA597AOC2DOU98SGLOEGIEB,35USIKEBNVWYXTS8UOT5QWGCNTKN6A,1,2
133,2,object_04,object_06,633.79999995232,4,1,585.29999995232,0.5555555555555556,2,object_07,5,1909,0,3,5,forest_4,1,memory-2step-stake-s,633,2789628,0.0-19.0-0.1-0.133,A17K1CHOI773VZ,3SNR5F7RA597AOC2DOU98SGLOEGIEB,35USIKEBNVWYXTS8UOT5QWGCNTKN6A,4,3
134,2,object_06,object_04,602.10000002384,4,2,551.79999995232,0.4444444444444444,2,object_07,1,1913,0,3,4,forest_6,1,memory-2step-stake-s,634,2797844,0.0-19.0-0.1-0.134,A17K1CHOI773VZ,3SNR5F7RA597AOC2DOU98SGLOEGIEB,35USIKEBNVWYXTS8UOT5QWGCNTKN6A,3,4
135,2,object_06,object_04,647.89999997616,4,2,557.5,0.7777777777777778,2,object_07,1,1920,0,1,7,forest_7,1,memory-2step-stake-s,635,2806389,0.0-19.0-0.1-0.135,A17K1CHOI773VZ,3SNR5F7RA597AOC2DOU98SGLOEGIEB,35USIKEBNVWYXTS8UOT5QWGCNTKN6A,3,4
136,3,object_05,object_03,685.39999997616,6,2,485.30000007153,0.6666666666666666,2,object_07,5,1950,0,1,6,library_5,1,memory-2step-stake-s,636,2814762,0.0-19.0-0.1-0.136,A17K1CHOI773VZ,3SNR5F7RA597AOC2DOU98SGLOEGIEB,35USIKEBNVWYXTS8UOT5QWGCNTKN6A,5,6
137,3,object_03,object_05,634.80000007153,6,1,541.5,0.7777777777777778,2,object_07,1,1957,0,0,7,library_2,1,memory-2step-stake-s,637,2823279,0.0-19.0-0.1-0.137,A17K1CHOI773VZ,3SNR5F7RA597AOC2DOU98SGLOEGIEB,35USIKEBNVWYXTS8UOT5QWGCNTKN6A,6,5
138,3,object_05,object_03,577.5,6,2,505.20000004768,0.7777777777777778,2,object_07,5,1992,0,0,7,library_2,1,memory-2step-stake-s,638,2831793,0.0-19.0-0.1-0.138,A17K1CHOI773VZ,3SNR5F7RA597AOC2DOU98SGLOEGIEB,35USIKEBNVWYXTS8UOT5QWGCNTKN6A,5,6
139,1,object_01,object_09,639.30000007153,2,1,512.10000002384,1.0,2,object_07,1,2001,0,2,9,desert_8,1,memory-2step-stake-s,639,2840514,0.0-19.0-0.1-0.139,A17K1CHOI773VZ,3SNR5F7RA597AOC2DOU98SGLOEGIEB,35USIKEBNVWYXTS8UOT5QWGCNTKN6A,2,1
140,3,object_03,object_05,737.5,6,1,592.29999995232,0.7777777777777778,2,object_07,5,2036,0,1,7,library_5,1,memory-2step-stake-s,640,2849092,0.0-19.0-0.1-0.140,A17K1CHOI773VZ,3SNR5F7RA597AOC2DOU98SGLOEGIEB,35USIKEBNVWYXTS8UOT5QWGCNTKN6A,6,5
141,4,object_02,object_10,656.39999997616,7,2,738.20000004768,0.3333333333333333,1,object_08,1,2039,0,3,8,restaurant_6,1,memory-2step-stake-s,641,2857407,0.0-19.0-0.1-0.141,A17K1CHOI773VZ,3SNR5F7RA597AOC2DOU98SGLOEGIEB,35USIKEBNVWYXTS8UOT5QWGCNTKN6A,8,7
142,1,object_01,object_09,625.10000002384,2,1,677.39999997616,0.8888888888888888,2,object_07,5,2079,0,3,8,desert_2,1,memory-2step-stake-s,642,2866175,0.0-19.0-0.1-0.142,A17K1CHOI773VZ,3SNR5F7RA597AOC2DOU98SGLOEGIEB,35USIKEBNVWYXTS8UOT5QWGCNTKN6A,2,1
143,4,object_10,object_02,749.69999992847,7,1,547.70000004768,0.2222222222222222,1,object_08,1,2081,0,2,6,restaurant_4,1,memory-2step-stake-s,643,2874179,0.0-19.0-0.1-0.143,A17K1CHOI773VZ,3SNR5F7RA597AOC2DOU98SGLOEGIEB,35USIKEBNVWYXTS8UOT5QWGCNTKN6A,7,8
144,1,object_09,object_01,520.69999992847,2,2,487.5,0.7777777777777778,2,object_07,1,2088,0,0,7,desert_5,1,memory-2step-stake-s,644,2882638,0.0-19.0-0.1-0.144,A17K1CHOI773VZ,3SNR5F7RA597AOC2DOU98SGLOEGIEB,35USIKEBNVWYXTS8UOT5QWGCNTKN6A,1,2
145,2,object_04,object_06,596.89999997616,4,1,548.79999995232,0.4444444444444444,2,object_07,1,2092,0,0,4,forest_6,1,memory-2step-stake-s,645,2890884,0.0-19.0-0.1-0.145,A17K1CHOI773VZ,3SNR5F7RA597AOC2DOU98SGLOEGIEB,35USIKEBNVWYXTS8UOT5QWGCNTKN6A,4,3
146,3,object_05,object_03,518.29999995232,6,2,535.5,0.4444444444444444,2,object_07,5,2112,0,1,4,library_2,1,memory-2step-stake-s,646,2899102,0.0-19.0-0.1-0.146,A17K1CHOI773VZ,3SNR5F7RA597AOC2DOU98SGLOEGIEB,35USIKEBNVWYXTS8UOT5QWGCNTKN6A,5,6
147,1,object_09,object_01,607.19999992847,2,2,544.79999995232,0.8888888888888888,2,object_07,1,2120,0,3,8,desert_5,1,memory-2step-stake-s,647,2907792,0.0-19.0-0.1-0.147,A17K1CHOI773VZ,3SNR5F7RA597AOC2DOU98SGLOEGIEB,35USIKEBNVWYXTS8UOT5QWGCNTKN6A,1,2
148,1,object_09,object_01,625.29999995232,2,2,580.20000004768,0.7777777777777778,2,object_07,5,2155,0,4,7,desert_8,1,memory-2step-stake-s,648,2916385,0.0-19.0-0.1-0.148,A17K1CHOI773VZ,3SNR5F7RA597AOC2DOU98SGLOEGIEB,35USIKEBNVWYXTS8UOT5QWGCNTKN6A,1,2
149,3,object_05,object_03,754.10000002384,6,2,593.5,1.0,2,object_07,5,2200,0,5,9,library_7,1,memory-2step-stake-s,649,2925188,0.0-19.0-0.1-0.149,A17K1CHOI773VZ,3SNR5F7RA597AOC2DOU98SGLOEGIEB,35USIKEBNVWYXTS8UOT5QWGCNTKN6A,5,6
150,2,object_06,object_04,754.29999995232,4,2,847.79999995232,0.4444444444444444,2,object_07,5,2220,0,6,4,forest_4,1,memory-2step-stake-s,650,2933722,0.0-19.0-0.1-0.150,A17K1CHOI773VZ,3SNR5F7RA597AOC2DOU98SGLOEGIEB,35USIKEBNVWYXTS8UOT5QWGCNTKN6A,3,4
151,4,object_02,object_10,662.70000004768,7,2,651.69999992847,0.4444444444444444,1,object_08,1,2224,0,4,6,restaurant_8,1,memory-2step-stake-s,651,2942043,0.0-19.0-0.1-0.151,A17K1CHOI773VZ,3SNR5F7RA597AOC2DOU98SGLOEGIEB,35USIKEBNVWYXTS8UOT5QWGCNTKN6A,8,7
152,2,object_06,object_04,699.39999997616,4,2,508.5,0.5555555555555556,2,object_07,1,2229,0,6,5,forest_4,1,memory-2step-stake-s,652,2950363,0.0-19.0-0.1-0.152,A17K1CHOI773VZ,3SNR5F7RA597AOC2DOU98SGLOEGIEB,35USIKEBNVWYXTS8UOT5QWGCNTKN6A,3,4
153,2,object_06,object_04,685.20000004768,4,2,709.10000002384,0.6666666666666666,2,object_07,1,2235,0,6,6,forest_4,1,memory-2step-stake-s,653,2958971,0.0-19.0-0.1-0.153,A17K1CHOI773VZ,3SNR5F7RA597AOC2DOU98SGLOEGIEB,35USIKEBNVWYXTS8UOT5QWGCNTKN6A,3,4
154,1,object_09,object_01,577.5,2,2,648.5,0.4444444444444444,2,object_07,1,2239,0,6,4,desert_8,1,memory-2step-stake-s,654,2967301,0.0-19.0-0.1-0.154,A17K1CHOI773VZ,3SNR5F7RA597AOC2DOU98SGLOEGIEB,35USIKEBNVWYXTS8UOT5QWGCNTKN6A,1,2
155,4,object_02,object_10,762.89999997616,7,2,792.5,0.7777777777777778,1,object_08,5,2274,0,7,6,restaurant_2,1,memory-2step-stake-s,655,2976086,0.0-19.0-0.1-0.155,A17K1CHOI773VZ,3SNR5F7RA597AOC2DOU98SGLOEGIEB,35USIKEBNVWYXTS8UOT5QWGCNTKN6A,8,7
156,2,object_04,object_06,951.20000004768,4,1,1279.1999999285,0.8888888888888888,2,object_07,1,2282,0,4,8,forest_6,1,memory-2step-stake-s,656,2985467,0.0-19.0-0.1-0.156,A17K1CHOI773VZ,3SNR5F7RA597AOC2DOU98SGLOEGIEB,35USIKEBNVWYXTS8UOT5QWGCNTKN6A,4,3
157,4,object_02,object_10,707.79999995232,7,2,560.80000007153,0.4444444444444444,1,object_08,5,2302,0,4,9,restaurant_8,1,memory-2step-stake-s,657,2993711,0.0-19.0-0.1-0.157,A17K1CHOI773VZ,3SNR5F7RA597AOC2DOU98SGLOEGIEB,35USIKEBNVWYXTS8UOT5QWGCNTKN6A,8,7
158,1,object_01,object_09,728.89999997616,2,1,618.80000007153,0.8888888888888888,2,object_07,5,2342,0,3,8,desert_8,1,memory-2step-stake-s,658,3002434,0.0-19.0-0.1-0.158,A17K1CHOI773VZ,3SNR5F7RA597AOC2DOU98SGLOEGIEB,35USIKEBNVWYXTS8UOT5QWGCNTKN6A,2,1
159,1,object_09,object_01,670.0,2,2,633.5,0.7777777777777778,2,object_07,5,2377,0,2,7,desert_8,1,memory-2step-stake-s,659,3011057,0.0-19.0-0.1-0.159,A17K1CHOI773VZ,3SNR5F7RA597AOC2DOU98SGLOEGIEB,35USIKEBNVWYXTS8UOT5QWGCNTKN6A,1,2
160,3,object_05,object_03,601.30000007153,6,2,567.0,0.5555555555555556,2,object_07,5,2402,0,0,5,library_1,1,memory-2step-stake-s,660,3019387,0.0-19.0-0.1-0.160,A17K1CHOI773VZ,3SNR5F7RA597AOC2DOU98SGLOEGIEB,35USIKEBNVWYXTS8UOT5QWGCNTKN6A,5,6
161,4,object_02,object_10,629.39999997616,7,2,673.40000009537,0.1111111111111111,1,object_08,1,2403,0,1,6,restaurant_2,1,memory-2step-stake-s,661,3027434,0.0-19.0-0.1-0.161,A17K1CHOI773VZ,3SNR5F7RA597AOC2DOU98SGLOEGIEB,35USIKEBNVWYXTS8UOT5QWGCNTKN6A,8,7
162,3,object_03,object_05,674.5,6,1,-1.0,0.0,2,object_07,5,2403,0,1,8,library_7,1,memory-2step-stake-s,662,3036005,0.0-19.0-0.1-0.162,A17K1CHOI773VZ,3SNR5F7RA597AOC2DOU98SGLOEGIEB,35USIKEBNVWYXTS8UOT5QWGCNTKN6A,6,5
163,4,object_10,object_02,656.39999997616,7,1,582.0,0.1111111111111111,1,object_08,5,2408,0,1,8,restaurant_8,1,memory-2step-stake-s,663,3043959,0.0-19.0-0.1-0.163,A17K1CHOI773VZ,3SNR5F7RA597AOC2DOU98SGLOEGIEB,35USIKEBNVWYXTS8UOT5QWGCNTKN6A,7,8
164,4,object_02,object_10,814.20000004768,8,1,397.30000007153,0.4444444444444444,2,object_07,5,2428,0,2,4,restaurant_2,1,memory-2step-stake-s,664,3052013,0.0-19.0-0.1-0.164,A17K1CHOI773VZ,3SNR5F7RA597AOC2DOU98SGLOEGIEB,35USIKEBNVWYXTS8UOT5QWGCNTKN6A,8,7
165,3,object_05,object_03,996.19999992847,5,1,982.39999997616,0.2222222222222222,1,object_08,1,2430,0,2,5,library_5,1,memory-2step-stake-s,665,3060481,0.0-19.0-0.1-0.165,A17K1CHOI773VZ,3SNR5F7RA597AOC2DOU98SGLOEGIEB,35USIKEBNVWYXTS8UOT5QWGCNTKN6A,5,6
166,4,object_02,object_10,654.0,7,2,560.60000002384,0.4444444444444444,1,object_08,5,2450,0,4,5,restaurant_2,1,memory-2step-stake-s,666,3068699,0.0-19.0-0.1-0.166,A17K1CHOI773VZ,3SNR5F7RA597AOC2DOU98SGLOEGIEB,35USIKEBNVWYXTS8UOT5QWGCNTKN6A,8,7
167,4,object_02,object_10,767.19999992847,7,2,500.59999990463,0.6666666666666666,1,object_08,5,2480,0,6,5,restaurant_4,1,memory-2step-stake-s,667,3077115,0.0-19.0-0.1-0.167,A17K1CHOI773VZ,3SNR5F7RA597AOC2DOU98SGLOEGIEB,35USIKEBNVWYXTS8UOT5QWGCNTKN6A,8,7
168,1,object_09,object_01,633.5,2,2,485.79999995232,0.8888888888888888,2,object_07,1,2488,0,7,8,desert_2,1,memory-2step-stake-s,668,3085707,0.0-19.0-0.1-0.168,A17K1CHOI773VZ,3SNR5F7RA597AOC2DOU98SGLOEGIEB,35USIKEBNVWYXTS8UOT5QWGCNTKN6A,1,2
169,4,object_02,object_10,631.20000004768,7,2,496.10000002384,0.5555555555555556,1,object_08,5,2513,0,5,9,restaurant_2,1,memory-2step-stake-s,669,3093989,0.0-19.0-0.1-0.169,A17K1CHOI773VZ,3SNR5F7RA597AOC2DOU98SGLOEGIEB,35USIKEBNVWYXTS8UOT5QWGCNTKN6A,8,7
170,3,object_03,object_05,878.19999992847,6,1,664.70000004768,0.5555555555555556,2,object_07,5,2538,0,7,5,library_1,1,memory-2step-stake-s,670,3102421,0.0-19.0-0.1-0.170,A17K1CHOI773VZ,3SNR5F7RA597AOC2DOU98SGLOEGIEB,35USIKEBNVWYXTS8UOT5QWGCNTKN6A,6,5
171,3,object_03,object_05,861.60000002384,6,1,875.0,0.3333333333333333,2,object_07,5,2553,0,3,3,library_5,1,memory-2step-stake-s,671,3110866,0.0-19.0-0.1-0.171,A17K1CHOI773VZ,3SNR5F7RA597AOC2DOU98SGLOEGIEB,35USIKEBNVWYXTS8UOT5QWGCNTKN6A,6,5
172,2,object_04,object_06,754.40000009537,4,1,675.39999997616,0.5555555555555556,2,object_07,1,2558,0,2,5,forest_7,1,memory-2step-stake-s,672,3119322,0.0-19.0-0.1-0.172,A17K1CHOI773VZ,3SNR5F7RA597AOC2DOU98SGLOEGIEB,35USIKEBNVWYXTS8UOT5QWGCNTKN6A,4,3
173,1,object_09,object_01,602.59999990463,2,2,569.60000002384,0.6666666666666666,2,object_07,1,2564,0,3,6,desert_5,1,memory-2step-stake-s,673,3127815,0.0-19.0-0.1-0.173,A17K1CHOI773VZ,3SNR5F7RA597AOC2DOU98SGLOEGIEB,35USIKEBNVWYXTS8UOT5QWGCNTKN6A,1,2
174,1,object_01,object_09,580.20000004768,2,1,845.20000004768,0.6666666666666666,2,object_07,1,2570,0,4,6,desert_2,1,memory-2step-stake-s,674,3136576,0.0-19.0-0.1-0.174,A17K1CHOI773VZ,3SNR5F7RA597AOC2DOU98SGLOEGIEB,35USIKEBNVWYXTS8UOT5QWGCNTKN6A,2,1
175,1,object_01,object_09,635.39999997616,2,1,733.19999992847,0.6666666666666666,2,object_07,1,2576,0,4,6,desert_8,1,memory-2step-stake-s,675,3145187,0.0-19.0-0.1-0.175,A17K1CHOI773VZ,3SNR5F7RA597AOC2DOU98SGLOEGIEB,35USIKEBNVWYXTS8UOT5QWGCNTKN6A,2,1
176,3,object_03,object_05,943.5,6,1,965.10000002384,0.5555555555555556,2,object_07,1,2581,0,7,5,library_1,1,memory-2step-stake-s,676,3153933,0.0-19.0-0.1-0.176,A17K1CHOI773VZ,3SNR5F7RA597AOC2DOU98SGLOEGIEB,35USIKEBNVWYXTS8UOT5QWGCNTKN6A,6,5
177,3,object_05,object_03,571.80000007153,6,2,544.19999992847,0.1111111111111111,2,object_07,5,2586,0,5,1,library_7,1,memory-2step-stake-s,677,3161848,0.0-19.0-0.1-0.177,A17K1CHOI773VZ,3SNR5F7RA597AOC2DOU98SGLOEGIEB,35USIKEBNVWYXTS8UOT5QWGCNTKN6A,5,6
178,1,object_09,object_01,594.5,2,2,712.79999995232,0.5555555555555556,2,object_07,1,2591,0,6,5,desert_5,1,memory-2step-stake-s,678,3170325,0.0-19.0-0.1-0.178,A17K1CHOI773VZ,3SNR5F7RA597AOC2DOU98SGLOEGIEB,35USIKEBNVWYXTS8UOT5QWGCNTKN6A,1,2
179,1,object_09,object_01,599.5,2,2,598.0,0.8888888888888888,2,object_07,1,2599,0,5,8,desert_5,1,memory-2step-stake-s,679,3179003,0.0-19.0-0.1-0.179,A17K1CHOI773VZ,3SNR5F7RA597AOC2DOU98SGLOEGIEB,35USIKEBNVWYXTS8UOT5QWGCNTKN6A,1,2
180,4,object_10,object_02,908.60000002384,7,1,540.79999995232,0.6666666666666666,1,object_08,5,2629,0,6,9,restaurant_8,1,memory-2step-stake-s,680,3187450,0.0-19.0-0.1-0.180,A17K1CHOI773VZ,3SNR5F7RA597AOC2DOU98SGLOEGIEB,35USIKEBNVWYXTS8UOT5QWGCNTKN6A,7,8
181,1,object_09,object_01,566.20000004768,2,2,518.79999995232,1.0,2,object_07,1,2638,0,7,9,desert_8,1,memory-2step-stake-s,681,3196161,0.0-19.0-0.1-0.181,A17K1CHOI773VZ,3SNR5F7RA597AOC2DOU98SGLOEGIEB,35USIKEBNVWYXTS8UOT5QWGCNTKN6A,1,2
182,2,object_06,object_04,677.60000002384,4,2,523.79999995232,0.4444444444444444,2,object_07,1,2642,0,8,4,forest_7,1,memory-2step-stake-s,682,3204392,0.0-19.0-0.1-0.182,A17K1CHOI773VZ,3SNR5F7RA597AOC2DOU98SGLOEGIEB,35USIKEBNVWYXTS8UOT5QWGCNTKN6A,3,4
183,1,object_01,object_09,550.70000004768,2,1,554.39999997616,0.4444444444444444,2,object_07,5,2662,0,6,4,desert_2,1,memory-2step-stake-s,683,3212635,0.0-19.0-0.1-0.183,A17K1CHOI773VZ,3SNR5F7RA597AOC2DOU98SGLOEGIEB,35USIKEBNVWYXTS8UOT5QWGCNTKN6A,2,1
184,3,object_03,object_05,1020.7999999523,6,1,644.0,0.3333333333333333,2,object_07,1,2665,0,6,3,library_7,1,memory-2step-stake-s,684,3220859,0.0-19.0-0.1-0.184,A17K1CHOI773VZ,3SNR5F7RA597AOC2DOU98SGLOEGIEB,35USIKEBNVWYXTS8UOT5QWGCNTKN6A,6,5
185,4,object_10,object_02,636.69999992847,7,1,847.0,0.6666666666666666,1,object_08,5,2695,0,6,4,restaurant_8,1,memory-2step-stake-s,685,3229596,0.0-19.0-0.1-0.185,A17K1CHOI773VZ,3SNR5F7RA597AOC2DOU98SGLOEGIEB,35USIKEBNVWYXTS8UOT5QWGCNTKN6A,7,8
186,3,object_05,object_03,557.10000002384,6,2,570.5,0.4444444444444444,2,object_07,1,2699,0,8,4,library_2,1,memory-2step-stake-s,686,3237867,0.0-19.0-0.1-0.186,A17K1CHOI773VZ,3SNR5F7RA597AOC2DOU98SGLOEGIEB,35USIKEBNVWYXTS8UOT5QWGCNTKN6A,5,6
187,3,object_03,object_05,647.0,6,1,647.19999992847,0.4444444444444444,2,object_07,5,2719,0,6,4,library_1,1,memory-2step-stake-s,687,3246202,0.0-19.0-0.1-0.187,A17K1CHOI773VZ,3SNR5F7RA597AOC2DOU98SGLOEGIEB,35USIKEBNVWYXTS8UOT5QWGCNTKN6A,6,5
188,2,object_06,object_04,872.70000004768,4,2,707.5,0.4444444444444444,2,object_07,1,2723,0,8,4,forest_4,1,memory-2step-stake-s,688,3254596,0.0-19.0-0.1-0.188,A17K1CHOI773VZ,3SNR5F7RA597AOC2DOU98SGLOEGIEB,35USIKEBNVWYXTS8UOT5QWGCNTKN6A,3,4
189,4,object_10,object_02,525.0,7,1,560.89999997616,0.4444444444444444,1,object_08,5,2743,0,4,6,restaurant_8,1,memory-2step-stake-s,689,3262854,0.0-19.0-0.1-0.189,A17K1CHOI773VZ,3SNR5F7RA597AOC2DOU98SGLOEGIEB,35USIKEBNVWYXTS8UOT5QWGCNTKN6A,7,8
190,2,object_06,object_04,555.0,4,2,515.89999997616,0.6666666666666666,2,object_07,5,2773,0,5,6,forest_6,1,memory-2step-stake-s,690,3271246,0.0-19.0-0.1-0.190,A17K1CHOI773VZ,3SNR5F7RA597AOC2DOU98SGLOEGIEB,35USIKEBNVWYXTS8UOT5QWGCNTKN6A,3,4
191,4,object_10,object_02,648.40000009537,7,1,589.5,0.5555555555555556,1,object_08,1,2778,0,5,6,restaurant_4,1,memory-2step-stake-s,691,3279623,0.0-19.0-0.1-0.191,A17K1CHOI773VZ,3SNR5F7RA597AOC2DOU98SGLOEGIEB,35USIKEBNVWYXTS8UOT5QWGCNTKN6A,7,8
192,1,object_01,object_09,639.80000007153,2,1,593.69999992847,1.0,2,object_07,1,2787,0,8,9,desert_2,1,memory-2step-stake-s,692,3288428,0.0-19.0-0.1-0.192,A17K1CHOI773VZ,3SNR5F7RA597AOC2DOU98SGLOEGIEB,35USIKEBNVWYXTS8UOT5QWGCNTKN6A,2,1
193,4,object_10,object_02,627.89999997616,7,1,617.5,0.7777777777777778,1,object_08,5,2822,0,7,6,restaurant_4,1,memory-2step-stake-s,693,3297022,0.0-19.0-0.1-0.193,A17K1CHOI773VZ,3SNR5F7RA597AOC2DOU98SGLOEGIEB,35USIKEBNVWYXTS8UOT5QWGCNTKN6A,7,8
194,3,object_05,object_03,785.79999995232,6,2,461.0,0.7777777777777778,2,object_07,5,2857,0,6,7,library_1,1,memory-2step-stake-s,694,3305451,0.0-19.0-0.1-0.194,A17K1CHOI773VZ,3SNR5F7RA597AOC2DOU98SGLOEGIEB,35USIKEBNVWYXTS8UOT5QWGCNTKN6A,5,6
195,3,object_05,object_03,648.80000007153,6,2,532.89999997616,0.8888888888888888,2,object_07,5,2897,0,8,8,library_1,1,memory-2step-stake-s,695,3314093,0.0-19.0-0.1-0.195,A17K1CHOI773VZ,3SNR5F7RA597AOC2DOU98SGLOEGIEB,35USIKEBNVWYXTS8UOT5QWGCNTKN6A,5,6
196,2,object_04,object_06,615.39999997616,4,1,477.70000004768,0.7777777777777778,2,object_07,1,2904,0,7,7,forest_7,1,memory-2step-stake-s,696,3322558,0.0-19.0-0.1-0.196,A17K1CHOI773VZ,3SNR5F7RA597AOC2DOU98SGLOEGIEB,35USIKEBNVWYXTS8UOT5QWGCNTKN6A,4,3
197,3,object_05,object_03,706.29999995232,6,2,519.5,0.8888888888888888,2,object_07,5,2944,0,7,8,library_7,1,memory-2step-stake-s,697,3331156,0.0-19.0-0.1-0.197,A17K1CHOI773VZ,3SNR5F7RA597AOC2DOU98SGLOEGIEB,35USIKEBNVWYXTS8UOT5QWGCNTKN6A,5,6
198,2,object_06,object_04,715.0,4,2,691.20000004768,0.8888888888888888,2,object_07,1,2952,0,8,8,forest_7,1,memory-2step-stake-s,698,3339960,0.0-19.0-0.1-0.198,A17K1CHOI773VZ,3SNR5F7RA597AOC2DOU98SGLOEGIEB,35USIKEBNVWYXTS8UOT5QWGCNTKN6A,3,4
199,1,object_09,object_01,682.89999997616,2,2,613.0,0.4444444444444444,2,object_07,1,2956,0,9,4,desert_1,1,memory-2step-stake-s,699,3348272,0.0-19.0-0.1-0.199,A17K1CHOI773VZ,3SNR5F7RA597AOC2DOU98SGLOEGIEB,35USIKEBNVWYXTS8UOT5QWGCNTKN6A,1,2
200,4,object_02,object_10,671.59999990463,7,2,559.19999992847,1.0,1,object_08,5,3001,0,9,4,restaurant_2,1,memory-2step-stake-s,700,3357046,0.0-19.0-0.1-0.200,A17K1CHOI773VZ,3SNR5F7RA597AOC2DOU98SGLOEGIEB,35USIKEBNVWYXTS8UOT5QWGCNTKN6A,8,7
201,1,object_01,object_09,526.0,2,1,494.0,0.6666666666666666,2,object_07,1,3007,0,7,6,desert_2,1,memory-2step-stake-s,701,3365438,0.0-19.0-0.1-0.201,A17K1CHOI773VZ,3SNR5F7RA597AOC2DOU98SGLOEGIEB,35USIKEBNVWYXTS8UOT5QWGCNTKN6A,2,1
202,2,object_04,object_06,632.69999992847,4,1,819.80000007153,0.4444444444444444,2,object_07,1,3011,0,7,4,forest_5,1,memory-2step-stake-s,702,3373917,0.0-19.0-0.1-0.202,A17K1CHOI773VZ,3SNR5F7RA597AOC2DOU98SGLOEGIEB,35USIKEBNVWYXTS8UOT5QWGCNTKN6A,4,3
203,1,object_01,object_09,72.899999976158,2,1,703.60000002384,0.5555555555555556,2,object_07,1,3016,0,7,5,desert_1,1,memory-2step-stake-s,703,3382445,0.0-19.0-0.1-0.203,A17K1CHOI773VZ,3SNR5F7RA597AOC2DOU98SGLOEGIEB,35USIKEBNVWYXTS8UOT5QWGCNTKN6A,2,1
204,2,object_06,object_04,1086.6999999285,4,2,514.89999997616,0.6666666666666666,2,object_07,1,3022,0,6,6,forest_6,1,memory-2step-stake-s,704,3390857,0.0-19.0-0.1-0.204,A17K1CHOI773VZ,3SNR5F7RA597AOC2DOU98SGLOEGIEB,35USIKEBNVWYXTS8UOT5QWGCNTKN6A,3,4
205,3,object_03,object_05,735.69999992847,6,1,576.20000004768,1.0,2,object_07,5,3067,0,8,9,library_1,1,memory-2step-stake-s,705,3399628,0.0-19.0-0.1-0.205,A17K1CHOI773VZ,3SNR5F7RA597AOC2DOU98SGLOEGIEB,35USIKEBNVWYXTS8UOT5QWGCNTKN6A,6,5
206,3,object_03,object_05,736.0,6,1,883.20000004768,1.0,2,object_07,5,3112,0,9,9,library_2,1,memory-2step-stake-s,706,3408718,0.0-19.0-0.1-0.206,A17K1CHOI773VZ,3SNR5F7RA597AOC2DOU98SGLOEGIEB,35USIKEBNVWYXTS8UOT5QWGCNTKN6A,6,5
207,2,object_06,object_04,612.5,4,2,521.20000004768,0.5555555555555556,2,object_07,1,3117,0,7,5,forest_4,1,memory-2step-stake-s,707,3416995,0.0-19.0-0.1-0.207,A17K1CHOI773VZ,3SNR5F7RA597AOC2DOU98SGLOEGIEB,35USIKEBNVWYXTS8UOT5QWGCNTKN6A,3,4
208,4,object_10,object_02,566.79999995232,7,1,559.89999997616,1.0,1,object_08,5,3162,0,9,4,restaurant_6,1,memory-2step-stake-s,708,3425753,0.0-19.0-0.1-0.208,A17K1CHOI773VZ,3SNR5F7RA597AOC2DOU98SGLOEGIEB,35USIKEBNVWYXTS8UOT5QWGCNTKN6A,7,8
209,3,object_03,object_05,668.10000002384,6,1,679.70000004768,0.2222222222222222,2,object_07,5,3172,0,5,2,library_1,1,memory-2step-stake-s,709,3433902,0.0-19.0-0.1-0.209,A17K1CHOI773VZ,3SNR5F7RA597AOC2DOU98SGLOEGIEB,35USIKEBNVWYXTS8UOT5QWGCNTKN6A,6,5
210,4,object_10,object_02,898.39999997616,7,1,745.60000002384,0.1111111111111111,1,object_08,1,3173,0,1,2,restaurant_6,1,memory-2step-stake-s,710,3442027,0.0-19.0-0.1-0.210,A17K1CHOI773VZ,3SNR5F7RA597AOC2DOU98SGLOEGIEB,35USIKEBNVWYXTS8UOT5QWGCNTKN6A,7,8
211,3,object_03,object_05,942.5,6,1,599.10000002384,0.1111111111111111,2,object_07,1,3174,0,3,1,library_7,1,memory-2step-stake-s,711,3449989,0.0-19.0-0.1-0.211,A17K1CHOI773VZ,3SNR5F7RA597AOC2DOU98SGLOEGIEB,35USIKEBNVWYXTS8UOT5QWGCNTKN6A,6,5
212,3,object_05,object_03,718.10000002384,6,2,854.60000002384,0.4444444444444444,2,object_07,1,3178,0,4,4,library_2,1,memory-2step-stake-s,712,3458507,0.0-19.0-0.1-0.212,A17K1CHOI773VZ,3SNR5F7RA597AOC2DOU98SGLOEGIEB,35USIKEBNVWYXTS8UOT5QWGCNTKN6A,5,6
213,1,object_09,object_01,614.70000004768,2,2,562.5,0.2222222222222222,2,object_07,1,3180,0,3,2,desert_5,1,memory-2step-stake-s,713,3466543,0.0-19.0-0.1-0.213,A17K1CHOI773VZ,3SNR5F7RA597AOC2DOU98SGLOEGIEB,35USIKEBNVWYXTS8UOT5QWGCNTKN6A,1,2
214,3,object_05,object_03,675.29999995232,6,2,644.70000004768,0.6666666666666666,2,object_07,1,3186,0,3,6,library_7,1,memory-2step-stake-s,714,3475097,0.0-19.0-0.1-0.214,A17K1CHOI773VZ,3SNR5F7RA597AOC2DOU98SGLOEGIEB,35USIKEBNVWYXTS8UOT5QWGCNTKN6A,5,6
215,3,object_05,object_03,577.79999995232,6,2,519.39999997616,0.6666666666666666,2,object_07,5,3216,0,1,6,library_1,1,memory-2step-stake-s,715,3483501,0.0-19.0-0.1-0.215,A17K1CHOI773VZ,3SNR5F7RA597AOC2DOU98SGLOEGIEB,35USIKEBNVWYXTS8UOT5QWGCNTKN6A,5,6
216,1,object_01,object_09,466.0,2,1,946.39999997616,0.4444444444444444,2,object_07,1,3220,0,0,4,desert_1,1,memory-2step-stake-s,716,3492127,0.0-19.0-0.1-0.216,A17K1CHOI773VZ,3SNR5F7RA597AOC2DOU98SGLOEGIEB,35USIKEBNVWYXTS8UOT5QWGCNTKN6A,2,1
217,2,object_04,object_06,776.90000009537,4,1,615.60000002384,0.3333333333333333,2,object_07,1,3223,0,0,3,forest_6,1,memory-2step-stake-s,717,3500314,0.0-19.0-0.1-0.217,A17K1CHOI773VZ,3SNR5F7RA597AOC2DOU98SGLOEGIEB,35USIKEBNVWYXTS8UOT5QWGCNTKN6A,4,3
218,1,object_09,object_01,796.80000007153,2,2,665.60000002384,0.5555555555555556,2,object_07,1,3228,0,0,5,desert_1,1,memory-2step-stake-s,718,3508741,0.0-19.0-0.1-0.218,A17K1CHOI773VZ,3SNR5F7RA597AOC2DOU98SGLOEGIEB,35USIKEBNVWYXTS8UOT5QWGCNTKN6A,1,2
219,2,object_06,object_04,677.30000007153,4,2,585.29999995232,0.3333333333333333,2,object_07,1,3231,0,2,3,forest_6,1,memory-2step-stake-s,719,3516904,0.0-19.0-0.1-0.219,A17K1CHOI773VZ,3SNR5F7RA597AOC2DOU98SGLOEGIEB,35USIKEBNVWYXTS8UOT5QWGCNTKN6A,3,4
220,4,object_10,object_02,573.20000004768,7,1,510.30000007153,0.5555555555555556,1,object_08,5,3256,0,5,1,restaurant_8,1,memory-2step-stake-s,720,3525208,0.0-19.0-0.1-0.220,A17K1CHOI773VZ,3SNR5F7RA597AOC2DOU98SGLOEGIEB,35USIKEBNVWYXTS8UOT5QWGCNTKN6A,7,8
221,2,object_04,object_06,843.0,4,1,664.60000002384,0.0,2,object_07,5,3256,0,4,0,forest_6,1,memory-2step-stake-s,721,3533123,0.0-19.0-0.1-0.221,A17K1CHOI773VZ,3SNR5F7RA597AOC2DOU98SGLOEGIEB,35USIKEBNVWYXTS8UOT5QWGCNTKN6A,4,3
222,4,object_10,object_02,587.39999997616,7,1,525.10000002384,0.4444444444444444,1,object_08,5,3276,0,4,1,restaurant_6,1,memory-2step-stake-s,722,3541330,0.0-19.0-0.1-0.222,A17K1CHOI773VZ,3SNR5F7RA597AOC2DOU98SGLOEGIEB,35USIKEBNVWYXTS8UOT5QWGCNTKN6A,7,8
223,1,object_01,object_09,579.59999990463,2,1,602.10000002384,0.1111111111111111,2,object_07,1,3277,0,6,1,desert_5,1,memory-2step-stake-s,723,3549288,0.0-19.0-0.1-0.223,A17K1CHOI773VZ,3SNR5F7RA597AOC2DOU98SGLOEGIEB,35USIKEBNVWYXTS8UOT5QWGCNTKN6A,2,1
224,3,object_05,object_03,929.20000004768,6,2,564.79999995232,0.1111111111111111,2,object_07,5,3282,0,8,1,library_5,1,memory-2step-stake-s,724,3557203,0.0-19.0-0.1-0.224,A17K1CHOI773VZ,3SNR5F7RA597AOC2DOU98SGLOEGIEB,35USIKEBNVWYXTS8UOT5QWGCNTKN6A,5,6
225,4,object_02,object_10,605.5,8,1,467.39999997616,0.4444444444444444,2,object_07,1,3286,0,8,4,restaurant_6,1,memory-2step-stake-s,725,3565365,0.0-19.0-0.1-0.225,A17K1CHOI773VZ,3SNR5F7RA597AOC2DOU98SGLOEGIEB,35USIKEBNVWYXTS8UOT5QWGCNTKN6A,8,7
226,4,object_02,object_10,927.60000002384,8,1,544.60000002384,0.5555555555555556,2,object_07,5,3311,0,9,5,restaurant_6,1,memory-2step-stake-s,726,3573717,0.0-19.0-0.1-0.226,A17K1CHOI773VZ,3SNR5F7RA597AOC2DOU98SGLOEGIEB,35USIKEBNVWYXTS8UOT5QWGCNTKN6A,8,7
227,1,object_09,object_01,568.70000004768,2,2,321.10000002384,0.3333333333333333,2,object_07,1,3314,0,8,3,desert_1,1,memory-2step-stake-s,727,3581610,0.0-19.0-0.1-0.227,A17K1CHOI773VZ,3SNR5F7RA597AOC2DOU98SGLOEGIEB,35USIKEBNVWYXTS8UOT5QWGCNTKN6A,1,2
228,1,object_09,object_01,771.5,1,1,564.39999997616,1.0,1,object_08,1,3323,0,9,4,desert_2,1,memory-2step-stake-s,728,3590385,0.0-19.0-0.1-0.228,A17K1CHOI773VZ,3SNR5F7RA597AOC2DOU98SGLOEGIEB,35USIKEBNVWYXTS8UOT5QWGCNTKN6A,1,2
229,1,object_01,object_09,954.5,1,2,375.80000007153,0.7777777777777778,1,object_08,5,3358,0,7,6,desert_5,1,memory-2step-stake-s,729,3598741,0.0-19.0-0.1-0.229,A17K1CHOI773VZ,3SNR5F7RA597AOC2DOU98SGLOEGIEB,35USIKEBNVWYXTS8UOT5QWGCNTKN6A,2,1
230,2,object_04,object_06,969.5,3,2,457.20000004768,0.6666666666666666,1,object_08,1,3364,0,6,6,forest_6,1,memory-2step-stake-s,730,3607098,0.0-19.0-0.1-0.230,A17K1CHOI773VZ,3SNR5F7RA597AOC2DOU98SGLOEGIEB,35USIKEBNVWYXTS8UOT5QWGCNTKN6A,4,3
231,2,object_06,object_04,827.29999995232,3,1,596.70000004768,0.4444444444444444,1,object_08,1,3368,0,4,9,forest_5,1,memory-2step-stake-s,731,3615411,0.0-19.0-0.1-0.231,A17K1CHOI773VZ,3SNR5F7RA597AOC2DOU98SGLOEGIEB,35USIKEBNVWYXTS8UOT5QWGCNTKN6A,3,4
232,2,object_06,object_04,626.80000007153,3,1,570.10000002384,0.7777777777777778,1,object_08,1,3375,0,7,9,forest_6,1,memory-2step-stake-s,732,3623948,0.0-19.0-0.1-0.232,A17K1CHOI773VZ,3SNR5F7RA597AOC2DOU98SGLOEGIEB,35USIKEBNVWYXTS8UOT5QWGCNTKN6A,3,4
233,3,object_05,object_03,563.60000002384,6,2,573.5,0.7777777777777778,2,object_07,5,3410,0,5,7,library_5,1,memory-2step-stake-s,733,3632529,0.0-19.0-0.1-0.233,A17K1CHOI773VZ,3SNR5F7RA597AOC2DOU98SGLOEGIEB,35USIKEBNVWYXTS8UOT5QWGCNTKN6A,5,6
234,4,object_10,object_02,516.29999995232,7,1,609.10000002384,0.6666666666666666,1,object_08,5,3440,0,6,7,restaurant_6,1,memory-2step-stake-s,734,3641040,0.0-19.0-0.1-0.234,A17K1CHOI773VZ,3SNR5F7RA597AOC2DOU98SGLOEGIEB,35USIKEBNVWYXTS8UOT5QWGCNTKN6A,7,8
235,1,object_01,object_09,596.0,2,1,517.0,1.0,2,object_07,5,3485,0,8,9,desert_5,1,memory-2step-stake-s,735,3649755,0.0-19.0-0.1-0.235,A17K1CHOI773VZ,3SNR5F7RA597AOC2DOU98SGLOEGIEB,35USIKEBNVWYXTS8UOT5QWGCNTKN6A,2,1
236,4,object_10,object_02,710.10000002384,7,1,1042.7999999523,0.8888888888888888,1,object_08,5,3525,0,8,9,restaurant_4,1,memory-2step-stake-s,736,3658884,0.0-19.0-0.1-0.236,A17K1CHOI773VZ,3SNR5F7RA597AOC2DOU98SGLOEGIEB,35USIKEBNVWYXTS8UOT5QWGCNTKN6A,7,8
237,2,object_06,object_04,596.0,4,2,453.39999997616,0.8888888888888888,2,object_07,5,3565,0,8,8,forest_6,1,memory-2step-stake-s,737,3667419,0.0-19.0-0.1-0.237,A17K1CHOI773VZ,3SNR5F7RA597AOC2DOU98SGLOEGIEB,35USIKEBNVWYXTS8UOT5QWGCNTKN6A,3,4
238,1,object_09,object_01,976.20000004768,1,1,515.10000002384,0.7777777777777778,1,object_08,1,3572,0,7,8,desert_2,1,memory-2step-stake-s,738,3675940,0.0-19.0-0.1-0.238,A17K1CHOI773VZ,3SNR5F7RA597AOC2DOU98SGLOEGIEB,35USIKEBNVWYXTS8UOT5QWGCNTKN6A,1,2
239,3,object_03,object_05,929.5,5,2,614.10000002384,0.8888888888888888,1,object_08,5,3612,0,8,9,library_7,1,memory-2step-stake-s,739,3684676,0.0-19.0-0.1-0.239,A17K1CHOI773VZ,3SNR5F7RA597AOC2DOU98SGLOEGIEB,35USIKEBNVWYXTS8UOT5QWGCNTKN6A,6,5
240,1,object_01,object_09,607.19999992847,1,2,501.0,0.5555555555555556,1,object_08,1,3617,0,5,8,desert_1,1,memory-2step-stake-s,740,3692985,0.0-19.0-0.1-0.240,A17K1CHOI773VZ,3SNR5F7RA597AOC2DOU98SGLOEGIEB,35USIKEBNVWYXTS8UOT5QWGCNTKN6A,2,1
241,4,object_02,object_10,741.20000004768,8,1,503.0,0.5555555555555556,2,object_07,5,3642,0,6,5,restaurant_8,1,memory-2step-stake-s,741,3701284,0.0-19.0-0.1-0.241,A17K1CHOI773VZ,3SNR5F7RA597AOC2DOU98SGLOEGIEB,35USIKEBNVWYXTS8UOT5QWGCNTKN6A,8,7
242,2,object_04,object_06,930.0,3,2,333.10000002384,0.2222222222222222,1,object_08,1,3644,0,2,3,forest_5,1,memory-2step-stake-s,742,3709063,0.0-19.0-0.1-0.242,A17K1CHOI773VZ,3SNR5F7RA597AOC2DOU98SGLOEGIEB,35USIKEBNVWYXTS8UOT5QWGCNTKN6A,4,3
243,2,object_04,object_06,927.0,4,1,-1.0,0.0,2,object_07,5,3644,0,0,6,forest_7,1,memory-2step-stake-s,743,3717628,0.0-19.0-0.1-0.243,A17K1CHOI773VZ,3SNR5F7RA597AOC2DOU98SGLOEGIEB,35USIKEBNVWYXTS8UOT5QWGCNTKN6A,4,3
244,2,object_04,object_06,722.0,3,2,368.0,0.0,1,object_08,1,3644,0,0,3,forest_7,1,memory-2step-stake-s,744,3725269,0.0-19.0-0.1-0.244,A17K1CHOI773VZ,3SNR5F7RA597AOC2DOU98SGLOEGIEB,35USIKEBNVWYXTS8UOT5QWGCNTKN6A,4,3
245,4,object_02,object_10,1375.3999999762,7,2,376.5,0.2222222222222222,1,object_08,5,3654,0,2,7,restaurant_8,1,memory-2step-stake-s,745,3733124,0.0-19.0-0.1-0.245,A17K1CHOI773VZ,3SNR5F7RA597AOC2DOU98SGLOEGIEB,35USIKEBNVWYXTS8UOT5QWGCNTKN6A,8,7
246,2,object_06,object_04,907.60000002384,4,2,551.5,0.4444444444444444,2,object_07,5,3674,0,1,4,forest_7,1,memory-2step-stake-s,746,3741373,0.0-19.0-0.1-0.246,A17K1CHOI773VZ,3SNR5F7RA597AOC2DOU98SGLOEGIEB,35USIKEBNVWYXTS8UOT5QWGCNTKN6A,3,4
247,4,object_10,object_02,863.39999997616,7,1,488.10000002384,0.1111111111111111,1,object_08,5,3679,0,1,3,restaurant_2,1,memory-2step-stake-s,747,3749224,0.0-19.0-0.1-0.247,A17K1CHOI773VZ,3SNR5F7RA597AOC2DOU98SGLOEGIEB,35USIKEBNVWYXTS8UOT5QWGCNTKN6A,7,8
248,1,object_01,object_09,759.5,1,2,347.60000002384,0.4444444444444444,1,object_08,1,3683,0,4,4,desert_2,1,memory-2step-stake-s,748,3757261,0.0-19.0-0.1-0.248,A17K1CHOI773VZ,3SNR5F7RA597AOC2DOU98SGLOEGIEB,35USIKEBNVWYXTS8UOT5QWGCNTKN6A,2,1
249,1,object_09,object_01,707.10000002384,2,2,237.90000009537,0.8888888888888888,2,object_07,1,3691,0,4,8,desert_8,1,memory-2step-stake-s,749,3765574,0.0-19.0-0.1-0.249,A17K1CHOI773VZ,3SNR5F7RA597AOC2DOU98SGLOEGIEB,35USIKEBNVWYXTS8UOT5QWGCNTKN6A,1,2
250,2,object_06,object_04,898.70000004768,4,2,339.29999995232,0.7777777777777778,2,object_07,5,3726,0,5,7,forest_5,1,memory-2step-stake-s,750,3773887,0.0-19.0-0.1-0.250,A17K1CHOI773VZ,3SNR5F7RA597AOC2DOU98SGLOEGIEB,35USIKEBNVWYXTS8UOT5QWGCNTKN6A,3,4
251,4,object_10,object_02,754.0,7,1,728.0,0.4444444444444444,1,object_08,5,3746,0,4,8,restaurant_2,1,memory-2step-stake-s,751,3782303,0.0-19.0-0.1-0.251,A17K1CHOI773VZ,3SNR5F7RA597AOC2DOU98SGLOEGIEB,35USIKEBNVWYXTS8UOT5QWGCNTKN6A,7,8
252,4,object_02,object_10,762.10000002384,7,2,539.70000004768,0.6666666666666666,1,object_08,5,3776,0,6,6,restaurant_4,1,memory-2step-stake-s,752,3790730,0.0-19.0-0.1-0.252,A17K1CHOI773VZ,3SNR5F7RA597AOC2DOU98SGLOEGIEB,35USIKEBNVWYXTS8UOT5QWGCNTKN6A,8,7
253,2,object_04,object_06,1092.1000000238,3,2,421.5,0.5555555555555556,1,object_08,5,3801,0,5,7,forest_6,1,memory-2step-stake-s,753,3798941,0.0-19.0-0.1-0.253,A17K1CHOI773VZ,3SNR5F7RA597AOC2DOU98SGLOEGIEB,35USIKEBNVWYXTS8UOT5QWGCNTKN6A,4,3
254,2,object_04,object_06,736.5,4,1,362.10000002384,0.6666666666666666,2,object_07,5,3831,0,1,6,forest_4,1,memory-2step-stake-s,754,3807213,0.0-19.0-0.1-0.254,A17K1CHOI773VZ,3SNR5F7RA597AOC2DOU98SGLOEGIEB,35USIKEBNVWYXTS8UOT5QWGCNTKN6A,4,3
255,3,object_03,object_05,774.5,6,1,518.5,0.6666666666666666,2,object_07,5,3861,0,2,6,library_1,1,memory-2step-stake-s,755,3815615,0.0-19.0-0.1-0.255,A17K1CHOI773VZ,3SNR5F7RA597AOC2DOU98SGLOEGIEB,35USIKEBNVWYXTS8UOT5QWGCNTKN6A,6,5
