,state1,stim_left,stim_right,rt_1,choice1,response1,rt_2,points,state2,stim_state2,stake,score,practice,rews1,rews2,background,high_arm,trial_type,trial_index,time_elapsed,internal_node_id,subid,hitid,assignmentid,stim_left_num,stim_right_num
0,4,object_03,object_05,-1.0,-1,-1,-1.0,0.0,-,0,1,0,0,3,1,restaurant_1,2,memory-2step-stake-s,497,942112,0.0-19.0-0.0-0.0,A1LLAP0EV74WMS,3X52SWXE10LAELCT6ESTJVPQIDRWCT,3ON104KXQOCA50X831RDPH9PKCC4WN,7,8
1,1,object_08,object_09,918.60000000149,2,2,1315.3000000045,0.3333333333333333,2,object_01,5,15,0,5,3,desert_8,2,memory-2step-stake-s,498,950954,0.0-19.0-0.0-0.1,A1LLAP0EV74WMS,3X52SWXE10LAELCT6ESTJVPQIDRWCT,3ON104KXQOCA50X831RDPH9PKCC4WN,1,2
2,3,object_06,object_10,884.79999999702,5,1,1381.299999997,0.8888888888888888,1,object_04,1,23,0,8,2,library_4,2,memory-2step-stake-s,499,960363,0.0-19.0-0.0-0.2,A1LLAP0EV74WMS,3X52SWXE10LAELCT6ESTJVPQIDRWCT,3ON104KXQOCA50X831RDPH9PKCC4WN,5,6
3,4,object_03,object_05,764.89999999851,8,2,1283.200000003,0.4444444444444444,2,object_01,1,27,0,7,4,restaurant_2,2,memory-2step-stake-s,500,969270,0.0-19.0-0.0-0.3,A1LLAP0EV74WMS,3X52SWXE10LAELCT6ESTJVPQIDRWCT,3ON104KXQOCA50X831RDPH9PKCC4WN,7,8
4,2,object_02,object_07,1347.0,3,2,1144.1999999955,0.8888888888888888,1,object_04,5,67,0,8,3,forest_6,2,memory-2step-stake-s,501,978443,0.0-19.0-0.0-0.4,A1LLAP0EV74WMS,3X52SWXE10LAELCT6ESTJVPQIDRWCT,3ON104KXQOCA50X831RDPH9PKCC4WN,4,3
5,3,object_10,object_06,-1.0,-1,-1,-1.0,0.0,-,0,1,67,0,8,2,library_3,2,memory-2step-stake-s,502,984956,0.0-19.0-0.0-0.5,A1LLAP0EV74WMS,3X52SWXE10LAELCT6ESTJVPQIDRWCT,3ON104KXQOCA50X831RDPH9PKCC4WN,6,5
6,4,object_05,object_03,341.70000000298,8,1,392.40000000596,0.0,2,object_01,1,67,0,8,0,restaurant_1,2,memory-2step-stake-s,503,992564,0.0-19.0-0.0-0.6,A1LLAP0EV74WMS,3X52SWXE10LAELCT6ESTJVPQIDRWCT,3ON104KXQOCA50X831RDPH9PKCC4WN,8,7
7,2,object_02,object_07,638.79999999702,3,2,405.20000000298,0.5555555555555556,1,object_04,5,92,0,5,1,forest_6,2,memory-2step-stake-s,504,1000712,0.0-19.0-0.0-0.7,A1LLAP0EV74WMS,3X52SWXE10LAELCT6ESTJVPQIDRWCT,3ON104KXQOCA50X831RDPH9PKCC4WN,4,3
8,3,object_10,object_06,934.10000000149,6,1,729.0,0.3333333333333333,2,object_01,1,95,0,7,3,library_3,2,memory-2step-stake-s,505,1008963,0.0-19.0-0.0-0.8,A1LLAP0EV74WMS,3X52SWXE10LAELCT6ESTJVPQIDRWCT,3ON104KXQOCA50X831RDPH9PKCC4WN,6,5
9,2,object_07,object_02,499.60000000149,4,2,318.89999999851,0.1111111111111111,2,object_01,1,96,0,6,1,forest_6,2,memory-2step-stake-s,506,1016602,0.0-19.0-0.0-0.9,A1LLAP0EV74WMS,3X52SWXE10LAELCT6ESTJVPQIDRWCT,3ON104KXQOCA50X831RDPH9PKCC4WN,3,4
10,1,object_08,object_09,845.60000000149,1,1,655.39999999851,0.8888888888888888,1,object_04,5,136,0,8,3,desert_8,2,memory-2step-stake-s,507,1025283,0.0-19.0-0.0-0.10,A1LLAP0EV74WMS,3X52SWXE10LAELCT6ESTJVPQIDRWCT,3ON104KXQOCA50X831RDPH9PKCC4WN,1,2
11,2,object_02,object_07,554.39999999851,3,2,464.39999999851,0.8888888888888888,1,object_04,5,176,0,8,3,forest_1,2,memory-2step-stake-s,508,1033772,0.0-19.0-0.0-0.11,A1LLAP0EV74WMS,3X52SWXE10LAELCT6ESTJVPQIDRWCT,3ON104KXQOCA50X831RDPH9PKCC4WN,4,3
12,3,object_10,object_06,502.5,6,1,784.5,0.2222222222222222,2,object_01,1,178,0,8,2,library_6,2,memory-2step-stake-s,509,1041971,0.0-19.0-0.0-0.12,A1LLAP0EV74WMS,3X52SWXE10LAELCT6ESTJVPQIDRWCT,3ON104KXQOCA50X831RDPH9PKCC4WN,6,5
13,1,object_09,object_08,586.20000000298,1,2,434.89999999851,0.8888888888888888,1,object_04,5,218,0,8,2,desert_4,2,memory-2step-stake-s,510,1050434,0.0-19.0-0.0-0.13,A1LLAP0EV74WMS,3X52SWXE10LAELCT6ESTJVPQIDRWCT,3ON104KXQOCA50X831RDPH9PKCC4WN,2,1
14,3,object_06,object_10,959.20000000298,6,2,367.5,0.3333333333333333,2,object_01,1,221,0,7,3,library_7,2,memory-2step-stake-s,511,1058319,0.0-19.0-0.0-0.14,A1LLAP0EV74WMS,3X52SWXE10LAELCT6ESTJVPQIDRWCT,3ON104KXQOCA50X831RDPH9PKCC4WN,5,6
15,2,object_02,object_07,503.39999999851,3,2,724.29999999702,0.7777777777777778,1,object_04,5,256,0,7,4,forest_3,2,memory-2step-stake-s,512,1066973,0.0-19.0-0.0-0.15,A1LLAP0EV74WMS,3X52SWXE10LAELCT6ESTJVPQIDRWCT,3ON104KXQOCA50X831RDPH9PKCC4WN,4,3
16,1,object_09,object_08,702.90000000596,1,2,463.89999999851,0.8888888888888888,1,object_04,5,296,0,8,6,desert_2,2,memory-2step-stake-s,513,1075466,0.0-19.0-0.0-0.16,A1LLAP0EV74WMS,3X52SWXE10LAELCT6ESTJVPQIDRWCT,3ON104KXQOCA50X831RDPH9PKCC4WN,2,1
17,3,object_10,object_06,1079.8999999985,5,2,476.0,0.7777777777777778,1,object_04,1,303,0,7,6,library_7,2,memory-2step-stake-s,514,1083863,0.0-19.0-0.0-0.17,A1LLAP0EV74WMS,3X52SWXE10LAELCT6ESTJVPQIDRWCT,3ON104KXQOCA50X831RDPH9PKCC4WN,6,5
18,1,object_09,object_08,644.10000000149,1,2,580.69999999553,0.6666666666666666,1,object_04,5,333,0,6,9,desert_2,2,memory-2step-stake-s,515,1092262,0.0-19.0-0.0-0.18,A1LLAP0EV74WMS,3X52SWXE10LAELCT6ESTJVPQIDRWCT,3ON104KXQOCA50X831RDPH9PKCC4WN,2,1
19,4,object_05,object_03,1243.0,8,1,521.0,0.6666666666666666,2,object_01,5,363,0,6,6,restaurant_4,2,memory-2step-stake-s,516,1100615,0.0-19.0-0.0-0.19,A1LLAP0EV74WMS,3X52SWXE10LAELCT6ESTJVPQIDRWCT,3ON104KXQOCA50X831RDPH9PKCC4WN,8,7
20,2,object_07,object_02,606.70000000298,3,1,457.19999999553,0.7777777777777778,1,object_04,1,370,0,7,6,forest_6,2,memory-2step-stake-s,517,1109011,0.0-19.0-0.0-0.20,A1LLAP0EV74WMS,3X52SWXE10LAELCT6ESTJVPQIDRWCT,3ON104KXQOCA50X831RDPH9PKCC4WN,3,4
21,2,object_02,object_07,509.29999999702,3,2,671.69999999553,0.5555555555555556,1,object_04,5,395,0,5,7,forest_1,2,memory-2step-stake-s,518,1117414,0.0-19.0-0.0-0.21,A1LLAP0EV74WMS,3X52SWXE10LAELCT6ESTJVPQIDRWCT,3ON104KXQOCA50X831RDPH9PKCC4WN,4,3
22,2,object_02,object_07,503.39999999851,3,2,421.10000000149,0.5555555555555556,1,object_04,5,420,0,5,8,forest_2,2,memory-2step-stake-s,519,1125559,0.0-19.0-0.0-0.22,A1LLAP0EV74WMS,3X52SWXE10LAELCT6ESTJVPQIDRWCT,3ON104KXQOCA50X831RDPH9PKCC4WN,4,3
23,3,object_06,object_10,1122.1000000015,5,1,412.5,0.4444444444444444,1,object_04,1,424,0,4,7,library_6,2,memory-2step-stake-s,520,1133591,0.0-19.0-0.0-0.23,A1LLAP0EV74WMS,3X52SWXE10LAELCT6ESTJVPQIDRWCT,3ON104KXQOCA50X831RDPH9PKCC4WN,5,6
24,1,object_09,object_08,684.29999999702,1,2,720.29999999702,0.3333333333333333,1,object_04,5,439,0,3,7,desert_8,2,memory-2step-stake-s,521,1141830,0.0-19.0-0.0-0.24,A1LLAP0EV74WMS,3X52SWXE10LAELCT6ESTJVPQIDRWCT,3ON104KXQOCA50X831RDPH9PKCC4WN,2,1
25,2,object_07,object_02,564.60000000149,4,2,541.89999999851,0.5555555555555556,2,object_01,5,464,0,4,5,forest_1,2,memory-2step-stake-s,522,1150092,0.0-19.0-0.0-0.25,A1LLAP0EV74WMS,3X52SWXE10LAELCT6ESTJVPQIDRWCT,3ON104KXQOCA50X831RDPH9PKCC4WN,3,4
26,1,object_09,object_08,624.30000000447,2,1,530.60000000149,0.7777777777777778,2,object_01,5,499,0,2,7,desert_2,2,memory-2step-stake-s,523,1158542,0.0-19.0-0.0-0.26,A1LLAP0EV74WMS,3X52SWXE10LAELCT6ESTJVPQIDRWCT,3ON104KXQOCA50X831RDPH9PKCC4WN,2,1
27,1,object_09,object_08,951.69999999553,2,1,625.29999999702,0.8888888888888888,2,object_01,5,539,0,2,8,desert_2,2,memory-2step-stake-s,524,1167192,0.0-19.0-0.0-0.27,A1LLAP0EV74WMS,3X52SWXE10LAELCT6ESTJVPQIDRWCT,3ON104KXQOCA50X831RDPH9PKCC4WN,2,1
28,4,object_05,object_03,1377.3999999985,7,2,753.0,0.1111111111111111,1,object_04,1,540,0,1,8,restaurant_2,2,memory-2step-stake-s,525,1175259,0.0-19.0-0.0-0.28,A1LLAP0EV74WMS,3X52SWXE10LAELCT6ESTJVPQIDRWCT,3ON104KXQOCA50X831RDPH9PKCC4WN,8,7
29,4,object_03,object_05,1354.400000006,7,1,683.30000000447,0.1111111111111111,1,object_04,1,541,0,1,8,restaurant_2,2,memory-2step-stake-s,526,1183257,0.0-19.0-0.0-0.29,A1LLAP0EV74WMS,3X52SWXE10LAELCT6ESTJVPQIDRWCT,3ON104KXQOCA50X831RDPH9PKCC4WN,7,8
30,1,object_08,object_09,1002.6000000015,2,2,688.09999999404,1.0,2,object_01,1,550,0,0,9,desert_2,2,memory-2step-stake-s,527,1192079,0.0-19.0-0.0-0.30,A1LLAP0EV74WMS,3X52SWXE10LAELCT6ESTJVPQIDRWCT,3ON104KXQOCA50X831RDPH9PKCC4WN,1,2
31,4,object_03,object_05,594.40000000596,8,2,332.70000000298,0.7777777777777778,2,object_01,1,557,0,0,7,restaurant_2,2,memory-2step-stake-s,528,1200338,0.0-19.0-0.0-0.31,A1LLAP0EV74WMS,3X52SWXE10LAELCT6ESTJVPQIDRWCT,3ON104KXQOCA50X831RDPH9PKCC4WN,7,8
32,1,object_09,object_08,637.39999999851,2,1,830.79999999702,0.4444444444444444,2,object_01,5,577,0,1,4,desert_4,2,memory-2step-stake-s,529,1208789,0.0-19.0-0.0-0.32,A1LLAP0EV74WMS,3X52SWXE10LAELCT6ESTJVPQIDRWCT,3ON104KXQOCA50X831RDPH9PKCC4WN,2,1
33,2,object_07,object_02,719.69999999553,3,1,441.5,0.2222222222222222,1,object_04,5,587,0,2,8,forest_1,2,memory-2step-stake-s,530,1216649,0.0-19.0-0.0-0.33,A1LLAP0EV74WMS,3X52SWXE10LAELCT6ESTJVPQIDRWCT,3ON104KXQOCA50X831RDPH9PKCC4WN,3,4
34,1,object_09,object_08,891.20000000298,2,1,314.89999999851,0.7777777777777778,2,object_01,5,622,0,4,7,desert_2,2,memory-2step-stake-s,531,1224889,0.0-19.0-0.0-0.34,A1LLAP0EV74WMS,3X52SWXE10LAELCT6ESTJVPQIDRWCT,3ON104KXQOCA50X831RDPH9PKCC4WN,2,1
35,4,object_03,object_05,1143.200000003,8,2,437.10000000149,0.8888888888888888,2,object_01,1,630,0,0,8,restaurant_3,2,memory-2step-stake-s,532,1233348,0.0-19.0-0.0-0.35,A1LLAP0EV74WMS,3X52SWXE10LAELCT6ESTJVPQIDRWCT,3ON104KXQOCA50X831RDPH9PKCC4WN,7,8
36,1,object_08,object_09,1143.3000000045,2,2,713.79999999702,1.0,2,object_01,5,675,0,1,9,desert_8,2,memory-2step-stake-s,533,1242192,0.0-19.0-0.0-0.36,A1LLAP0EV74WMS,3X52SWXE10LAELCT6ESTJVPQIDRWCT,3ON104KXQOCA50X831RDPH9PKCC4WN,1,2
37,4,object_05,object_03,1467.8999999985,8,1,540.19999999553,0.6666666666666666,2,object_01,1,681,0,1,6,restaurant_3,2,memory-2step-stake-s,534,1250554,0.0-19.0-0.0-0.37,A1LLAP0EV74WMS,3X52SWXE10LAELCT6ESTJVPQIDRWCT,3ON104KXQOCA50X831RDPH9PKCC4WN,8,7
38,4,object_05,object_03,988.89999999851,7,2,697.30000000447,0.2222222222222222,1,object_04,1,683,0,2,7,restaurant_4,2,memory-2step-stake-s,535,1258669,0.0-19.0-0.0-0.38,A1LLAP0EV74WMS,3X52SWXE10LAELCT6ESTJVPQIDRWCT,3ON104KXQOCA50X831RDPH9PKCC4WN,8,7
39,2,object_07,object_02,983.60000000149,4,2,-1.0,0.0,2,object_01,5,683,0,0,5,forest_1,2,memory-2step-stake-s,536,1267182,0.0-19.0-0.0-0.39,A1LLAP0EV74WMS,3X52SWXE10LAELCT6ESTJVPQIDRWCT,3ON104KXQOCA50X831RDPH9PKCC4WN,3,4
40,1,object_09,object_08,717.89999999851,2,1,398.10000000149,0.8888888888888888,2,object_01,1,691,0,2,8,desert_4,2,memory-2step-stake-s,537,1275604,0.0-19.0-0.0-0.40,A1LLAP0EV74WMS,3X52SWXE10LAELCT6ESTJVPQIDRWCT,3ON104KXQOCA50X831RDPH9PKCC4WN,2,1
41,4,object_03,object_05,969.79999999702,8,2,323.59999999404,0.3333333333333333,2,object_01,1,694,0,3,3,restaurant_2,2,memory-2step-stake-s,538,1283455,0.0-19.0-0.0-0.41,A1LLAP0EV74WMS,3X52SWXE10LAELCT6ESTJVPQIDRWCT,3ON104KXQOCA50X831RDPH9PKCC4WN,7,8
42,3,object_06,object_10,1097.5,5,1,354.29999999702,0.2222222222222222,1,object_04,5,704,0,2,4,library_4,2,memory-2step-stake-s,539,1291223,0.0-19.0-0.0-0.42,A1LLAP0EV74WMS,3X52SWXE10LAELCT6ESTJVPQIDRWCT,3ON104KXQOCA50X831RDPH9PKCC4WN,5,6
43,4,object_05,object_03,1125.5,8,1,408.5,0.7777777777777778,2,object_01,1,711,0,1,7,restaurant_4,2,memory-2step-stake-s,540,1299553,0.0-19.0-0.0-0.43,A1LLAP0EV74WMS,3X52SWXE10LAELCT6ESTJVPQIDRWCT,3ON104KXQOCA50X831RDPH9PKCC4WN,8,7
44,1,object_08,object_09,1016.8999999985,2,2,647.5,0.7777777777777778,2,object_01,5,746,0,1,7,desert_2,2,memory-2step-stake-s,541,1308125,0.0-19.0-0.0-0.44,A1LLAP0EV74WMS,3X52SWXE10LAELCT6ESTJVPQIDRWCT,3ON104KXQOCA50X831RDPH9PKCC4WN,1,2
45,1,object_09,object_08,903.0,2,1,640.10000000149,0.4444444444444444,2,object_01,5,766,0,1,4,desert_2,2,memory-2step-stake-s,542,1316382,0.0-19.0-0.0-0.45,A1LLAP0EV74WMS,3X52SWXE10LAELCT6ESTJVPQIDRWCT,3ON104KXQOCA50X831RDPH9PKCC4WN,2,1
46,1,object_08,object_09,890.60000000149,2,2,579.10000000149,0.5555555555555556,2,object_01,5,791,0,1,5,desert_7,2,memory-2step-stake-s,543,1324685,0.0-19.0-0.0-0.46,A1LLAP0EV74WMS,3X52SWXE10LAELCT6ESTJVPQIDRWCT,3ON104KXQOCA50X831RDPH9PKCC4WN,1,2
47,3,object_10,object_06,776.20000000298,6,1,257.90000000596,0.6666666666666666,2,object_01,1,797,0,0,6,library_4,2,memory-2step-stake-s,544,1332772,0.0-19.0-0.0-0.47,A1LLAP0EV74WMS,3X52SWXE10LAELCT6ESTJVPQIDRWCT,3ON104KXQOCA50X831RDPH9PKCC4WN,6,5
48,2,object_07,object_02,785.39999999851,3,1,613.89999999851,0.1111111111111111,1,object_04,5,802,0,1,3,forest_6,2,memory-2step-stake-s,545,1340708,0.0-19.0-0.0-0.48,A1LLAP0EV74WMS,3X52SWXE10LAELCT6ESTJVPQIDRWCT,3ON104KXQOCA50X831RDPH9PKCC4WN,3,4
49,3,object_10,object_06,1283.1000000015,5,2,388.90000000596,0.2222222222222222,1,object_04,1,804,0,2,4,library_6,2,memory-2step-stake-s,546,1348513,0.0-19.0-0.0-0.49,A1LLAP0EV74WMS,3X52SWXE10LAELCT6ESTJVPQIDRWCT,3ON104KXQOCA50X831RDPH9PKCC4WN,6,5
50,1,object_08,object_09,886.0,2,2,1093.299999997,0.7777777777777778,2,object_01,5,839,0,3,7,desert_8,2,memory-2step-stake-s,547,1357533,0.0-19.0-0.0-0.50,A1LLAP0EV74WMS,3X52SWXE10LAELCT6ESTJVPQIDRWCT,3ON104KXQOCA50X831RDPH9PKCC4WN,1,2
51,3,object_06,object_10,1340.6999999955,6,2,463.69999999553,0.7777777777777778,2,object_01,5,874,0,0,7,library_7,2,memory-2step-stake-s,548,1365920,0.0-19.0-0.0-0.51,A1LLAP0EV74WMS,3X52SWXE10LAELCT6ESTJVPQIDRWCT,3ON104KXQOCA50X831RDPH9PKCC4WN,5,6
52,2,object_07,object_02,853.40000000596,4,2,535.80000000447,0.7777777777777778,2,object_01,5,909,0,2,7,forest_3,2,memory-2step-stake-s,549,1374377,0.0-19.0-0.0-0.52,A1LLAP0EV74WMS,3X52SWXE10LAELCT6ESTJVPQIDRWCT,3ON104KXQOCA50X831RDPH9PKCC4WN,3,4
53,2,object_02,object_07,949.09999999404,4,1,636.80000000447,0.8888888888888888,2,object_01,5,949,0,3,8,forest_1,2,memory-2step-stake-s,550,1383047,0.0-19.0-0.0-0.53,A1LLAP0EV74WMS,3X52SWXE10LAELCT6ESTJVPQIDRWCT,3ON104KXQOCA50X831RDPH9PKCC4WN,4,3
54,4,object_03,object_05,-1.0,-1,-1,-1.0,0.0,-,0,1,949,0,1,9,restaurant_4,2,memory-2step-stake-s,551,1389555,0.0-19.0-0.0-0.54,A1LLAP0EV74WMS,3X52SWXE10LAELCT6ESTJVPQIDRWCT,3ON104KXQOCA50X831RDPH9PKCC4WN,7,8
55,3,object_10,object_06,927.80000000447,5,2,281.89999999851,0.1111111111111111,1,object_04,1,950,0,1,8,library_7,2,memory-2step-stake-s,552,1397153,0.0-19.0-0.0-0.55,A1LLAP0EV74WMS,3X52SWXE10LAELCT6ESTJVPQIDRWCT,3ON104KXQOCA50X831RDPH9PKCC4WN,6,5
56,1,object_08,object_09,725.80000000447,2,2,396.80000000447,0.5555555555555556,2,object_01,5,975,0,1,5,desert_7,2,memory-2step-stake-s,553,1405281,0.0-19.0-0.0-0.56,A1LLAP0EV74WMS,3X52SWXE10LAELCT6ESTJVPQIDRWCT,3ON104KXQOCA50X831RDPH9PKCC4WN,1,2
57,2,object_07,object_02,802.39999999851,4,2,517.90000000596,0.4444444444444444,2,object_01,5,995,0,1,4,forest_3,2,memory-2step-stake-s,554,1413415,0.0-19.0-0.0-0.57,A1LLAP0EV74WMS,3X52SWXE10LAELCT6ESTJVPQIDRWCT,3ON104KXQOCA50X831RDPH9PKCC4WN,3,4
58,1,object_08,object_09,577.0,2,2,308.69999999553,0.5555555555555556,2,object_01,5,1020,0,0,5,desert_7,2,memory-2step-stake-s,555,1421447,0.0-19.0-0.0-0.58,A1LLAP0EV74WMS,3X52SWXE10LAELCT6ESTJVPQIDRWCT,3ON104KXQOCA50X831RDPH9PKCC4WN,1,2
59,3,object_10,object_06,1285.400000006,5,2,571.30000000447,0.1111111111111111,1,object_04,1,1021,0,1,1,library_7,2,memory-2step-stake-s,556,1429348,0.0-19.0-0.0-0.59,A1LLAP0EV74WMS,3X52SWXE10LAELCT6ESTJVPQIDRWCT,3ON104KXQOCA50X831RDPH9PKCC4WN,6,5
60,2,object_07,object_02,554.39999999851,4,2,396.0,0.1111111111111111,2,object_01,1,1022,0,2,1,forest_6,2,memory-2step-stake-s,557,1437081,0.0-19.0-0.0-0.60,A1LLAP0EV74WMS,3X52SWXE10LAELCT6ESTJVPQIDRWCT,3ON104KXQOCA50X831RDPH9PKCC4WN,3,4
61,3,object_10,object_06,961.0,5,2,542.89999999851,0.1111111111111111,1,object_04,1,1023,0,1,3,library_4,2,memory-2step-stake-s,558,1444937,0.0-19.0-0.0-0.61,A1LLAP0EV74WMS,3X52SWXE10LAELCT6ESTJVPQIDRWCT,3ON104KXQOCA50X831RDPH9PKCC4WN,6,5
62,2,object_02,object_07,804.70000000298,4,1,944.19999999553,0.4444444444444444,2,object_01,5,1043,0,3,4,forest_6,2,memory-2step-stake-s,559,1453504,0.0-19.0-0.0-0.62,A1LLAP0EV74WMS,3X52SWXE10LAELCT6ESTJVPQIDRWCT,3ON104KXQOCA50X831RDPH9PKCC4WN,4,3
63,4,object_03,object_05,835.90000000596,8,2,473.70000000298,0.3333333333333333,2,object_01,1,1046,0,2,3,restaurant_4,2,memory-2step-stake-s,560,1461495,0.0-19.0-0.0-0.63,A1LLAP0EV74WMS,3X52SWXE10LAELCT6ESTJVPQIDRWCT,3ON104KXQOCA50X831RDPH9PKCC4WN,7,8
64,3,object_10,object_06,1365.0,5,2,319.39999999851,0.2222222222222222,1,object_04,1,1048,0,2,6,library_3,2,memory-2step-stake-s,561,1469232,0.0-19.0-0.0-0.64,A1LLAP0EV74WMS,3X52SWXE10LAELCT6ESTJVPQIDRWCT,3ON104KXQOCA50X831RDPH9PKCC4WN,6,5
65,1,object_09,object_08,691.20000000298,2,1,485.10000000149,1.0,2,object_01,1,1057,0,1,9,desert_8,2,memory-2step-stake-s,562,1477849,0.0-19.0-0.0-0.65,A1LLAP0EV74WMS,3X52SWXE10LAELCT6ESTJVPQIDRWCT,3ON104KXQOCA50X831RDPH9PKCC4WN,2,1
66,1,object_09,object_08,692.70000000298,2,1,482.10000000149,0.7777777777777778,2,object_01,5,1092,0,1,7,desert_8,2,memory-2step-stake-s,563,1486255,0.0-19.0-0.0-0.66,A1LLAP0EV74WMS,3X52SWXE10LAELCT6ESTJVPQIDRWCT,3ON104KXQOCA50X831RDPH9PKCC4WN,2,1
67,1,object_08,object_09,555.20000000298,2,2,364.29999999702,0.6666666666666666,2,object_01,1,1098,0,2,6,desert_2,2,memory-2step-stake-s,564,1494442,0.0-19.0-0.0-0.67,A1LLAP0EV74WMS,3X52SWXE10LAELCT6ESTJVPQIDRWCT,3ON104KXQOCA50X831RDPH9PKCC4WN,1,2
68,3,object_10,object_06,987.5,6,1,321.5,0.6666666666666666,2,object_01,1,1104,0,2,6,library_7,2,memory-2step-stake-s,565,1502587,0.0-19.0-0.0-0.68,A1LLAP0EV74WMS,3X52SWXE10LAELCT6ESTJVPQIDRWCT,3ON104KXQOCA50X831RDPH9PKCC4WN,6,5
69,3,object_10,object_06,996.70000000298,6,1,402.60000000149,0.6666666666666666,2,object_01,1,1110,0,3,6,library_3,2,memory-2step-stake-s,566,1510815,0.0-19.0-0.0-0.69,A1LLAP0EV74WMS,3X52SWXE10LAELCT6ESTJVPQIDRWCT,3ON104KXQOCA50X831RDPH9PKCC4WN,6,5
70,4,object_05,object_03,838.09999999404,8,1,414.29999999702,0.7777777777777778,2,object_01,1,1117,0,1,7,restaurant_4,2,memory-2step-stake-s,567,1519152,0.0-19.0-0.0-0.70,A1LLAP0EV74WMS,3X52SWXE10LAELCT6ESTJVPQIDRWCT,3ON104KXQOCA50X831RDPH9PKCC4WN,8,7
71,1,object_08,object_09,631.89999999851,2,2,447.0,0.7777777777777778,2,object_01,5,1152,0,2,7,desert_4,2,memory-2step-stake-s,568,1527520,0.0-19.0-0.0-0.71,A1LLAP0EV74WMS,3X52SWXE10LAELCT6ESTJVPQIDRWCT,3ON104KXQOCA50X831RDPH9PKCC4WN,1,2
72,1,object_08,object_09,788.89999999851,2,2,416.19999999553,0.8888888888888888,2,object_01,5,1192,0,5,8,desert_8,2,memory-2step-stake-s,569,1535960,0.0-19.0-0.0-0.72,A1LLAP0EV74WMS,3X52SWXE10LAELCT6ESTJVPQIDRWCT,3ON104KXQOCA50X831RDPH9PKCC4WN,1,2
73,4,object_05,object_03,1133.400000006,8,1,620.39999999851,0.7777777777777778,2,object_01,1,1199,0,4,7,restaurant_1,2,memory-2step-stake-s,570,1544503,0.0-19.0-0.0-0.73,A1LLAP0EV74WMS,3X52SWXE10LAELCT6ESTJVPQIDRWCT,3ON104KXQOCA50X831RDPH9PKCC4WN,8,7
74,2,object_07,object_02,1055.5,4,2,379.5,1.0,2,object_01,5,1244,0,3,9,forest_3,2,memory-2step-stake-s,571,1553013,0.0-19.0-0.0-0.74,A1LLAP0EV74WMS,3X52SWXE10LAELCT6ESTJVPQIDRWCT,3ON104KXQOCA50X831RDPH9PKCC4WN,3,4
75,1,object_09,object_08,750.30000000447,2,1,578.0,0.8888888888888888,2,object_01,1,1252,0,3,8,desert_7,2,memory-2step-stake-s,572,1561614,0.0-19.0-0.0-0.75,A1LLAP0EV74WMS,3X52SWXE10LAELCT6ESTJVPQIDRWCT,3ON104KXQOCA50X831RDPH9PKCC4WN,2,1
76,4,object_03,object_05,892.29999999702,8,2,396.29999999702,0.8888888888888888,2,object_01,1,1260,0,5,8,restaurant_3,2,memory-2step-stake-s,573,1570036,0.0-19.0-0.0-0.76,A1LLAP0EV74WMS,3X52SWXE10LAELCT6ESTJVPQIDRWCT,3ON104KXQOCA50X831RDPH9PKCC4WN,7,8
77,2,object_02,object_07,689.10000000149,4,1,311.70000000298,0.7777777777777778,2,object_01,5,1295,0,5,7,forest_3,2,memory-2step-stake-s,574,1578275,0.0-19.0-0.0-0.77,A1LLAP0EV74WMS,3X52SWXE10LAELCT6ESTJVPQIDRWCT,3ON104KXQOCA50X831RDPH9PKCC4WN,4,3
78,2,object_07,object_02,784.30000000447,4,2,618.29999999702,0.8888888888888888,2,object_01,5,1335,0,5,8,forest_1,2,memory-2step-stake-s,575,1586931,0.0-19.0-0.0-0.78,A1LLAP0EV74WMS,3X52SWXE10LAELCT6ESTJVPQIDRWCT,3ON104KXQOCA50X831RDPH9PKCC4WN,3,4
79,4,object_03,object_05,700.09999999404,8,2,519.39999999851,0.7777777777777778,2,object_01,1,1342,0,4,7,restaurant_3,2,memory-2step-stake-s,576,1595378,0.0-19.0-0.0-0.79,A1LLAP0EV74WMS,3X52SWXE10LAELCT6ESTJVPQIDRWCT,3ON104KXQOCA50X831RDPH9PKCC4WN,7,8
80,2,object_02,object_07,665.5,4,1,593.39999999851,0.8888888888888888,2,object_01,5,1382,0,4,8,forest_2,2,memory-2step-stake-s,577,1603994,0.0-19.0-0.0-0.80,A1LLAP0EV74WMS,3X52SWXE10LAELCT6ESTJVPQIDRWCT,3ON104KXQOCA50X831RDPH9PKCC4WN,4,3
81,4,object_05,object_03,800.0,8,1,498.19999999553,1.0,2,object_01,1,1391,0,0,9,restaurant_3,2,memory-2step-stake-s,578,1612619,0.0-19.0-0.0-0.81,A1LLAP0EV74WMS,3X52SWXE10LAELCT6ESTJVPQIDRWCT,3ON104KXQOCA50X831RDPH9PKCC4WN,8,7
82,1,object_08,object_09,609.40000000596,2,2,503.60000000149,0.7777777777777778,2,object_01,5,1426,0,1,7,desert_8,2,memory-2step-stake-s,579,1621045,0.0-19.0-0.0-0.82,A1LLAP0EV74WMS,3X52SWXE10LAELCT6ESTJVPQIDRWCT,3ON104KXQOCA50X831RDPH9PKCC4WN,1,2
83,2,object_07,object_02,537.30000000447,4,2,319.40000000596,1.0,2,object_01,1,1435,0,0,9,forest_3,2,memory-2step-stake-s,580,1629490,0.0-19.0-0.0-0.83,A1LLAP0EV74WMS,3X52SWXE10LAELCT6ESTJVPQIDRWCT,3ON104KXQOCA50X831RDPH9PKCC4WN,3,4
84,3,object_06,object_10,958.60000000149,6,2,475.40000000596,0.8888888888888888,2,object_01,1,1443,0,2,8,library_6,2,memory-2step-stake-s,581,1637988,0.0-19.0-0.0-0.84,A1LLAP0EV74WMS,3X52SWXE10LAELCT6ESTJVPQIDRWCT,3ON104KXQOCA50X831RDPH9PKCC4WN,5,6
85,4,object_03,object_05,723.70000000298,8,2,517.70000000298,0.8888888888888888,2,object_01,1,1451,0,1,8,restaurant_2,2,memory-2step-stake-s,582,1646531,0.0-19.0-0.0-0.85,A1LLAP0EV74WMS,3X52SWXE10LAELCT6ESTJVPQIDRWCT,3ON104KXQOCA50X831RDPH9PKCC4WN,7,8
86,3,object_10,object_06,824.60000000149,6,1,451.20000000298,0.7777777777777778,2,object_01,1,1458,0,1,7,library_4,2,memory-2step-stake-s,583,1654907,0.0-19.0-0.0-0.86,A1LLAP0EV74WMS,3X52SWXE10LAELCT6ESTJVPQIDRWCT,3ON104KXQOCA50X831RDPH9PKCC4WN,6,5
87,1,object_08,object_09,620.20000000298,2,2,420.39999999851,0.8888888888888888,2,object_01,5,1498,0,2,8,desert_2,2,memory-2step-stake-s,584,1663356,0.0-19.0-0.0-0.87,A1LLAP0EV74WMS,3X52SWXE10LAELCT6ESTJVPQIDRWCT,3ON104KXQOCA50X831RDPH9PKCC4WN,1,2
88,4,object_05,object_03,865.70000000298,8,1,383.60000000149,1.0,2,object_01,1,1507,0,2,9,restaurant_1,2,memory-2step-stake-s,585,1671871,0.0-19.0-0.0-0.88,A1LLAP0EV74WMS,3X52SWXE10LAELCT6ESTJVPQIDRWCT,3ON104KXQOCA50X831RDPH9PKCC4WN,8,7
89,4,object_03,object_05,655.60000000149,8,2,387.60000000149,0.8888888888888888,2,object_01,5,1547,0,2,8,restaurant_1,2,memory-2step-stake-s,586,1680285,0.0-19.0-0.0-0.89,A1LLAP0EV74WMS,3X52SWXE10LAELCT6ESTJVPQIDRWCT,3ON104KXQOCA50X831RDPH9PKCC4WN,7,8
90,4,object_05,object_03,724.70000000298,8,1,749.20000000298,0.8888888888888888,2,object_01,1,1555,0,3,8,restaurant_4,2,memory-2step-stake-s,587,1689058,0.0-19.0-0.0-0.90,A1LLAP0EV74WMS,3X52SWXE10LAELCT6ESTJVPQIDRWCT,3ON104KXQOCA50X831RDPH9PKCC4WN,8,7
91,4,object_05,object_03,641.20000000298,8,1,357.5,0.7777777777777778,2,object_01,1,1562,0,5,7,restaurant_4,2,memory-2step-stake-s,588,1697347,0.0-19.0-0.0-0.91,A1LLAP0EV74WMS,3X52SWXE10LAELCT6ESTJVPQIDRWCT,3ON104KXQOCA50X831RDPH9PKCC4WN,8,7
92,2,object_02,object_07,774.69999999553,4,1,648.89999999851,1.0,2,object_01,1,1571,0,0,9,forest_2,2,memory-2step-stake-s,589,1706127,0.0-19.0-0.0-0.92,A1LLAP0EV74WMS,3X52SWXE10LAELCT6ESTJVPQIDRWCT,3ON104KXQOCA50X831RDPH9PKCC4WN,4,3
93,4,object_05,object_03,548.29999999702,8,1,482.10000000149,0.8888888888888888,2,object_01,1,1579,0,3,8,restaurant_3,2,memory-2step-stake-s,590,1714636,0.0-19.0-0.0-0.93,A1LLAP0EV74WMS,3X52SWXE10LAELCT6ESTJVPQIDRWCT,3ON104KXQOCA50X831RDPH9PKCC4WN,8,7
94,2,object_07,object_02,767.89999999851,4,2,413.89999999851,0.5555555555555556,2,object_01,5,1604,0,4,5,forest_1,2,memory-2step-stake-s,591,1722772,0.0-19.0-0.0-0.94,A1LLAP0EV74WMS,3X52SWXE10LAELCT6ESTJVPQIDRWCT,3ON104KXQOCA50X831RDPH9PKCC4WN,3,4
95,3,object_06,object_10,800.30000000447,6,2,306.69999999553,0.4444444444444444,2,object_01,1,1608,0,1,4,library_6,2,memory-2step-stake-s,592,1730699,0.0-19.0-0.0-0.95,A1LLAP0EV74WMS,3X52SWXE10LAELCT6ESTJVPQIDRWCT,3ON104KXQOCA50X831RDPH9PKCC4WN,5,6
96,2,object_07,object_02,526.79999999702,4,2,688.60000000149,0.2222222222222222,2,object_01,5,1618,0,1,2,forest_3,2,memory-2step-stake-s,593,1738806,0.0-19.0-0.0-0.96,A1LLAP0EV74WMS,3X52SWXE10LAELCT6ESTJVPQIDRWCT,3ON104KXQOCA50X831RDPH9PKCC4WN,3,4
97,4,object_05,object_03,801.79999999702,7,2,290.60000000149,0.3333333333333333,1,object_04,1,1621,0,3,0,restaurant_1,2,memory-2step-stake-s,594,1746615,0.0-19.0-0.0-0.97,A1LLAP0EV74WMS,3X52SWXE10LAELCT6ESTJVPQIDRWCT,3ON104KXQOCA50X831RDPH9PKCC4WN,8,7
98,1,object_08,object_09,855.10000000149,1,1,573.60000000149,0.4444444444444444,1,object_04,1,1625,0,4,2,desert_7,2,memory-2step-stake-s,595,1754815,0.0-19.0-0.0-0.98,A1LLAP0EV74WMS,3X52SWXE10LAELCT6ESTJVPQIDRWCT,3ON104KXQOCA50X831RDPH9PKCC4WN,1,2
99,4,object_03,object_05,791.0,7,1,614.39999999851,0.5555555555555556,1,object_04,1,1630,0,5,2,restaurant_2,2,memory-2step-stake-s,596,1763152,0.0-19.0-0.0-0.99,A1LLAP0EV74WMS,3X52SWXE10LAELCT6ESTJVPQIDRWCT,3ON104KXQOCA50X831RDPH9PKCC4WN,7,8
100,3,object_10,object_06,802.60000000149,5,2,1084.099999994,0.7777777777777778,1,object_04,5,1665,0,7,6,library_6,2,memory-2step-stake-s,597,1772160,0.0-19.0-0.0-0.100,A1LLAP0EV74WMS,3X52SWXE10LAELCT6ESTJVPQIDRWCT,3ON104KXQOCA50X831RDPH9PKCC4WN,6,5
101,1,object_09,object_08,1065.799999997,1,2,647.89999999851,0.7777777777777778,1,object_04,5,1700,0,7,7,desert_2,2,memory-2step-stake-s,598,1780731,0.0-19.0-0.0-0.101,A1LLAP0EV74WMS,3X52SWXE10LAELCT6ESTJVPQIDRWCT,3ON104KXQOCA50X831RDPH9PKCC4WN,2,1
102,2,object_02,object_07,1025.200000003,3,2,317.09999999404,0.8888888888888888,1,object_04,5,1740,0,8,9,forest_2,2,memory-2step-stake-s,599,1789069,0.0-19.0-0.0-0.102,A1LLAP0EV74WMS,3X52SWXE10LAELCT6ESTJVPQIDRWCT,3ON104KXQOCA50X831RDPH9PKCC4WN,4,3
103,3,object_10,object_06,981.79999999702,5,2,372.20000000298,1.0,1,object_04,1,1749,0,9,6,library_6,2,memory-2step-stake-s,600,1797591,0.0-19.0-0.0-0.103,A1LLAP0EV74WMS,3X52SWXE10LAELCT6ESTJVPQIDRWCT,3ON104KXQOCA50X831RDPH9PKCC4WN,6,5
104,1,object_09,object_08,772.19999999553,1,2,371.39999999851,0.8888888888888888,1,object_04,5,1789,0,8,5,desert_7,2,memory-2step-stake-s,601,1806003,0.0-19.0-0.0-0.104,A1LLAP0EV74WMS,3X52SWXE10LAELCT6ESTJVPQIDRWCT,3ON104KXQOCA50X831RDPH9PKCC4WN,2,1
105,3,object_06,object_10,1076.6999999955,5,1,606.0,0.8888888888888888,1,object_04,1,1797,0,8,5,library_3,2,memory-2step-stake-s,602,1814638,0.0-19.0-0.0-0.105,A1LLAP0EV74WMS,3X52SWXE10LAELCT6ESTJVPQIDRWCT,3ON104KXQOCA50X831RDPH9PKCC4WN,5,6
106,4,object_03,object_05,891.5,7,1,315.80000000447,0.8888888888888888,1,object_04,1,1805,0,8,7,restaurant_1,2,memory-2step-stake-s,603,1823013,0.0-19.0-0.0-0.106,A1LLAP0EV74WMS,3X52SWXE10LAELCT6ESTJVPQIDRWCT,3ON104KXQOCA50X831RDPH9PKCC4WN,7,8
107,4,object_05,object_03,705.29999999702,7,2,350.79999999702,0.6666666666666666,1,object_04,1,1811,0,6,7,restaurant_1,2,memory-2step-stake-s,604,1831185,0.0-19.0-0.0-0.107,A1LLAP0EV74WMS,3X52SWXE10LAELCT6ESTJVPQIDRWCT,3ON104KXQOCA50X831RDPH9PKCC4WN,8,7
108,3,object_10,object_06,705.90000000596,5,2,539.79999999702,0.4444444444444444,1,object_04,5,1831,0,4,9,library_7,2,memory-2step-stake-s,605,1839343,0.0-19.0-0.0-0.108,A1LLAP0EV74WMS,3X52SWXE10LAELCT6ESTJVPQIDRWCT,3ON104KXQOCA50X831RDPH9PKCC4WN,6,5
109,3,object_06,object_10,1001.6000000015,5,1,768.0,0.5555555555555556,1,object_04,1,1836,0,5,8,library_3,2,memory-2step-stake-s,606,1847830,0.0-19.0-0.0-0.109,A1LLAP0EV74WMS,3X52SWXE10LAELCT6ESTJVPQIDRWCT,3ON104KXQOCA50X831RDPH9PKCC4WN,5,6
110,2,object_07,object_02,1210.3999999985,3,1,667.70000000298,0.1111111111111111,1,object_04,5,1841,0,1,9,forest_6,2,memory-2step-stake-s,607,1855813,0.0-19.0-0.0-0.110,A1LLAP0EV74WMS,3X52SWXE10LAELCT6ESTJVPQIDRWCT,3ON104KXQOCA50X831RDPH9PKCC4WN,3,4
111,1,object_08,object_09,735.0,2,2,324.70000000298,0.7777777777777778,2,object_01,5,1876,0,1,7,desert_7,2,memory-2step-stake-s,608,1864061,0.0-19.0-0.0-0.111,A1LLAP0EV74WMS,3X52SWXE10LAELCT6ESTJVPQIDRWCT,3ON104KXQOCA50X831RDPH9PKCC4WN,1,2
112,3,object_06,object_10,1350.1999999955,6,2,341.29999999702,0.7777777777777778,2,object_01,1,1883,0,3,7,library_3,2,memory-2step-stake-s,609,1872323,0.0-19.0-0.0-0.112,A1LLAP0EV74WMS,3X52SWXE10LAELCT6ESTJVPQIDRWCT,3ON104KXQOCA50X831RDPH9PKCC4WN,5,6
113,3,object_10,object_06,1086.900000006,6,1,550.19999999553,1.0,2,object_01,1,1892,0,5,9,library_6,2,memory-2step-stake-s,610,1881004,0.0-19.0-0.0-0.113,A1LLAP0EV74WMS,3X52SWXE10LAELCT6ESTJVPQIDRWCT,3ON104KXQOCA50X831RDPH9PKCC4WN,6,5
114,4,object_03,object_05,1361.8999999985,8,2,326.89999999851,0.7777777777777778,2,object_01,1,1899,0,6,7,restaurant_3,2,memory-2step-stake-s,611,1889255,0.0-19.0-0.0-0.114,A1LLAP0EV74WMS,3X52SWXE10LAELCT6ESTJVPQIDRWCT,3ON104KXQOCA50X831RDPH9PKCC4WN,7,8
115,1,object_09,object_08,1052.700000003,2,1,409.89999999851,0.5555555555555556,2,object_01,5,1924,0,6,5,desert_7,2,memory-2step-stake-s,612,1897387,0.0-19.0-0.0-0.115,A1LLAP0EV74WMS,3X52SWXE10LAELCT6ESTJVPQIDRWCT,3ON104KXQOCA50X831RDPH9PKCC4WN,2,1
116,3,object_06,object_10,933.80000000447,6,2,612.5,0.4444444444444444,2,object_01,1,1928,0,7,4,library_4,2,memory-2step-stake-s,613,1905621,0.0-19.0-0.0-0.116,A1LLAP0EV74WMS,3X52SWXE10LAELCT6ESTJVPQIDRWCT,3ON104KXQOCA50X831RDPH9PKCC4WN,5,6
117,1,object_09,object_08,807.0,2,1,450.69999999553,0.3333333333333333,2,object_01,1,1931,0,8,3,desert_4,2,memory-2step-stake-s,614,1913590,0.0-19.0-0.0-0.117,A1LLAP0EV74WMS,3X52SWXE10LAELCT6ESTJVPQIDRWCT,3ON104KXQOCA50X831RDPH9PKCC4WN,2,1
118,3,object_10,object_06,654.5,6,1,297.10000000149,0.4444444444444444,2,object_01,1,1935,0,7,4,library_3,2,memory-2step-stake-s,615,1921514,0.0-19.0-0.0-0.118,A1LLAP0EV74WMS,3X52SWXE10LAELCT6ESTJVPQIDRWCT,3ON104KXQOCA50X831RDPH9PKCC4WN,6,5
119,3,object_06,object_10,696.39999999851,6,2,219.79999999702,0.3333333333333333,2,object_01,1,1938,0,7,3,library_6,2,memory-2step-stake-s,616,1929269,0.0-19.0-0.0-0.119,A1LLAP0EV74WMS,3X52SWXE10LAELCT6ESTJVPQIDRWCT,3ON104KXQOCA50X831RDPH9PKCC4WN,5,6
120,1,object_08,object_09,544.29999999702,1,1,271.30000000447,0.5555555555555556,1,object_04,5,1963,0,5,1,desert_2,2,memory-2step-stake-s,617,1937259,0.0-19.0-0.0-0.120,A1LLAP0EV74WMS,3X52SWXE10LAELCT6ESTJVPQIDRWCT,3ON104KXQOCA50X831RDPH9PKCC4WN,1,2
121,2,object_07,object_02,494.0,3,1,310.19999999553,0.3333333333333333,1,object_04,5,1978,0,3,2,forest_2,2,memory-2step-stake-s,618,1945088,0.0-19.0-0.0-0.121,A1LLAP0EV74WMS,3X52SWXE10LAELCT6ESTJVPQIDRWCT,3ON104KXQOCA50X831RDPH9PKCC4WN,3,4
122,3,object_10,object_06,1110.799999997,5,2,362.30000000447,0.6666666666666666,1,object_04,1,1984,0,6,3,library_6,2,memory-2step-stake-s,619,1953274,0.0-19.0-0.0-0.122,A1LLAP0EV74WMS,3X52SWXE10LAELCT6ESTJVPQIDRWCT,3ON104KXQOCA50X831RDPH9PKCC4WN,6,5
123,4,object_03,object_05,922.59999999404,8,2,498.79999999702,0.5555555555555556,2,object_01,1,1989,0,5,5,restaurant_1,2,memory-2step-stake-s,620,1961508,0.0-19.0-0.0-0.123,A1LLAP0EV74WMS,3X52SWXE10LAELCT6ESTJVPQIDRWCT,3ON104KXQOCA50X831RDPH9PKCC4WN,7,8
124,2,object_07,object_02,571.89999999851,3,1,678.5,0.5555555555555556,1,object_04,5,2014,0,5,5,forest_2,2,memory-2step-stake-s,621,1969908,0.0-19.0-0.0-0.124,A1LLAP0EV74WMS,3X52SWXE10LAELCT6ESTJVPQIDRWCT,3ON104KXQOCA50X831RDPH9PKCC4WN,3,4
125,2,object_02,object_07,624.0,3,2,964.60000000149,0.3333333333333333,1,object_04,5,2029,0,3,5,forest_1,2,memory-2step-stake-s,622,1978393,0.0-19.0-0.0-0.125,A1LLAP0EV74WMS,3X52SWXE10LAELCT6ESTJVPQIDRWCT,3ON104KXQOCA50X831RDPH9PKCC4WN,4,3
126,1,object_08,object_09,507.79999999702,2,2,289.0,0.6666666666666666,2,object_01,5,2059,0,3,6,desert_4,2,memory-2step-stake-s,623,1986504,0.0-19.0-0.0-0.126,A1LLAP0EV74WMS,3X52SWXE10LAELCT6ESTJVPQIDRWCT,3ON104KXQOCA50X831RDPH9PKCC4WN,1,2
127,3,object_06,object_10,1101.799999997,5,1,366.5,0.5555555555555556,1,object_04,5,2084,0,5,7,library_4,2,memory-2step-stake-s,624,1994590,0.0-19.0-0.0-0.127,A1LLAP0EV74WMS,3X52SWXE10LAELCT6ESTJVPQIDRWCT,3ON104KXQOCA50X831RDPH9PKCC4WN,5,6
128,3,object_10,object_06,-1.0,-1,-1,-1.0,0.0,-,0,5,2084,0,5,4,library_3,2,memory-2step-stake-s,626,2364593,0.0-19.0-0.1-0.128,A1LLAP0EV74WMS,3X52SWXE10LAELCT6ESTJVPQIDRWCT,3ON104KXQOCA50X831RDPH9PKCC4WN,6,5
129,4,object_05,object_03,448.5,8,1,396.89999999851,0.8888888888888888,2,object_01,1,2092,0,4,8,restaurant_3,2,memory-2step-stake-s,627,2373012,0.0-19.0-0.1-0.129,A1LLAP0EV74WMS,3X52SWXE10LAELCT6ESTJVPQIDRWCT,3ON104KXQOCA50X831RDPH9PKCC4WN,8,7
130,4,object_03,object_05,970.79999999702,7,1,167.80000000447,0.3333333333333333,1,object_04,1,2095,0,3,7,restaurant_1,2,memory-2step-stake-s,628,2380714,0.0-19.0-0.1-0.130,A1LLAP0EV74WMS,3X52SWXE10LAELCT6ESTJVPQIDRWCT,3ON104KXQOCA50X831RDPH9PKCC4WN,7,8
131,1,object_09,object_08,1079.8999999985,2,1,261.10000000149,0.8888888888888888,2,object_01,1,2103,0,5,8,desert_2,2,memory-2step-stake-s,629,2388997,0.0-19.0-0.1-0.131,A1LLAP0EV74WMS,3X52SWXE10LAELCT6ESTJVPQIDRWCT,3ON104KXQOCA50X831RDPH9PKCC4WN,2,1
132,3,object_10,object_06,722.20000000298,6,1,293.70000000298,0.7777777777777778,2,object_01,1,2110,0,6,7,library_4,2,memory-2step-stake-s,630,2397217,0.0-19.0-0.1-0.132,A1LLAP0EV74WMS,3X52SWXE10LAELCT6ESTJVPQIDRWCT,3ON104KXQOCA50X831RDPH9PKCC4WN,6,5
133,3,object_06,object_10,667.60000000149,6,2,210.60000000149,0.6666666666666666,2,object_01,5,2140,0,8,6,library_7,2,memory-2step-stake-s,631,2405247,0.0-19.0-0.1-0.133,A1LLAP0EV74WMS,3X52SWXE10LAELCT6ESTJVPQIDRWCT,3ON104KXQOCA50X831RDPH9PKCC4WN,5,6
134,4,object_03,object_05,905.30000000447,8,2,384.89999999851,0.7777777777777778,2,object_01,1,2147,0,9,7,restaurant_2,2,memory-2step-stake-s,632,2413563,0.0-19.0-0.1-0.134,A1LLAP0EV74WMS,3X52SWXE10LAELCT6ESTJVPQIDRWCT,3ON104KXQOCA50X831RDPH9PKCC4WN,7,8
135,3,object_06,object_10,712.20000000298,6,2,356.59999999404,0.8888888888888888,2,object_01,1,2155,0,8,8,library_7,2,memory-2step-stake-s,633,2421948,0.0-19.0-0.1-0.135,A1LLAP0EV74WMS,3X52SWXE10LAELCT6ESTJVPQIDRWCT,3ON104KXQOCA50X831RDPH9PKCC4WN,5,6
136,1,object_08,object_09,850.19999999553,1,1,479.39999999851,0.8888888888888888,1,object_04,5,2195,0,8,7,desert_7,2,memory-2step-stake-s,634,2430452,0.0-19.0-0.1-0.136,A1LLAP0EV74WMS,3X52SWXE10LAELCT6ESTJVPQIDRWCT,3ON104KXQOCA50X831RDPH9PKCC4WN,1,2
137,2,object_02,object_07,696.0,3,2,263.20000000298,0.7777777777777778,1,object_04,5,2230,0,7,8,forest_2,2,memory-2step-stake-s,635,2438641,0.0-19.0-0.1-0.137,A1LLAP0EV74WMS,3X52SWXE10LAELCT6ESTJVPQIDRWCT,3ON104KXQOCA50X831RDPH9PKCC4WN,4,3
138,2,object_07,object_02,613.69999999553,3,1,286.0,0.8888888888888888,1,object_04,1,2238,0,8,9,forest_1,2,memory-2step-stake-s,636,2446952,0.0-19.0-0.1-0.138,A1LLAP0EV74WMS,3X52SWXE10LAELCT6ESTJVPQIDRWCT,3ON104KXQOCA50X831RDPH9PKCC4WN,3,4
139,1,object_09,object_08,544.20000000298,1,2,356.70000000298,1.0,1,object_04,1,2247,0,9,9,desert_4,2,memory-2step-stake-s,637,2455433,0.0-19.0-0.1-0.139,A1LLAP0EV74WMS,3X52SWXE10LAELCT6ESTJVPQIDRWCT,3ON104KXQOCA50X831RDPH9PKCC4WN,2,1
140,1,object_08,object_09,445.80000000447,1,1,306.20000000298,0.8888888888888888,1,object_04,5,2287,0,8,7,desert_7,2,memory-2step-stake-s,638,2463807,0.0-19.0-0.1-0.140,A1LLAP0EV74WMS,3X52SWXE10LAELCT6ESTJVPQIDRWCT,3ON104KXQOCA50X831RDPH9PKCC4WN,1,2
141,2,object_07,object_02,535.0,3,1,250.60000000149,0.6666666666666666,1,object_04,1,2293,0,6,6,forest_6,2,memory-2step-stake-s,639,2471879,0.0-19.0-0.1-0.141,A1LLAP0EV74WMS,3X52SWXE10LAELCT6ESTJVPQIDRWCT,3ON104KXQOCA50X831RDPH9PKCC4WN,3,4
142,1,object_08,object_09,462.70000000298,1,1,333.70000000298,0.6666666666666666,1,object_04,5,2323,0,6,6,desert_7,2,memory-2step-stake-s,640,2480044,0.0-19.0-0.1-0.142,A1LLAP0EV74WMS,3X52SWXE10LAELCT6ESTJVPQIDRWCT,3ON104KXQOCA50X831RDPH9PKCC4WN,1,2
143,2,object_07,object_02,468.40000000596,3,1,295.30000000447,0.8888888888888888,1,object_04,5,2363,0,8,8,forest_6,2,memory-2step-stake-s,641,2488361,0.0-19.0-0.1-0.143,A1LLAP0EV74WMS,3X52SWXE10LAELCT6ESTJVPQIDRWCT,3ON104KXQOCA50X831RDPH9PKCC4WN,3,4
144,2,object_07,object_02,495.89999999851,3,1,668.20000000298,0.7777777777777778,1,object_04,5,2398,0,7,8,forest_2,2,memory-2step-stake-s,642,2496953,0.0-19.0-0.1-0.144,A1LLAP0EV74WMS,3X52SWXE10LAELCT6ESTJVPQIDRWCT,3ON104KXQOCA50X831RDPH9PKCC4WN,3,4
145,3,object_06,object_10,575.30000000447,6,2,305.59999999404,0.7777777777777778,2,object_01,1,2405,0,6,7,library_3,2,memory-2step-stake-s,643,2505201,0.0-19.0-0.1-0.145,A1LLAP0EV74WMS,3X52SWXE10LAELCT6ESTJVPQIDRWCT,3ON104KXQOCA50X831RDPH9PKCC4WN,5,6
146,2,object_02,object_07,702.39999999851,4,1,305.29999999702,0.6666666666666666,2,object_01,5,2435,0,5,6,forest_3,2,memory-2step-stake-s,644,2513328,0.0-19.0-0.1-0.146,A1LLAP0EV74WMS,3X52SWXE10LAELCT6ESTJVPQIDRWCT,3ON104KXQOCA50X831RDPH9PKCC4WN,4,3
147,1,object_08,object_09,561.29999999702,2,2,314.10000000149,0.4444444444444444,2,object_01,5,2455,0,6,4,desert_7,2,memory-2step-stake-s,645,2521261,0.0-19.0-0.1-0.147,A1LLAP0EV74WMS,3X52SWXE10LAELCT6ESTJVPQIDRWCT,3ON104KXQOCA50X831RDPH9PKCC4WN,1,2
148,1,object_09,object_08,941.10000000149,2,1,298.79999999702,0.5555555555555556,2,object_01,5,2480,0,8,5,desert_4,2,memory-2step-stake-s,646,2529280,0.0-19.0-0.1-0.148,A1LLAP0EV74WMS,3X52SWXE10LAELCT6ESTJVPQIDRWCT,3ON104KXQOCA50X831RDPH9PKCC4WN,2,1
149,1,object_09,object_08,594.5,1,2,437.19999999553,0.6666666666666666,1,object_04,1,2486,0,6,6,desert_8,2,memory-2step-stake-s,647,2537538,0.0-19.0-0.1-0.149,A1LLAP0EV74WMS,3X52SWXE10LAELCT6ESTJVPQIDRWCT,3ON104KXQOCA50X831RDPH9PKCC4WN,2,1
150,4,object_05,object_03,746.79999999702,7,2,203.70000000298,1.0,1,object_04,1,2495,0,9,5,restaurant_4,2,memory-2step-stake-s,648,2545865,0.0-19.0-0.1-0.150,A1LLAP0EV74WMS,3X52SWXE10LAELCT6ESTJVPQIDRWCT,3ON104KXQOCA50X831RDPH9PKCC4WN,8,7
151,2,object_07,object_02,478.29999999702,3,1,306.10000000149,0.8888888888888888,1,object_04,5,2535,0,8,7,forest_2,2,memory-2step-stake-s,649,2554195,0.0-19.0-0.1-0.151,A1LLAP0EV74WMS,3X52SWXE10LAELCT6ESTJVPQIDRWCT,3ON104KXQOCA50X831RDPH9PKCC4WN,3,4
152,4,object_03,object_05,1063.6000000015,7,1,289.60000000149,0.8888888888888888,1,object_04,1,2543,0,8,8,restaurant_2,2,memory-2step-stake-s,650,2562509,0.0-19.0-0.1-0.152,A1LLAP0EV74WMS,3X52SWXE10LAELCT6ESTJVPQIDRWCT,3ON104KXQOCA50X831RDPH9PKCC4WN,7,8
153,2,object_07,object_02,440.39999999851,3,1,237.5,0.8888888888888888,1,object_04,5,2583,0,8,8,forest_3,2,memory-2step-stake-s,651,2570769,0.0-19.0-0.1-0.153,A1LLAP0EV74WMS,3X52SWXE10LAELCT6ESTJVPQIDRWCT,3ON104KXQOCA50X831RDPH9PKCC4WN,3,4
154,3,object_06,object_10,704.89999999851,6,2,452.70000000298,0.8888888888888888,2,object_01,1,2591,0,8,8,library_6,2,memory-2step-stake-s,652,2579249,0.0-19.0-0.1-0.154,A1LLAP0EV74WMS,3X52SWXE10LAELCT6ESTJVPQIDRWCT,3ON104KXQOCA50X831RDPH9PKCC4WN,5,6
155,3,object_06,object_10,785.89999999851,5,1,477.29999999702,0.6666666666666666,1,object_04,5,2621,0,6,9,library_3,2,memory-2step-stake-s,653,2587553,0.0-19.0-0.1-0.155,A1LLAP0EV74WMS,3X52SWXE10LAELCT6ESTJVPQIDRWCT,3ON104KXQOCA50X831RDPH9PKCC4WN,5,6
156,3,object_10,object_06,417.60000000149,5,2,277.70000000298,0.4444444444444444,1,object_04,1,2625,0,4,7,library_6,2,memory-2step-stake-s,654,2595463,0.0-19.0-0.1-0.156,A1LLAP0EV74WMS,3X52SWXE10LAELCT6ESTJVPQIDRWCT,3ON104KXQOCA50X831RDPH9PKCC4WN,6,5
157,4,object_03,object_05,576.39999999851,7,1,296.59999999404,0.6666666666666666,1,object_04,1,2631,0,6,8,restaurant_4,2,memory-2step-stake-s,655,2603593,0.0-19.0-0.1-0.157,A1LLAP0EV74WMS,3X52SWXE10LAELCT6ESTJVPQIDRWCT,3ON104KXQOCA50X831RDPH9PKCC4WN,7,8
158,1,object_09,object_08,517.09999999404,2,1,239.60000000149,0.7777777777777778,2,object_01,5,2666,0,6,7,desert_7,2,memory-2step-stake-s,656,2611756,0.0-19.0-0.1-0.158,A1LLAP0EV74WMS,3X52SWXE10LAELCT6ESTJVPQIDRWCT,3ON104KXQOCA50X831RDPH9PKCC4WN,2,1
159,2,object_02,object_07,949.79999999702,4,1,247.09999999404,0.7777777777777778,2,object_01,5,2701,0,2,7,forest_1,2,memory-2step-stake-s,657,2619929,0.0-19.0-0.1-0.159,A1LLAP0EV74WMS,3X52SWXE10LAELCT6ESTJVPQIDRWCT,3ON104KXQOCA50X831RDPH9PKCC4WN,4,3
160,4,object_05,object_03,710.30000000447,7,2,268.69999999553,0.3333333333333333,1,object_04,1,2704,0,3,8,restaurant_3,2,memory-2step-stake-s,658,2627727,0.0-19.0-0.1-0.160,A1LLAP0EV74WMS,3X52SWXE10LAELCT6ESTJVPQIDRWCT,3ON104KXQOCA50X831RDPH9PKCC4WN,8,7
161,3,object_10,object_06,937.80000000447,5,2,251.70000000298,0.1111111111111111,1,object_04,1,2705,0,1,8,library_4,2,memory-2step-stake-s,659,2635296,0.0-19.0-0.1-0.161,A1LLAP0EV74WMS,3X52SWXE10LAELCT6ESTJVPQIDRWCT,3ON104KXQOCA50X831RDPH9PKCC4WN,6,5
162,4,object_03,object_05,1307.6999999955,8,2,315.10000000149,0.8888888888888888,2,object_01,1,2713,0,2,8,restaurant_4,2,memory-2step-stake-s,660,2643639,0.0-19.0-0.1-0.162,A1LLAP0EV74WMS,3X52SWXE10LAELCT6ESTJVPQIDRWCT,3ON104KXQOCA50X831RDPH9PKCC4WN,7,8
163,3,object_06,object_10,994.20000000298,5,1,793.90000000596,0.1111111111111111,1,object_04,1,2714,0,1,7,library_6,2,memory-2step-stake-s,661,2651748,0.0-19.0-0.1-0.163,A1LLAP0EV74WMS,3X52SWXE10LAELCT6ESTJVPQIDRWCT,3ON104KXQOCA50X831RDPH9PKCC4WN,5,6
164,3,object_10,object_06,1000.5,6,1,505.30000000447,0.6666666666666666,2,object_01,1,2720,0,1,6,library_3,2,memory-2step-stake-s,662,2660082,0.0-19.0-0.1-0.164,A1LLAP0EV74WMS,3X52SWXE10LAELCT6ESTJVPQIDRWCT,3ON104KXQOCA50X831RDPH9PKCC4WN,6,5
165,4,object_05,object_03,1367.299999997,8,1,452.5,0.4444444444444444,2,object_01,1,2724,0,0,4,restaurant_2,2,memory-2step-stake-s,663,2668154,0.0-19.0-0.1-0.165,A1LLAP0EV74WMS,3X52SWXE10LAELCT6ESTJVPQIDRWCT,3ON104KXQOCA50X831RDPH9PKCC4WN,8,7
166,4,object_05,object_03,1049.3000000045,8,1,424.90000000596,0.6666666666666666,2,object_01,1,2730,0,1,6,restaurant_1,2,memory-2step-stake-s,664,2676401,0.0-19.0-0.1-0.166,A1LLAP0EV74WMS,3X52SWXE10LAELCT6ESTJVPQIDRWCT,3ON104KXQOCA50X831RDPH9PKCC4WN,8,7
167,4,object_03,object_05,1131.8999999985,7,1,314.70000000298,0.0,1,object_04,1,2730,0,0,5,restaurant_3,2,memory-2step-stake-s,665,2683929,0.0-19.0-0.1-0.167,A1LLAP0EV74WMS,3X52SWXE10LAELCT6ESTJVPQIDRWCT,3ON104KXQOCA50X831RDPH9PKCC4WN,7,8
168,1,object_08,object_09,975.0,2,2,471.80000000447,0.4444444444444444,2,object_01,1,2734,0,2,4,desert_8,2,memory-2step-stake-s,666,2692024,0.0-19.0-0.1-0.168,A1LLAP0EV74WMS,3X52SWXE10LAELCT6ESTJVPQIDRWCT,3ON104KXQOCA50X831RDPH9PKCC4WN,1,2
169,4,object_05,object_03,873.0,8,1,1001.3999999985,0.5555555555555556,2,object_01,1,2739,0,0,5,restaurant_4,2,memory-2step-stake-s,667,2700751,0.0-19.0-0.1-0.169,A1LLAP0EV74WMS,3X52SWXE10LAELCT6ESTJVPQIDRWCT,3ON104KXQOCA50X831RDPH9PKCC4WN,8,7
170,4,object_03,object_05,1036.3000000045,8,2,364.59999999404,0.3333333333333333,2,object_01,1,2742,0,1,3,restaurant_4,2,memory-2step-stake-s,668,2708633,0.0-19.0-0.1-0.170,A1LLAP0EV74WMS,3X52SWXE10LAELCT6ESTJVPQIDRWCT,3ON104KXQOCA50X831RDPH9PKCC4WN,7,8
171,1,object_09,object_08,524.10000000149,2,1,294.5,0.6666666666666666,2,object_01,1,2748,0,4,6,desert_8,2,memory-2step-stake-s,669,2716744,0.0-19.0-0.1-0.171,A1LLAP0EV74WMS,3X52SWXE10LAELCT6ESTJVPQIDRWCT,3ON104KXQOCA50X831RDPH9PKCC4WN,2,1
172,4,object_03,object_05,868.89999999851,8,2,321.0,0.3333333333333333,2,object_01,1,2751,0,5,3,restaurant_3,2,memory-2step-stake-s,670,2724601,0.0-19.0-0.1-0.172,A1LLAP0EV74WMS,3X52SWXE10LAELCT6ESTJVPQIDRWCT,3ON104KXQOCA50X831RDPH9PKCC4WN,7,8
173,4,object_03,object_05,745.39999999851,7,1,317.0,0.6666666666666666,1,object_04,1,2757,0,6,1,restaurant_2,2,memory-2step-stake-s,671,2732738,0.0-19.0-0.1-0.173,A1LLAP0EV74WMS,3X52SWXE10LAELCT6ESTJVPQIDRWCT,3ON104KXQOCA50X831RDPH9PKCC4WN,7,8
174,1,object_08,object_09,442.39999999851,1,1,263.0,0.7777777777777778,1,object_04,5,2792,0,7,1,desert_2,2,memory-2step-stake-s,672,2740923,0.0-19.0-0.1-0.174,A1LLAP0EV74WMS,3X52SWXE10LAELCT6ESTJVPQIDRWCT,3ON104KXQOCA50X831RDPH9PKCC4WN,1,2
175,2,object_02,object_07,459.89999999851,3,2,305.10000000149,0.8888888888888888,1,object_04,5,2832,0,8,2,forest_2,2,memory-2step-stake-s,673,2749257,0.0-19.0-0.1-0.175,A1LLAP0EV74WMS,3X52SWXE10LAELCT6ESTJVPQIDRWCT,3ON104KXQOCA50X831RDPH9PKCC4WN,4,3
176,2,object_07,object_02,431.39999999851,3,1,243.20000000298,0.4444444444444444,1,object_04,1,2836,0,4,1,forest_2,2,memory-2step-stake-s,674,2757119,0.0-19.0-0.1-0.176,A1LLAP0EV74WMS,3X52SWXE10LAELCT6ESTJVPQIDRWCT,3ON104KXQOCA50X831RDPH9PKCC4WN,3,4
177,3,object_10,object_06,381.79999999702,6,1,305.10000000149,0.1111111111111111,2,object_01,1,2837,0,3,1,library_6,2,memory-2step-stake-s,675,2764738,0.0-19.0-0.1-0.177,A1LLAP0EV74WMS,3X52SWXE10LAELCT6ESTJVPQIDRWCT,3ON104KXQOCA50X831RDPH9PKCC4WN,6,5
178,3,object_06,object_10,409.29999999702,6,2,438.60000000149,0.2222222222222222,2,object_01,1,2839,0,0,2,library_3,2,memory-2step-stake-s,676,2772593,0.0-19.0-0.1-0.178,A1LLAP0EV74WMS,3X52SWXE10LAELCT6ESTJVPQIDRWCT,3ON104KXQOCA50X831RDPH9PKCC4WN,5,6
179,1,object_09,object_08,511.89999999851,1,2,469.79999999702,0.0,1,object_04,5,2839,0,0,4,desert_2,2,memory-2step-stake-s,677,2780276,0.0-19.0-0.1-0.179,A1LLAP0EV74WMS,3X52SWXE10LAELCT6ESTJVPQIDRWCT,3ON104KXQOCA50X831RDPH9PKCC4WN,2,1
180,2,object_02,object_07,521.20000000298,4,1,229.70000000298,0.4444444444444444,2,object_01,5,2859,0,2,4,forest_3,2,memory-2step-stake-s,678,2788125,0.0-19.0-0.1-0.180,A1LLAP0EV74WMS,3X52SWXE10LAELCT6ESTJVPQIDRWCT,3ON104KXQOCA50X831RDPH9PKCC4WN,4,3
181,3,object_06,object_10,517.60000000149,5,1,260.90000000596,0.0,1,object_04,1,2859,0,0,9,library_7,2,memory-2step-stake-s,679,2795600,0.0-19.0-0.1-0.181,A1LLAP0EV74WMS,3X52SWXE10LAELCT6ESTJVPQIDRWCT,3ON104KXQOCA50X831RDPH9PKCC4WN,5,6
182,4,object_05,object_03,909.10000000149,8,1,482.09999999404,0.8888888888888888,2,object_01,1,2867,0,0,8,restaurant_3,2,memory-2step-stake-s,680,2804109,0.0-19.0-0.1-0.182,A1LLAP0EV74WMS,3X52SWXE10LAELCT6ESTJVPQIDRWCT,3ON104KXQOCA50X831RDPH9PKCC4WN,8,7
183,3,object_10,object_06,964.10000000149,5,2,633.20000000298,0.1111111111111111,1,object_04,5,2872,0,1,7,library_6,2,memory-2step-stake-s,681,2812065,0.0-19.0-0.1-0.183,A1LLAP0EV74WMS,3X52SWXE10LAELCT6ESTJVPQIDRWCT,3ON104KXQOCA50X831RDPH9PKCC4WN,6,5
184,1,object_09,object_08,596.0,2,1,298.5,0.6666666666666666,2,object_01,1,2878,0,2,6,desert_4,2,memory-2step-stake-s,682,2820183,0.0-19.0-0.1-0.184,A1LLAP0EV74WMS,3X52SWXE10LAELCT6ESTJVPQIDRWCT,3ON104KXQOCA50X831RDPH9PKCC4WN,2,1
185,4,object_05,object_03,774.0,7,2,321.19999999553,0.2222222222222222,1,object_04,1,2880,0,2,9,restaurant_3,2,memory-2step-stake-s,683,2827921,0.0-19.0-0.1-0.185,A1LLAP0EV74WMS,3X52SWXE10LAELCT6ESTJVPQIDRWCT,3ON104KXQOCA50X831RDPH9PKCC4WN,8,7
186,3,object_06,object_10,897.5,5,1,253.20000000298,0.1111111111111111,1,object_04,1,2881,0,1,8,library_6,2,memory-2step-stake-s,684,2835496,0.0-19.0-0.1-0.186,A1LLAP0EV74WMS,3X52SWXE10LAELCT6ESTJVPQIDRWCT,3ON104KXQOCA50X831RDPH9PKCC4WN,5,6
187,1,object_08,object_09,702.10000000149,2,2,275.19999999553,0.7777777777777778,2,object_01,5,2916,0,2,7,desert_4,2,memory-2step-stake-s,685,2843694,0.0-19.0-0.1-0.187,A1LLAP0EV74WMS,3X52SWXE10LAELCT6ESTJVPQIDRWCT,3ON104KXQOCA50X831RDPH9PKCC4WN,1,2
188,3,object_06,object_10,1353.8999999985,6,2,863.30000000447,1.0,2,object_01,1,2925,0,4,9,library_4,2,memory-2step-stake-s,686,2852684,0.0-19.0-0.1-0.188,A1LLAP0EV74WMS,3X52SWXE10LAELCT6ESTJVPQIDRWCT,3ON104KXQOCA50X831RDPH9PKCC4WN,5,6
189,3,object_10,object_06,771.40000000596,6,1,281.39999999851,0.7777777777777778,2,object_01,1,2932,0,4,7,library_4,2,memory-2step-stake-s,687,2860888,0.0-19.0-0.1-0.189,A1LLAP0EV74WMS,3X52SWXE10LAELCT6ESTJVPQIDRWCT,3ON104KXQOCA50X831RDPH9PKCC4WN,6,5
190,2,object_07,object_02,786.90000000596,3,1,440.90000000596,0.2222222222222222,1,object_04,1,2934,0,2,8,forest_1,2,memory-2step-stake-s,688,2868745,0.0-19.0-0.1-0.190,A1LLAP0EV74WMS,3X52SWXE10LAELCT6ESTJVPQIDRWCT,3ON104KXQOCA50X831RDPH9PKCC4WN,3,4
191,2,object_07,object_02,1026.5,4,2,274.89999999851,0.8888888888888888,2,object_01,5,2974,0,1,8,forest_3,2,memory-2step-stake-s,689,2877039,0.0-19.0-0.1-0.191,A1LLAP0EV74WMS,3X52SWXE10LAELCT6ESTJVPQIDRWCT,3ON104KXQOCA50X831RDPH9PKCC4WN,3,4
192,3,object_10,object_06,654.19999999553,5,2,241.5,0.1111111111111111,1,object_04,1,2975,0,1,8,library_3,2,memory-2step-stake-s,690,2884597,0.0-19.0-0.1-0.192,A1LLAP0EV74WMS,3X52SWXE10LAELCT6ESTJVPQIDRWCT,3ON104KXQOCA50X831RDPH9PKCC4WN,6,5
193,2,object_07,object_02,502.80000000447,4,2,251.10000000149,0.6666666666666666,2,object_01,5,3005,0,4,6,forest_6,2,memory-2step-stake-s,691,2892669,0.0-19.0-0.1-0.193,A1LLAP0EV74WMS,3X52SWXE10LAELCT6ESTJVPQIDRWCT,3ON104KXQOCA50X831RDPH9PKCC4WN,3,4
194,3,object_06,object_10,557.30000000447,5,1,571.10000000149,0.3333333333333333,1,object_04,1,3008,0,3,8,library_7,2,memory-2step-stake-s,692,2900760,0.0-19.0-0.1-0.194,A1LLAP0EV74WMS,3X52SWXE10LAELCT6ESTJVPQIDRWCT,3ON104KXQOCA50X831RDPH9PKCC4WN,5,6
195,4,object_03,object_05,1396.3999999985,8,2,605.0,0.4444444444444444,2,object_01,5,3028,0,1,4,restaurant_2,2,memory-2step-stake-s,693,2908985,0.0-19.0-0.1-0.195,A1LLAP0EV74WMS,3X52SWXE10LAELCT6ESTJVPQIDRWCT,3ON104KXQOCA50X831RDPH9PKCC4WN,7,8
196,1,object_09,object_08,770.60000000149,2,1,206.30000000447,0.7777777777777778,2,object_01,5,3063,0,4,7,desert_8,2,memory-2step-stake-s,694,2917114,0.0-19.0-0.1-0.196,A1LLAP0EV74WMS,3X52SWXE10LAELCT6ESTJVPQIDRWCT,3ON104KXQOCA50X831RDPH9PKCC4WN,2,1
197,4,object_03,object_05,681.40000000596,8,2,623.30000000447,0.8888888888888888,2,object_01,1,3071,0,4,8,restaurant_3,2,memory-2step-stake-s,695,2925766,0.0-19.0-0.1-0.197,A1LLAP0EV74WMS,3X52SWXE10LAELCT6ESTJVPQIDRWCT,3ON104KXQOCA50X831RDPH9PKCC4WN,7,8
198,4,object_05,object_03,736.60000000149,8,1,1057.1000000015,1.0,2,object_01,1,3080,0,0,9,restaurant_3,2,memory-2step-stake-s,696,2934957,0.0-19.0-0.1-0.198,A1LLAP0EV74WMS,3X52SWXE10LAELCT6ESTJVPQIDRWCT,3ON104KXQOCA50X831RDPH9PKCC4WN,8,7
199,1,object_08,object_09,831.5,2,2,268.69999999553,0.8888888888888888,2,object_01,1,3088,0,1,8,desert_8,2,memory-2step-stake-s,697,2943257,0.0-19.0-0.1-0.199,A1LLAP0EV74WMS,3X52SWXE10LAELCT6ESTJVPQIDRWCT,3ON104KXQOCA50X831RDPH9PKCC4WN,1,2
200,4,object_05,object_03,785.89999999851,8,1,296.0,0.8888888888888888,2,object_01,1,3096,0,1,8,restaurant_1,2,memory-2step-stake-s,698,2951576,0.0-19.0-0.1-0.200,A1LLAP0EV74WMS,3X52SWXE10LAELCT6ESTJVPQIDRWCT,3ON104KXQOCA50X831RDPH9PKCC4WN,8,7
201,3,object_10,object_06,694.89999999851,6,1,297.29999999702,0.8888888888888888,2,object_01,1,3104,0,4,8,library_7,2,memory-2step-stake-s,699,2959899,0.0-19.0-0.1-0.201,A1LLAP0EV74WMS,3X52SWXE10LAELCT6ESTJVPQIDRWCT,3ON104KXQOCA50X831RDPH9PKCC4WN,6,5
202,3,object_10,object_06,555.29999999702,5,2,303.5,0.2222222222222222,1,object_04,1,3106,0,2,8,library_4,2,memory-2step-stake-s,700,2967621,0.0-19.0-0.1-0.202,A1LLAP0EV74WMS,3X52SWXE10LAELCT6ESTJVPQIDRWCT,3ON104KXQOCA50X831RDPH9PKCC4WN,6,5
203,4,object_05,object_03,682.60000000149,8,1,286.60000000149,1.0,2,object_01,1,3115,0,1,9,restaurant_2,2,memory-2step-stake-s,701,2976050,0.0-19.0-0.1-0.203,A1LLAP0EV74WMS,3X52SWXE10LAELCT6ESTJVPQIDRWCT,3ON104KXQOCA50X831RDPH9PKCC4WN,8,7
204,1,object_09,object_08,455.0,2,1,183.20000000298,0.8888888888888888,2,object_01,5,3155,0,0,8,desert_8,2,memory-2step-stake-s,702,2984260,0.0-19.0-0.1-0.204,A1LLAP0EV74WMS,3X52SWXE10LAELCT6ESTJVPQIDRWCT,3ON104KXQOCA50X831RDPH9PKCC4WN,2,1
205,1,object_09,object_08,591.5,2,1,347.29999999702,0.6666666666666666,2,object_01,5,3185,0,1,6,desert_7,2,memory-2step-stake-s,703,2992432,0.0-19.0-0.1-0.205,A1LLAP0EV74WMS,3X52SWXE10LAELCT6ESTJVPQIDRWCT,3ON104KXQOCA50X831RDPH9PKCC4WN,2,1
206,2,object_02,object_07,547.0,4,1,300.40000000596,0.1111111111111111,2,object_01,5,3190,0,3,1,forest_2,2,memory-2step-stake-s,704,3000047,0.0-19.0-0.1-0.206,A1LLAP0EV74WMS,3X52SWXE10LAELCT6ESTJVPQIDRWCT,3ON104KXQOCA50X831RDPH9PKCC4WN,4,3
207,2,object_02,object_07,732.89999999851,3,2,332.29999999702,0.4444444444444444,1,object_04,5,3210,0,4,1,forest_2,2,memory-2step-stake-s,705,3007999,0.0-19.0-0.1-0.207,A1LLAP0EV74WMS,3X52SWXE10LAELCT6ESTJVPQIDRWCT,3ON104KXQOCA50X831RDPH9PKCC4WN,4,3
208,3,object_06,object_10,1040.6999999955,5,1,287.89999999851,0.6666666666666666,1,object_04,5,3240,0,6,2,library_4,2,memory-2step-stake-s,706,3016122,0.0-19.0-0.1-0.208,A1LLAP0EV74WMS,3X52SWXE10LAELCT6ESTJVPQIDRWCT,3ON104KXQOCA50X831RDPH9PKCC4WN,5,6
209,3,object_10,object_06,757.19999999553,5,2,263.60000000149,0.6666666666666666,1,object_04,5,3270,0,6,1,library_7,2,memory-2step-stake-s,707,3024203,0.0-19.0-0.1-0.209,A1LLAP0EV74WMS,3X52SWXE10LAELCT6ESTJVPQIDRWCT,3ON104KXQOCA50X831RDPH9PKCC4WN,6,5
210,2,object_07,object_02,848.20000000298,3,1,316.30000000447,0.7777777777777778,1,object_04,1,3277,0,7,1,forest_2,2,memory-2step-stake-s,708,3032436,0.0-19.0-0.1-0.210,A1LLAP0EV74WMS,3X52SWXE10LAELCT6ESTJVPQIDRWCT,3ON104KXQOCA50X831RDPH9PKCC4WN,3,4
211,1,object_08,object_09,802.40000000596,1,1,277.5,0.7777777777777778,1,object_04,5,3312,0,7,2,desert_4,2,memory-2step-stake-s,709,3040633,0.0-19.0-0.1-0.211,A1LLAP0EV74WMS,3X52SWXE10LAELCT6ESTJVPQIDRWCT,3ON104KXQOCA50X831RDPH9PKCC4WN,1,2
212,4,object_03,object_05,1269.799999997,7,1,248.89999999851,0.8888888888888888,1,object_04,1,3320,0,8,5,restaurant_3,2,memory-2step-stake-s,710,3048903,0.0-19.0-0.1-0.212,A1LLAP0EV74WMS,3X52SWXE10LAELCT6ESTJVPQIDRWCT,3ON104KXQOCA50X831RDPH9PKCC4WN,7,8
213,2,object_07,object_02,433.0,3,1,249.20000000298,0.8888888888888888,1,object_04,5,3360,0,8,5,forest_6,2,memory-2step-stake-s,711,3057176,0.0-19.0-0.1-0.213,A1LLAP0EV74WMS,3X52SWXE10LAELCT6ESTJVPQIDRWCT,3ON104KXQOCA50X831RDPH9PKCC4WN,3,4
214,3,object_10,object_06,1013.8999999985,5,2,229.79999999702,0.6666666666666666,1,object_04,1,3366,0,6,7,library_3,2,memory-2step-stake-s,712,3065226,0.0-19.0-0.1-0.214,A1LLAP0EV74WMS,3X52SWXE10LAELCT6ESTJVPQIDRWCT,3ON104KXQOCA50X831RDPH9PKCC4WN,6,5
215,1,object_08,object_09,481.10000000149,1,1,341.79999999702,0.3333333333333333,1,object_04,5,3381,0,3,5,desert_4,2,memory-2step-stake-s,713,3073082,0.0-19.0-0.1-0.215,A1LLAP0EV74WMS,3X52SWXE10LAELCT6ESTJVPQIDRWCT,3ON104KXQOCA50X831RDPH9PKCC4WN,1,2
216,1,object_08,object_09,567.19999999553,2,2,301.5,0.5555555555555556,2,object_01,5,3406,0,2,5,desert_7,2,memory-2step-stake-s,714,3081106,0.0-19.0-0.1-0.216,A1LLAP0EV74WMS,3X52SWXE10LAELCT6ESTJVPQIDRWCT,3ON104KXQOCA50X831RDPH9PKCC4WN,1,2
217,4,object_05,object_03,946.0,7,2,657.5,0.2222222222222222,1,object_04,5,3416,0,2,6,restaurant_4,2,memory-2step-stake-s,715,3089181,0.0-19.0-0.1-0.217,A1LLAP0EV74WMS,3X52SWXE10LAELCT6ESTJVPQIDRWCT,3ON104KXQOCA50X831RDPH9PKCC4WN,8,7
218,4,object_03,object_05,1099.3999999985,7,1,220.69999999553,0.2222222222222222,1,object_04,5,3426,0,2,8,restaurant_1,2,memory-2step-stake-s,716,3096820,0.0-19.0-0.1-0.218,A1LLAP0EV74WMS,3X52SWXE10LAELCT6ESTJVPQIDRWCT,3ON104KXQOCA50X831RDPH9PKCC4WN,7,8
219,3,object_06,object_10,901.39999999851,6,2,241.60000000149,0.7777777777777778,2,object_01,1,3433,0,6,7,library_4,2,memory-2step-stake-s,717,3104988,0.0-19.0-0.1-0.219,A1LLAP0EV74WMS,3X52SWXE10LAELCT6ESTJVPQIDRWCT,3ON104KXQOCA50X831RDPH9PKCC4WN,5,6
220,2,object_02,object_07,532.79999999702,3,2,381.69999999553,0.4444444444444444,1,object_04,5,3453,0,4,7,forest_1,2,memory-2step-stake-s,718,3112988,0.0-19.0-0.1-0.220,A1LLAP0EV74WMS,3X52SWXE10LAELCT6ESTJVPQIDRWCT,3ON104KXQOCA50X831RDPH9PKCC4WN,4,3
221,2,object_07,object_02,853.0,4,2,201.59999999404,0.7777777777777778,2,object_01,5,3488,0,4,7,forest_3,2,memory-2step-stake-s,719,3121113,0.0-19.0-0.1-0.221,A1LLAP0EV74WMS,3X52SWXE10LAELCT6ESTJVPQIDRWCT,3ON104KXQOCA50X831RDPH9PKCC4WN,3,4
222,3,object_06,object_10,1163.200000003,6,2,211.89999999851,0.6666666666666666,2,object_01,5,3518,0,2,6,library_4,2,memory-2step-stake-s,720,3129143,0.0-19.0-0.1-0.222,A1LLAP0EV74WMS,3X52SWXE10LAELCT6ESTJVPQIDRWCT,3ON104KXQOCA50X831RDPH9PKCC4WN,5,6
223,1,object_08,object_09,1062.200000003,2,2,257.79999999702,0.8888888888888888,2,object_01,5,3558,0,4,8,desert_4,2,memory-2step-stake-s,721,3137424,0.0-19.0-0.1-0.223,A1LLAP0EV74WMS,3X52SWXE10LAELCT6ESTJVPQIDRWCT,3ON104KXQOCA50X831RDPH9PKCC4WN,1,2
224,4,object_05,object_03,968.39999999851,7,2,222.60000000149,0.3333333333333333,1,object_04,1,3561,0,3,9,restaurant_4,2,memory-2step-stake-s,722,3145165,0.0-19.0-0.1-0.224,A1LLAP0EV74WMS,3X52SWXE10LAELCT6ESTJVPQIDRWCT,3ON104KXQOCA50X831RDPH9PKCC4WN,8,7
225,3,object_10,object_06,613.5,5,2,229.79999999702,0.2222222222222222,1,object_04,1,3563,0,2,7,library_7,2,memory-2step-stake-s,723,3152819,0.0-19.0-0.1-0.225,A1LLAP0EV74WMS,3X52SWXE10LAELCT6ESTJVPQIDRWCT,3ON104KXQOCA50X831RDPH9PKCC4WN,6,5
226,4,object_03,object_05,1058.1000000015,8,2,249.79999999702,0.7777777777777778,2,object_01,5,3598,0,3,7,restaurant_2,2,memory-2step-stake-s,724,3160994,0.0-19.0-0.1-0.226,A1LLAP0EV74WMS,3X52SWXE10LAELCT6ESTJVPQIDRWCT,3ON104KXQOCA50X831RDPH9PKCC4WN,7,8
227,2,object_07,object_02,1046.3999999985,4,2,447.89999999851,0.4444444444444444,2,object_01,5,3618,0,0,4,forest_1,2,memory-2step-stake-s,725,3169064,0.0-19.0-0.1-0.227,A1LLAP0EV74WMS,3X52SWXE10LAELCT6ESTJVPQIDRWCT,3ON104KXQOCA50X831RDPH9PKCC4WN,3,4
228,1,object_09,object_08,569.89999999851,2,1,448.79999999702,0.5555555555555556,2,object_01,5,3643,0,1,5,desert_4,2,memory-2step-stake-s,726,3177245,0.0-19.0-0.1-0.228,A1LLAP0EV74WMS,3X52SWXE10LAELCT6ESTJVPQIDRWCT,3ON104KXQOCA50X831RDPH9PKCC4WN,2,1
229,4,object_03,object_05,671.60000000149,8,2,362.30000000447,0.3333333333333333,2,object_01,1,3646,0,1,3,restaurant_2,2,memory-2step-stake-s,727,3185138,0.0-19.0-0.1-0.229,A1LLAP0EV74WMS,3X52SWXE10LAELCT6ESTJVPQIDRWCT,3ON104KXQOCA50X831RDPH9PKCC4WN,7,8
230,2,object_02,object_07,622.10000000149,3,2,230.29999999702,0.2222222222222222,1,object_04,5,3656,0,2,5,forest_3,2,memory-2step-stake-s,728,3192790,0.0-19.0-0.1-0.230,A1LLAP0EV74WMS,3X52SWXE10LAELCT6ESTJVPQIDRWCT,3ON104KXQOCA50X831RDPH9PKCC4WN,4,3
231,2,object_02,object_07,508.39999999851,4,1,193.80000000447,0.5555555555555556,2,object_01,1,3661,0,0,5,forest_6,2,memory-2step-stake-s,729,3200708,0.0-19.0-0.1-0.231,A1LLAP0EV74WMS,3X52SWXE10LAELCT6ESTJVPQIDRWCT,3ON104KXQOCA50X831RDPH9PKCC4WN,4,3
232,3,object_10,object_06,1013.3999999985,6,1,236.80000000447,0.5555555555555556,2,object_01,5,3686,0,1,5,library_4,2,memory-2step-stake-s,730,3208665,0.0-19.0-0.1-0.232,A1LLAP0EV74WMS,3X52SWXE10LAELCT6ESTJVPQIDRWCT,3ON104KXQOCA50X831RDPH9PKCC4WN,6,5
233,2,object_02,object_07,888.0,4,1,693.5,0.6666666666666666,2,object_01,5,3716,0,1,6,forest_3,2,memory-2step-stake-s,731,3217200,0.0-19.0-0.1-0.233,A1LLAP0EV74WMS,3X52SWXE10LAELCT6ESTJVPQIDRWCT,3ON104KXQOCA50X831RDPH9PKCC4WN,4,3
234,1,object_08,object_09,721.0,2,2,373.19999999553,0.6666666666666666,2,object_01,5,3746,0,0,6,desert_4,2,memory-2step-stake-s,732,3225391,0.0-19.0-0.1-0.234,A1LLAP0EV74WMS,3X52SWXE10LAELCT6ESTJVPQIDRWCT,3ON104KXQOCA50X831RDPH9PKCC4WN,1,2
235,4,object_03,object_05,-1.0,-1,-1,-1.0,0.0,-,0,1,3746,0,2,7,restaurant_1,2,memory-2step-stake-s,733,3231901,0.0-19.0-0.1-0.235,A1LLAP0EV74WMS,3X52SWXE10LAELCT6ESTJVPQIDRWCT,3ON104KXQOCA50X831RDPH9PKCC4WN,7,8
236,1,object_08,object_09,742.20000000298,2,2,224.40000000596,0.5555555555555556,2,object_01,1,3751,0,5,5,desert_7,2,memory-2step-stake-s,734,3239849,0.0-19.0-0.1-0.236,A1LLAP0EV74WMS,3X52SWXE10LAELCT6ESTJVPQIDRWCT,3ON104KXQOCA50X831RDPH9PKCC4WN,1,2
237,2,object_02,object_07,645.70000000298,4,1,271.70000000298,0.8888888888888888,2,object_01,5,3791,0,6,8,forest_6,2,memory-2step-stake-s,735,3248145,0.0-19.0-0.1-0.237,A1LLAP0EV74WMS,3X52SWXE10LAELCT6ESTJVPQIDRWCT,3ON104KXQOCA50X831RDPH9PKCC4WN,4,3
238,3,object_10,object_06,887.5,6,1,190.10000000149,0.4444444444444444,2,object_01,1,3795,0,8,4,library_7,2,memory-2step-stake-s,736,3255965,0.0-19.0-0.1-0.238,A1LLAP0EV74WMS,3X52SWXE10LAELCT6ESTJVPQIDRWCT,3ON104KXQOCA50X831RDPH9PKCC4WN,6,5
239,2,object_07,object_02,516.79999999702,4,2,220.60000000149,0.8888888888888888,2,object_01,5,3835,0,6,8,forest_1,2,memory-2step-stake-s,737,3264207,0.0-19.0-0.1-0.239,A1LLAP0EV74WMS,3X52SWXE10LAELCT6ESTJVPQIDRWCT,3ON104KXQOCA50X831RDPH9PKCC4WN,3,4
240,2,object_02,object_07,447.09999999404,4,1,207.79999999702,1.0,2,object_01,5,3880,0,7,9,forest_6,2,memory-2step-stake-s,738,3272542,0.0-19.0-0.1-0.240,A1LLAP0EV74WMS,3X52SWXE10LAELCT6ESTJVPQIDRWCT,3ON104KXQOCA50X831RDPH9PKCC4WN,4,3
241,1,object_08,object_09,1266.6000000015,2,2,799.39999999851,0.7777777777777778,2,object_01,5,3915,0,8,7,desert_4,2,memory-2step-stake-s,739,3281267,0.0-19.0-0.1-0.241,A1LLAP0EV74WMS,3X52SWXE10LAELCT6ESTJVPQIDRWCT,3ON104KXQOCA50X831RDPH9PKCC4WN,1,2
242,2,object_02,object_07,448.0,4,1,192.29999999702,0.7777777777777778,2,object_01,5,3950,0,8,7,forest_1,2,memory-2step-stake-s,740,3289384,0.0-19.0-0.1-0.242,A1LLAP0EV74WMS,3X52SWXE10LAELCT6ESTJVPQIDRWCT,3ON104KXQOCA50X831RDPH9PKCC4WN,4,3
243,4,object_05,object_03,764.0,8,1,227.10000000149,0.5555555555555556,2,object_01,1,3955,0,9,5,restaurant_4,2,memory-2step-stake-s,741,3297334,0.0-19.0-0.1-0.243,A1LLAP0EV74WMS,3X52SWXE10LAELCT6ESTJVPQIDRWCT,3ON104KXQOCA50X831RDPH9PKCC4WN,8,7
244,4,object_03,object_05,896.19999999553,8,2,277.80000000447,0.4444444444444444,2,object_01,5,3975,0,7,4,restaurant_1,2,memory-2step-stake-s,742,3305228,0.0-19.0-0.1-0.244,A1LLAP0EV74WMS,3X52SWXE10LAELCT6ESTJVPQIDRWCT,3ON104KXQOCA50X831RDPH9PKCC4WN,7,8
245,1,object_08,object_09,787.60000000149,2,2,195.60000000149,0.4444444444444444,2,object_01,1,3979,0,3,4,desert_8,2,memory-2step-stake-s,743,3313042,0.0-19.0-0.1-0.245,A1LLAP0EV74WMS,3X52SWXE10LAELCT6ESTJVPQIDRWCT,3ON104KXQOCA50X831RDPH9PKCC4WN,1,2
246,2,object_02,object_07,389.60000000149,3,2,208.89999999851,0.3333333333333333,1,object_04,5,3994,0,3,5,forest_2,2,memory-2step-stake-s,744,3320770,0.0-19.0-0.1-0.246,A1LLAP0EV74WMS,3X52SWXE10LAELCT6ESTJVPQIDRWCT,3ON104KXQOCA50X831RDPH9PKCC4WN,4,3
247,3,object_10,object_06,792.70000000298,6,1,221.79999999702,0.3333333333333333,2,object_01,1,3997,0,3,3,library_3,2,memory-2step-stake-s,745,3328509,0.0-19.0-0.1-0.247,A1LLAP0EV74WMS,3X52SWXE10LAELCT6ESTJVPQIDRWCT,3ON104KXQOCA50X831RDPH9PKCC4WN,6,5
248,3,object_10,object_06,924.10000000149,6,1,205.39999999851,0.1111111111111111,2,object_01,5,4002,0,4,1,library_7,2,memory-2step-stake-s,746,3336028,0.0-19.0-0.1-0.248,A1LLAP0EV74WMS,3X52SWXE10LAELCT6ESTJVPQIDRWCT,3ON104KXQOCA50X831RDPH9PKCC4WN,6,5
249,2,object_02,object_07,561.39999999851,3,2,191.5,0.4444444444444444,1,object_04,1,4006,0,4,4,forest_6,2,memory-2step-stake-s,747,3343841,0.0-19.0-0.1-0.249,A1LLAP0EV74WMS,3X52SWXE10LAELCT6ESTJVPQIDRWCT,3ON104KXQOCA50X831RDPH9PKCC4WN,4,3
250,1,object_08,object_09,610.79999999702,1,1,282.60000000149,0.7777777777777778,1,object_04,5,4041,0,7,2,desert_2,2,memory-2step-stake-s,748,3352049,0.0-19.0-0.1-0.250,A1LLAP0EV74WMS,3X52SWXE10LAELCT6ESTJVPQIDRWCT,3ON104KXQOCA50X831RDPH9PKCC4WN,1,2
251,2,object_02,object_07,460.10000000149,3,2,200.0,0.7777777777777778,1,object_04,5,4076,0,7,0,forest_3,2,memory-2step-stake-s,749,3360175,0.0-19.0-0.1-0.251,A1LLAP0EV74WMS,3X52SWXE10LAELCT6ESTJVPQIDRWCT,3ON104KXQOCA50X831RDPH9PKCC4WN,4,3
252,2,object_02,object_07,463.89999999851,3,2,194.5,0.7777777777777778,1,object_04,5,4111,0,7,3,forest_2,2,memory-2step-stake-s,750,3368292,0.0-19.0-0.1-0.252,A1LLAP0EV74WMS,3X52SWXE10LAELCT6ESTJVPQIDRWCT,3ON104KXQOCA50X831RDPH9PKCC4WN,4,3
253,4,object_05,object_03,857.69999999553,7,2,392.89999999851,0.8888888888888888,1,object_04,1,4119,0,8,3,restaurant_2,2,memory-2step-stake-s,751,3376713,0.0-19.0-0.1-0.253,A1LLAP0EV74WMS,3X52SWXE10LAELCT6ESTJVPQIDRWCT,3ON104KXQOCA50X831RDPH9PKCC4WN,8,7
254,2,object_02,object_07,514.79999999702,3,2,426.70000000298,0.8888888888888888,1,object_04,5,4159,0,8,6,forest_3,2,memory-2step-stake-s,752,3385197,0.0-19.0-0.1-0.254,A1LLAP0EV74WMS,3X52SWXE10LAELCT6ESTJVPQIDRWCT,3ON104KXQOCA50X831RDPH9PKCC4WN,4,3
255,4,object_05,object_03,583.0,7,2,203.20000000298,0.5555555555555556,1,object_04,1,4164,0,5,6,restaurant_1,2,memory-2step-stake-s,753,3393121,0.0-19.0-0.1-0.255,A1LLAP0EV74WMS,3X52SWXE10LAELCT6ESTJVPQIDRWCT,3ON104KXQOCA50X831RDPH9PKCC4WN,8,7
