,state1,stim_left,stim_right,rt_1,choice1,response1,rt_2,points,state2,stim_state2,stake,score,practice,rews1,rews2,background,high_arm,trial_type,trial_index,time_elapsed,internal_node_id,subid,hitid,assignmentid,stim_left_num,stim_right_num
0,3,object_06,object_05,1010.900000006,6,2,1316.5,0.2222222222222222,2,object_04,1,2,0,7,2,library_5,2,memory-2step-stake-s,490,853467,0.0-19.0-0.0-0.0,A1G5EPLJEGL381,3SD15I2WE5AO7614M34OSYMJOYM362,3YDGXNSEO3AZFZ1Q5YB7B163256485,5,6
1,2,object_10,object_08,-1.0,-1,-1,-1.0,0.0,-,0,5,2,0,4,2,forest_8,2,memory-2step-stake-s,491,859985,0.0-19.0-0.0-0.1,A1G5EPLJEGL381,3SD15I2WE5AO7614M34OSYMJOYM362,3YDGXNSEO3AZFZ1Q5YB7B163256485,4,3
2,1,object_02,object_09,1074.0,1,2,1202.3000000119,0.2222222222222222,1,object_01,5,12,0,2,2,desert_6,2,memory-2step-stake-s,492,868615,0.0-19.0-0.0-0.2,A1G5EPLJEGL381,3SD15I2WE5AO7614M34OSYMJOYM362,3YDGXNSEO3AZFZ1Q5YB7B163256485,2,1
3,2,object_10,object_08,810.0,3,2,498.20000001788,0.3333333333333333,1,object_01,1,15,0,3,0,forest_4,2,memory-2step-stake-s,493,876637,0.0-19.0-0.0-0.3,A1G5EPLJEGL381,3SD15I2WE5AO7614M34OSYMJOYM362,3YDGXNSEO3AZFZ1Q5YB7B163256485,4,3
4,4,object_07,object_03,-1.0,-1,-1,-1.0,0.0,-,0,5,15,0,1,3,restaurant_5,2,memory-2step-stake-s,494,883149,0.0-19.0-0.0-0.4,A1G5EPLJEGL381,3SD15I2WE5AO7614M34OSYMJOYM362,3YDGXNSEO3AZFZ1Q5YB7B163256485,7,8
5,1,object_02,object_09,637.5,1,2,935.70000001788,0.1111111111111111,1,object_01,5,20,0,1,1,desert_5,2,memory-2step-stake-s,495,891405,0.0-19.0-0.0-0.5,A1G5EPLJEGL381,3SD15I2WE5AO7614M34OSYMJOYM362,3YDGXNSEO3AZFZ1Q5YB7B163256485,2,1
6,3,object_06,object_05,748.5,5,1,582.80000001192,0.3333333333333333,1,object_01,1,23,0,3,2,library_5,2,memory-2step-stake-s,496,899510,0.0-19.0-0.0-0.6,A1G5EPLJEGL381,3SD15I2WE5AO7614M34OSYMJOYM362,3YDGXNSEO3AZFZ1Q5YB7B163256485,5,6
7,1,object_09,object_02,585.59999999404,2,2,508.5,0.2222222222222222,2,object_04,5,33,0,2,2,desert_2,2,memory-2step-stake-s,497,907458,0.0-19.0-0.0-0.7,A1G5EPLJEGL381,3SD15I2WE5AO7614M34OSYMJOYM362,3YDGXNSEO3AZFZ1Q5YB7B163256485,1,2
8,3,object_06,object_05,865.09999999404,5,1,715.19999998808,0.2222222222222222,1,object_01,5,43,0,2,1,library_5,2,memory-2step-stake-s,498,915592,0.0-19.0-0.0-0.8,A1G5EPLJEGL381,3SD15I2WE5AO7614M34OSYMJOYM362,3YDGXNSEO3AZFZ1Q5YB7B163256485,5,6
9,2,object_10,object_08,1010.599999994,4,1,443.90000000596,0.2222222222222222,2,object_04,5,53,0,2,2,forest_5,2,memory-2step-stake-s,499,923457,0.0-19.0-0.0-0.9,A1G5EPLJEGL381,3SD15I2WE5AO7614M34OSYMJOYM362,3YDGXNSEO3AZFZ1Q5YB7B163256485,4,3
10,3,object_05,object_06,664.30000001192,5,2,585.5,0.1111111111111111,1,object_01,1,54,0,1,6,library_7,2,memory-2step-stake-s,500,931384,0.0-19.0-0.0-0.10,A1G5EPLJEGL381,3SD15I2WE5AO7614M34OSYMJOYM362,3YDGXNSEO3AZFZ1Q5YB7B163256485,6,5
11,3,object_06,object_05,609.59999999404,5,1,540.79999998212,0.1111111111111111,1,object_01,1,55,0,1,4,library_3,2,memory-2step-stake-s,501,939255,0.0-19.0-0.0-0.11,A1G5EPLJEGL381,3SD15I2WE5AO7614M34OSYMJOYM362,3YDGXNSEO3AZFZ1Q5YB7B163256485,5,6
12,2,object_08,object_10,616.5,4,2,602.5,0.3333333333333333,2,object_04,5,70,0,1,3,forest_2,2,memory-2step-stake-s,502,947388,0.0-19.0-0.0-0.12,A1G5EPLJEGL381,3SD15I2WE5AO7614M34OSYMJOYM362,3YDGXNSEO3AZFZ1Q5YB7B163256485,3,4
13,1,object_02,object_09,990.0,1,2,983.5,0.0,1,object_01,5,70,0,0,2,desert_7,2,memory-2step-stake-s,503,955591,0.0-19.0-0.0-0.13,A1G5EPLJEGL381,3SD15I2WE5AO7614M34OSYMJOYM362,3YDGXNSEO3AZFZ1Q5YB7B163256485,2,1
14,2,object_10,object_08,932.40000000596,4,1,573.59999999404,0.2222222222222222,2,object_04,5,80,0,1,2,forest_5,2,memory-2step-stake-s,504,963582,0.0-19.0-0.0-0.14,A1G5EPLJEGL381,3SD15I2WE5AO7614M34OSYMJOYM362,3YDGXNSEO3AZFZ1Q5YB7B163256485,4,3
15,3,object_05,object_06,428.0,5,2,579.5,0.0,1,object_01,1,80,0,0,1,library_1,2,memory-2step-stake-s,505,971380,0.0-19.0-0.0-0.15,A1G5EPLJEGL381,3SD15I2WE5AO7614M34OSYMJOYM362,3YDGXNSEO3AZFZ1Q5YB7B163256485,6,5
16,4,object_03,object_07,598.0,8,1,447.90000000596,0.1111111111111111,2,object_04,1,81,0,1,1,restaurant_6,2,memory-2step-stake-s,506,979148,0.0-19.0-0.0-0.16,A1G5EPLJEGL381,3SD15I2WE5AO7614M34OSYMJOYM362,3YDGXNSEO3AZFZ1Q5YB7B163256485,8,7
17,4,object_03,object_07,525.0,7,2,653.59999999404,0.1111111111111111,1,object_01,1,82,0,1,3,restaurant_7,2,memory-2step-stake-s,507,987121,0.0-19.0-0.0-0.17,A1G5EPLJEGL381,3SD15I2WE5AO7614M34OSYMJOYM362,3YDGXNSEO3AZFZ1Q5YB7B163256485,8,7
18,3,object_06,object_05,966.59999999404,6,2,1265.8999999762,0.2222222222222222,2,object_04,1,84,0,2,2,library_5,2,memory-2step-stake-s,508,995822,0.0-19.0-0.0-0.18,A1G5EPLJEGL381,3SD15I2WE5AO7614M34OSYMJOYM362,3YDGXNSEO3AZFZ1Q5YB7B163256485,5,6
19,3,object_06,object_05,275.30000001192,6,2,629.0,0.0,2,object_04,1,84,0,1,0,library_1,2,memory-2step-stake-s,509,1003668,0.0-19.0-0.0-0.19,A1G5EPLJEGL381,3SD15I2WE5AO7614M34OSYMJOYM362,3YDGXNSEO3AZFZ1Q5YB7B163256485,5,6
20,1,object_02,object_09,588.39999997616,2,1,654.30000001192,0.0,2,object_04,5,84,0,1,0,desert_7,2,memory-2step-stake-s,510,1011541,0.0-19.0-0.0-0.20,A1G5EPLJEGL381,3SD15I2WE5AO7614M34OSYMJOYM362,3YDGXNSEO3AZFZ1Q5YB7B163256485,2,1
21,3,object_05,object_06,539.30000001192,5,2,493.80000001192,0.1111111111111111,1,object_01,1,85,0,1,1,library_7,2,memory-2step-stake-s,511,1019372,0.0-19.0-0.0-0.21,A1G5EPLJEGL381,3SD15I2WE5AO7614M34OSYMJOYM362,3YDGXNSEO3AZFZ1Q5YB7B163256485,6,5
22,3,object_06,object_05,500.40000000596,5,1,487.0,0.3333333333333333,1,object_01,1,88,0,3,2,library_5,2,memory-2step-stake-s,512,1027390,0.0-19.0-0.0-0.22,A1G5EPLJEGL381,3SD15I2WE5AO7614M34OSYMJOYM362,3YDGXNSEO3AZFZ1Q5YB7B163256485,5,6
23,4,object_03,object_07,389.5,7,2,536.09999999404,0.5555555555555556,1,object_01,5,113,0,5,2,restaurant_7,2,memory-2step-stake-s,513,1035647,0.0-19.0-0.0-0.23,A1G5EPLJEGL381,3SD15I2WE5AO7614M34OSYMJOYM362,3YDGXNSEO3AZFZ1Q5YB7B163256485,8,7
24,3,object_05,object_06,349.09999999404,6,1,519.40000000596,0.3333333333333333,2,object_04,1,116,0,3,3,library_3,2,memory-2step-stake-s,514,1043683,0.0-19.0-0.0-0.24,A1G5EPLJEGL381,3SD15I2WE5AO7614M34OSYMJOYM362,3YDGXNSEO3AZFZ1Q5YB7B163256485,6,5
25,1,object_09,object_02,607.29999998212,2,2,586.0,0.1111111111111111,2,object_04,1,117,0,0,1,desert_7,2,memory-2step-stake-s,515,1051594,0.0-19.0-0.0-0.25,A1G5EPLJEGL381,3SD15I2WE5AO7614M34OSYMJOYM362,3YDGXNSEO3AZFZ1Q5YB7B163256485,1,2
26,3,object_06,object_05,512.5,5,1,516.30000001192,0.2222222222222222,1,object_01,1,119,0,2,5,library_7,2,memory-2step-stake-s,516,1059529,0.0-19.0-0.0-0.26,A1G5EPLJEGL381,3SD15I2WE5AO7614M34OSYMJOYM362,3YDGXNSEO3AZFZ1Q5YB7B163256485,5,6
27,3,object_06,object_05,290.69999998808,6,2,508.59999999404,0.7777777777777778,2,object_04,1,126,0,3,7,library_1,2,memory-2step-stake-s,517,1067966,0.0-19.0-0.0-0.27,A1G5EPLJEGL381,3SD15I2WE5AO7614M34OSYMJOYM362,3YDGXNSEO3AZFZ1Q5YB7B163256485,5,6
28,2,object_08,object_10,845.89999997616,3,1,496.40000000596,0.2222222222222222,1,object_01,5,136,0,2,6,forest_5,2,memory-2step-stake-s,518,1075879,0.0-19.0-0.0-0.28,A1G5EPLJEGL381,3SD15I2WE5AO7614M34OSYMJOYM362,3YDGXNSEO3AZFZ1Q5YB7B163256485,3,4
29,3,object_06,object_05,776.0,6,2,586.0,1.0,2,object_04,1,145,0,1,9,library_1,2,memory-2step-stake-s,519,1084609,0.0-19.0-0.0-0.29,A1G5EPLJEGL381,3SD15I2WE5AO7614M34OSYMJOYM362,3YDGXNSEO3AZFZ1Q5YB7B163256485,5,6
30,2,object_10,object_08,880.5,4,1,443.0,0.8888888888888888,2,object_04,1,153,0,5,8,forest_5,2,memory-2step-stake-s,520,1093075,0.0-19.0-0.0-0.30,A1G5EPLJEGL381,3SD15I2WE5AO7614M34OSYMJOYM362,3YDGXNSEO3AZFZ1Q5YB7B163256485,4,3
31,2,object_08,object_10,1102.0,3,1,736.20000001788,0.6666666666666666,1,object_01,5,183,0,6,7,forest_2,2,memory-2step-stake-s,521,1101635,0.0-19.0-0.0-0.31,A1G5EPLJEGL381,3SD15I2WE5AO7614M34OSYMJOYM362,3YDGXNSEO3AZFZ1Q5YB7B163256485,3,4
32,2,object_08,object_10,1445.599999994,4,2,632.29999998212,0.6666666666666666,2,object_04,5,213,0,6,6,forest_5,2,memory-2step-stake-s,522,1110104,0.0-19.0-0.0-0.32,A1G5EPLJEGL381,3SD15I2WE5AO7614M34OSYMJOYM362,3YDGXNSEO3AZFZ1Q5YB7B163256485,3,4
33,1,object_02,object_09,633.69999998808,2,1,500.5,0.3333333333333333,2,object_04,1,216,0,7,3,desert_5,2,memory-2step-stake-s,523,1118127,0.0-19.0-0.0-0.33,A1G5EPLJEGL381,3SD15I2WE5AO7614M34OSYMJOYM362,3YDGXNSEO3AZFZ1Q5YB7B163256485,2,1
34,2,object_08,object_10,649.80000001192,4,2,533.10000002384,0.1111111111111111,2,object_04,5,221,0,9,1,forest_4,2,memory-2step-stake-s,524,1125990,0.0-19.0-0.0-0.34,A1G5EPLJEGL381,3SD15I2WE5AO7614M34OSYMJOYM362,3YDGXNSEO3AZFZ1Q5YB7B163256485,3,4
35,2,object_10,object_08,458.0,3,2,668.5,0.8888888888888888,1,object_01,1,229,0,8,4,forest_4,2,memory-2step-stake-s,525,1134699,0.0-19.0-0.0-0.35,A1G5EPLJEGL381,3SD15I2WE5AO7614M34OSYMJOYM362,3YDGXNSEO3AZFZ1Q5YB7B163256485,4,3
36,2,object_10,object_08,662.0,4,1,545.10000002384,0.4444444444444444,2,object_04,5,249,0,7,4,forest_5,2,memory-2step-stake-s,526,1142879,0.0-19.0-0.0-0.36,A1G5EPLJEGL381,3SD15I2WE5AO7614M34OSYMJOYM362,3YDGXNSEO3AZFZ1Q5YB7B163256485,4,3
37,1,object_09,object_02,514.0,2,2,524.40000000596,0.4444444444444444,2,object_04,1,253,0,7,4,desert_5,2,memory-2step-stake-s,527,1151030,0.0-19.0-0.0-0.37,A1G5EPLJEGL381,3SD15I2WE5AO7614M34OSYMJOYM362,3YDGXNSEO3AZFZ1Q5YB7B163256485,1,2
38,2,object_08,object_10,555.40000000596,3,1,463.0,0.6666666666666666,1,object_01,1,259,0,6,4,forest_8,2,memory-2step-stake-s,528,1159330,0.0-19.0-0.0-0.38,A1G5EPLJEGL381,3SD15I2WE5AO7614M34OSYMJOYM362,3YDGXNSEO3AZFZ1Q5YB7B163256485,3,4
39,1,object_09,object_02,728.39999997616,1,1,491.19999998808,1.0,1,object_01,5,304,0,9,6,desert_2,2,memory-2step-stake-s,529,1167946,0.0-19.0-0.0-0.39,A1G5EPLJEGL381,3SD15I2WE5AO7614M34OSYMJOYM362,3YDGXNSEO3AZFZ1Q5YB7B163256485,1,2
40,2,object_08,object_10,998.30000001192,3,1,560.29999998212,0.7777777777777778,1,object_01,5,339,0,7,6,forest_2,2,memory-2step-stake-s,530,1176437,0.0-19.0-0.0-0.40,A1G5EPLJEGL381,3SD15I2WE5AO7614M34OSYMJOYM362,3YDGXNSEO3AZFZ1Q5YB7B163256485,3,4
41,3,object_06,object_05,347.59999999404,6,2,411.19999998808,0.4444444444444444,2,object_04,1,343,0,8,4,library_5,2,memory-2step-stake-s,531,1184471,0.0-19.0-0.0-0.41,A1G5EPLJEGL381,3SD15I2WE5AO7614M34OSYMJOYM362,3YDGXNSEO3AZFZ1Q5YB7B163256485,5,6
42,4,object_07,object_03,817.19999998808,8,2,445.29999998212,0.4444444444444444,2,object_04,1,347,0,8,4,restaurant_5,2,memory-2step-stake-s,532,1192536,0.0-19.0-0.0-0.42,A1G5EPLJEGL381,3SD15I2WE5AO7614M34OSYMJOYM362,3YDGXNSEO3AZFZ1Q5YB7B163256485,7,8
43,1,object_02,object_09,566.90000000596,2,1,466.20000001788,0.4444444444444444,2,object_04,1,351,0,7,4,desert_2,2,memory-2step-stake-s,533,1200623,0.0-19.0-0.0-0.43,A1G5EPLJEGL381,3SD15I2WE5AO7614M34OSYMJOYM362,3YDGXNSEO3AZFZ1Q5YB7B163256485,2,1
44,4,object_03,object_07,696.80000001192,7,2,564.0,0.5555555555555556,1,object_01,1,356,0,5,2,restaurant_7,2,memory-2step-stake-s,534,1208910,0.0-19.0-0.0-0.44,A1G5EPLJEGL381,3SD15I2WE5AO7614M34OSYMJOYM362,3YDGXNSEO3AZFZ1Q5YB7B163256485,8,7
45,4,object_03,object_07,587.0,8,1,561.90000000596,0.2222222222222222,2,object_04,1,358,0,8,2,restaurant_6,2,memory-2step-stake-s,535,1216906,0.0-19.0-0.0-0.45,A1G5EPLJEGL381,3SD15I2WE5AO7614M34OSYMJOYM362,3YDGXNSEO3AZFZ1Q5YB7B163256485,8,7
46,2,object_08,object_10,495.40000000596,4,2,531.39999997616,0.2222222222222222,2,object_04,1,360,0,6,2,forest_8,2,memory-2step-stake-s,536,1224852,0.0-19.0-0.0-0.46,A1G5EPLJEGL381,3SD15I2WE5AO7614M34OSYMJOYM362,3YDGXNSEO3AZFZ1Q5YB7B163256485,3,4
47,1,object_02,object_09,709.60000002384,1,2,576.40000000596,0.0,1,object_01,5,360,0,0,2,desert_6,2,memory-2step-stake-s,537,1232663,0.0-19.0-0.0-0.47,A1G5EPLJEGL381,3SD15I2WE5AO7614M34OSYMJOYM362,3YDGXNSEO3AZFZ1Q5YB7B163256485,2,1
48,3,object_05,object_06,1081.400000006,6,1,700.90000000596,0.4444444444444444,2,object_04,1,364,0,2,4,library_5,2,memory-2step-stake-s,538,1240983,0.0-19.0-0.0-0.48,A1G5EPLJEGL381,3SD15I2WE5AO7614M34OSYMJOYM362,3YDGXNSEO3AZFZ1Q5YB7B163256485,6,5
49,2,object_10,object_08,642.19999998808,3,2,628.79999998212,0.1111111111111111,1,object_01,1,365,0,1,2,forest_8,2,memory-2step-stake-s,539,1248935,0.0-19.0-0.0-0.49,A1G5EPLJEGL381,3SD15I2WE5AO7614M34OSYMJOYM362,3YDGXNSEO3AZFZ1Q5YB7B163256485,4,3
50,4,object_03,object_07,305.29999998212,7,2,636.29999998212,0.1111111111111111,1,object_01,1,366,0,1,4,restaurant_5,2,memory-2step-stake-s,540,1256889,0.0-19.0-0.0-0.50,A1G5EPLJEGL381,3SD15I2WE5AO7614M34OSYMJOYM362,3YDGXNSEO3AZFZ1Q5YB7B163256485,8,7
51,2,object_08,object_10,1136.400000006,4,2,458.40000000596,0.4444444444444444,2,object_04,5,386,0,5,4,forest_4,2,memory-2step-stake-s,541,1264967,0.0-19.0-0.0-0.51,A1G5EPLJEGL381,3SD15I2WE5AO7614M34OSYMJOYM362,3YDGXNSEO3AZFZ1Q5YB7B163256485,3,4
52,4,object_03,object_07,802.5,8,1,550.20000001788,0.7777777777777778,2,object_04,5,421,0,3,7,restaurant_7,2,memory-2step-stake-s,542,1273448,0.0-19.0-0.0-0.52,A1G5EPLJEGL381,3SD15I2WE5AO7614M34OSYMJOYM362,3YDGXNSEO3AZFZ1Q5YB7B163256485,8,7
53,3,object_06,object_05,599.30000001192,6,2,594.30000001192,0.8888888888888888,2,object_04,1,429,0,6,8,library_3,2,memory-2step-stake-s,543,1282065,0.0-19.0-0.0-0.53,A1G5EPLJEGL381,3SD15I2WE5AO7614M34OSYMJOYM362,3YDGXNSEO3AZFZ1Q5YB7B163256485,5,6
54,4,object_03,object_07,685.40000000596,8,1,497.09999999404,0.8888888888888888,2,object_04,1,437,0,2,8,restaurant_3,2,memory-2step-stake-s,544,1290588,0.0-19.0-0.0-0.54,A1G5EPLJEGL381,3SD15I2WE5AO7614M34OSYMJOYM362,3YDGXNSEO3AZFZ1Q5YB7B163256485,8,7
55,3,object_06,object_05,497.5,6,2,477.0,0.7777777777777778,2,object_04,1,444,0,4,7,library_1,2,memory-2step-stake-s,545,1298988,0.0-19.0-0.0-0.55,A1G5EPLJEGL381,3SD15I2WE5AO7614M34OSYMJOYM362,3YDGXNSEO3AZFZ1Q5YB7B163256485,5,6
56,4,object_07,object_03,561.59999999404,7,1,492.69999998808,0.8888888888888888,1,object_01,1,452,0,8,4,restaurant_3,2,memory-2step-stake-s,546,1307507,0.0-19.0-0.0-0.56,A1G5EPLJEGL381,3SD15I2WE5AO7614M34OSYMJOYM362,3YDGXNSEO3AZFZ1Q5YB7B163256485,7,8
57,2,object_08,object_10,271.5,4,2,-1.0,0.0,2,object_04,1,452,0,9,4,forest_8,2,memory-2step-stake-s,547,1316026,0.0-19.0-0.0-0.57,A1G5EPLJEGL381,3SD15I2WE5AO7614M34OSYMJOYM362,3YDGXNSEO3AZFZ1Q5YB7B163256485,3,4
58,4,object_07,object_03,867.59999999404,8,2,551.90000000596,0.6666666666666666,2,object_04,1,458,0,7,6,restaurant_3,2,memory-2step-stake-s,548,1324398,0.0-19.0-0.0-0.58,A1G5EPLJEGL381,3SD15I2WE5AO7614M34OSYMJOYM362,3YDGXNSEO3AZFZ1Q5YB7B163256485,7,8
59,3,object_05,object_06,606.30000001192,5,2,593.60000002384,0.4444444444444444,1,object_01,1,462,0,4,6,library_3,2,memory-2step-stake-s,549,1332628,0.0-19.0-0.0-0.59,A1G5EPLJEGL381,3SD15I2WE5AO7614M34OSYMJOYM362,3YDGXNSEO3AZFZ1Q5YB7B163256485,6,5
60,4,object_03,object_07,584.59999999404,7,2,587.0,0.2222222222222222,1,object_01,5,472,0,2,4,restaurant_5,2,memory-2step-stake-s,550,1340638,0.0-19.0-0.0-0.60,A1G5EPLJEGL381,3SD15I2WE5AO7614M34OSYMJOYM362,3YDGXNSEO3AZFZ1Q5YB7B163256485,8,7
61,1,object_02,object_09,615.0,1,2,560.29999998212,0.1111111111111111,1,object_01,5,477,0,1,1,desert_6,2,memory-2step-stake-s,551,1348518,0.0-19.0-0.0-0.61,A1G5EPLJEGL381,3SD15I2WE5AO7614M34OSYMJOYM362,3YDGXNSEO3AZFZ1Q5YB7B163256485,2,1
62,2,object_10,object_08,566.40000000596,4,1,713.59999999404,0.2222222222222222,2,object_04,5,487,0,2,2,forest_4,2,memory-2step-stake-s,552,1356665,0.0-19.0-0.0-0.62,A1G5EPLJEGL381,3SD15I2WE5AO7614M34OSYMJOYM362,3YDGXNSEO3AZFZ1Q5YB7B163256485,4,3
63,1,object_02,object_09,405.19999998808,1,2,616.59999999404,0.3333333333333333,1,object_01,5,502,0,3,0,desert_5,2,memory-2step-stake-s,553,1364805,0.0-19.0-0.0-0.63,A1G5EPLJEGL381,3SD15I2WE5AO7614M34OSYMJOYM362,3YDGXNSEO3AZFZ1Q5YB7B163256485,2,1
64,4,object_07,object_03,589.09999999404,7,1,552.5,0.1111111111111111,1,object_01,1,503,0,1,1,restaurant_3,2,memory-2step-stake-s,554,1372687,0.0-19.0-0.0-0.64,A1G5EPLJEGL381,3SD15I2WE5AO7614M34OSYMJOYM362,3YDGXNSEO3AZFZ1Q5YB7B163256485,7,8
65,1,object_02,object_09,503.0,1,2,537.69999998808,0.0,1,object_01,5,503,0,0,3,desert_5,2,memory-2step-stake-s,555,1380441,0.0-19.0-0.0-0.65,A1G5EPLJEGL381,3SD15I2WE5AO7614M34OSYMJOYM362,3YDGXNSEO3AZFZ1Q5YB7B163256485,2,1
66,1,object_09,object_02,724.30000001192,2,2,599.69999998808,0.2222222222222222,2,object_04,5,513,0,1,2,desert_2,2,memory-2step-stake-s,556,1388460,0.0-19.0-0.0-0.66,A1G5EPLJEGL381,3SD15I2WE5AO7614M34OSYMJOYM362,3YDGXNSEO3AZFZ1Q5YB7B163256485,1,2
67,1,object_02,object_09,456.90000000596,2,1,498.30000001192,0.2222222222222222,2,object_04,5,523,0,2,2,desert_6,2,memory-2step-stake-s,557,1396380,0.0-19.0-0.0-0.67,A1G5EPLJEGL381,3SD15I2WE5AO7614M34OSYMJOYM362,3YDGXNSEO3AZFZ1Q5YB7B163256485,2,1
68,3,object_06,object_05,429.09999999404,6,2,496.59999999404,0.1111111111111111,2,object_04,1,524,0,1,1,library_7,2,memory-2step-stake-s,558,1404196,0.0-19.0-0.0-0.68,A1G5EPLJEGL381,3SD15I2WE5AO7614M34OSYMJOYM362,3YDGXNSEO3AZFZ1Q5YB7B163256485,5,6
69,4,object_03,object_07,350.5,8,1,416.89999997616,0.0,2,object_04,1,524,0,1,0,restaurant_5,2,memory-2step-stake-s,559,1411831,0.0-19.0-0.0-0.69,A1G5EPLJEGL381,3SD15I2WE5AO7614M34OSYMJOYM362,3YDGXNSEO3AZFZ1Q5YB7B163256485,8,7
70,4,object_03,object_07,323.69999998808,7,2,588.0,0.4444444444444444,1,object_01,1,528,0,4,2,restaurant_6,2,memory-2step-stake-s,560,1420046,0.0-19.0-0.0-0.70,A1G5EPLJEGL381,3SD15I2WE5AO7614M34OSYMJOYM362,3YDGXNSEO3AZFZ1Q5YB7B163256485,8,7
71,4,object_03,object_07,527.59999999404,7,2,481.0,0.3333333333333333,1,object_01,1,531,0,3,2,restaurant_5,2,memory-2step-stake-s,561,1428046,0.0-19.0-0.0-0.71,A1G5EPLJEGL381,3SD15I2WE5AO7614M34OSYMJOYM362,3YDGXNSEO3AZFZ1Q5YB7B163256485,8,7
72,2,object_08,object_10,872.30000001192,4,2,587.29999998212,0.5555555555555556,2,object_04,5,556,0,2,5,forest_2,2,memory-2step-stake-s,562,1436355,0.0-19.0-0.0-0.72,A1G5EPLJEGL381,3SD15I2WE5AO7614M34OSYMJOYM362,3YDGXNSEO3AZFZ1Q5YB7B163256485,3,4
73,2,object_10,object_08,1353.7000000179,4,1,1500.3000000119,0.4444444444444444,2,object_04,5,576,0,2,4,forest_2,2,memory-2step-stake-s,563,1445476,0.0-19.0-0.0-0.73,A1G5EPLJEGL381,3SD15I2WE5AO7614M34OSYMJOYM362,3YDGXNSEO3AZFZ1Q5YB7B163256485,4,3
74,3,object_06,object_05,513.60000002384,6,2,491.09999999404,0.6666666666666666,2,object_04,1,582,0,2,6,library_1,2,memory-2step-stake-s,564,1453829,0.0-19.0-0.0-0.74,A1G5EPLJEGL381,3SD15I2WE5AO7614M34OSYMJOYM362,3YDGXNSEO3AZFZ1Q5YB7B163256485,5,6
75,4,object_03,object_07,671.19999998808,7,2,625.5,0.3333333333333333,1,object_01,5,597,0,3,7,restaurant_6,2,memory-2step-stake-s,565,1461975,0.0-19.0-0.0-0.75,A1G5EPLJEGL381,3SD15I2WE5AO7614M34OSYMJOYM362,3YDGXNSEO3AZFZ1Q5YB7B163256485,8,7
76,4,object_03,object_07,149.59999999404,7,2,504.80000001192,0.5555555555555556,1,object_01,5,622,0,5,6,restaurant_5,2,memory-2step-stake-s,566,1470214,0.0-19.0-0.0-0.76,A1G5EPLJEGL381,3SD15I2WE5AO7614M34OSYMJOYM362,3YDGXNSEO3AZFZ1Q5YB7B163256485,8,7
77,1,object_02,object_09,439.40000000596,2,1,600.59999999404,0.6666666666666666,2,object_04,5,652,0,9,6,desert_5,2,memory-2step-stake-s,567,1478637,0.0-19.0-0.0-0.77,A1G5EPLJEGL381,3SD15I2WE5AO7614M34OSYMJOYM362,3YDGXNSEO3AZFZ1Q5YB7B163256485,2,1
78,4,object_03,object_07,328.09999999404,7,2,598.20000001788,0.8888888888888888,1,object_01,1,660,0,8,3,restaurant_3,2,memory-2step-stake-s,568,1487272,0.0-19.0-0.0-0.78,A1G5EPLJEGL381,3SD15I2WE5AO7614M34OSYMJOYM362,3YDGXNSEO3AZFZ1Q5YB7B163256485,8,7
79,3,object_05,object_06,507.59999999404,6,1,445.09999999404,0.2222222222222222,2,object_04,1,662,0,7,2,library_7,2,memory-2step-stake-s,569,1495138,0.0-19.0-0.0-0.79,A1G5EPLJEGL381,3SD15I2WE5AO7614M34OSYMJOYM362,3YDGXNSEO3AZFZ1Q5YB7B163256485,6,5
80,1,object_09,object_02,297.09999999404,2,2,540.39999997616,0.0,2,object_04,5,662,0,6,0,desert_6,2,memory-2step-stake-s,570,1502900,0.0-19.0-0.0-0.80,A1G5EPLJEGL381,3SD15I2WE5AO7614M34OSYMJOYM362,3YDGXNSEO3AZFZ1Q5YB7B163256485,1,2
81,2,object_08,object_10,336.19999998808,3,1,627.19999998808,0.6666666666666666,1,object_01,5,692,0,6,0,forest_5,2,memory-2step-stake-s,571,1511347,0.0-19.0-0.0-0.81,A1G5EPLJEGL381,3SD15I2WE5AO7614M34OSYMJOYM362,3YDGXNSEO3AZFZ1Q5YB7B163256485,3,4
82,3,object_05,object_06,703.60000002384,5,2,425.09999999404,0.6666666666666666,1,object_01,1,698,0,6,1,library_3,2,memory-2step-stake-s,572,1519597,0.0-19.0-0.0-0.82,A1G5EPLJEGL381,3SD15I2WE5AO7614M34OSYMJOYM362,3YDGXNSEO3AZFZ1Q5YB7B163256485,6,5
83,4,object_07,object_03,447.59999999404,7,1,346.09999999404,0.5555555555555556,1,object_01,1,703,0,5,2,restaurant_7,2,memory-2step-stake-s,573,1527669,0.0-19.0-0.0-0.83,A1G5EPLJEGL381,3SD15I2WE5AO7614M34OSYMJOYM362,3YDGXNSEO3AZFZ1Q5YB7B163256485,7,8
84,3,object_06,object_05,422.69999998808,6,2,465.60000002384,0.4444444444444444,2,object_04,5,723,0,4,4,library_7,2,memory-2step-stake-s,574,1535756,0.0-19.0-0.0-0.84,A1G5EPLJEGL381,3SD15I2WE5AO7614M34OSYMJOYM362,3YDGXNSEO3AZFZ1Q5YB7B163256485,5,6
85,4,object_07,object_03,343.0,7,1,472.80000001192,0.2222222222222222,1,object_01,1,725,0,2,7,restaurant_7,2,memory-2step-stake-s,575,1543647,0.0-19.0-0.0-0.85,A1G5EPLJEGL381,3SD15I2WE5AO7614M34OSYMJOYM362,3YDGXNSEO3AZFZ1Q5YB7B163256485,7,8
86,3,object_05,object_06,373.30000001192,5,2,520.20000001788,0.1111111111111111,1,object_01,1,726,0,1,5,library_5,2,memory-2step-stake-s,576,1551488,0.0-19.0-0.0-0.86,A1G5EPLJEGL381,3SD15I2WE5AO7614M34OSYMJOYM362,3YDGXNSEO3AZFZ1Q5YB7B163256485,6,5
87,2,object_10,object_08,602.5,3,2,437.30000001192,0.2222222222222222,1,object_01,5,736,0,2,5,forest_4,2,memory-2step-stake-s,577,1559344,0.0-19.0-0.0-0.87,A1G5EPLJEGL381,3SD15I2WE5AO7614M34OSYMJOYM362,3YDGXNSEO3AZFZ1Q5YB7B163256485,4,3
88,2,object_10,object_08,427.40000000596,3,2,471.19999998808,0.3333333333333333,1,object_01,5,751,0,3,4,forest_4,2,memory-2step-stake-s,578,1567338,0.0-19.0-0.0-0.88,A1G5EPLJEGL381,3SD15I2WE5AO7614M34OSYMJOYM362,3YDGXNSEO3AZFZ1Q5YB7B163256485,4,3
89,4,object_03,object_07,577.09999999404,8,1,636.70000001788,0.6666666666666666,2,object_04,1,757,0,4,6,restaurant_5,2,memory-2step-stake-s,579,1575798,0.0-19.0-0.0-0.89,A1G5EPLJEGL381,3SD15I2WE5AO7614M34OSYMJOYM362,3YDGXNSEO3AZFZ1Q5YB7B163256485,8,7
90,3,object_05,object_06,396.5,5,2,374.5,0.6666666666666666,1,object_01,1,763,0,6,8,library_7,2,memory-2step-stake-s,580,1584000,0.0-19.0-0.0-0.90,A1G5EPLJEGL381,3SD15I2WE5AO7614M34OSYMJOYM362,3YDGXNSEO3AZFZ1Q5YB7B163256485,6,5
91,4,object_07,object_03,497.5,7,1,548.0,0.8888888888888888,1,object_01,5,803,0,8,9,restaurant_6,2,memory-2step-stake-s,581,1592579,0.0-19.0-0.0-0.91,A1G5EPLJEGL381,3SD15I2WE5AO7614M34OSYMJOYM362,3YDGXNSEO3AZFZ1Q5YB7B163256485,7,8
92,3,object_05,object_06,477.70000001788,5,2,440.20000001788,0.8888888888888888,1,object_01,5,843,0,8,7,library_5,2,memory-2step-stake-s,582,1601046,0.0-19.0-0.0-0.92,A1G5EPLJEGL381,3SD15I2WE5AO7614M34OSYMJOYM362,3YDGXNSEO3AZFZ1Q5YB7B163256485,6,5
93,3,object_06,object_05,475.40000000596,5,1,429.20000001788,0.8888888888888888,1,object_01,5,883,0,8,5,library_1,2,memory-2step-stake-s,583,1609514,0.0-19.0-0.0-0.93,A1G5EPLJEGL381,3SD15I2WE5AO7614M34OSYMJOYM362,3YDGXNSEO3AZFZ1Q5YB7B163256485,5,6
94,3,object_06,object_05,664.40000000596,6,2,521.70000001788,0.5555555555555556,2,object_04,1,888,0,7,5,library_1,2,memory-2step-stake-s,584,1617761,0.0-19.0-0.0-0.94,A1G5EPLJEGL381,3SD15I2WE5AO7614M34OSYMJOYM362,3YDGXNSEO3AZFZ1Q5YB7B163256485,5,6
95,3,object_06,object_05,415.90000000596,6,2,442.5,0.4444444444444444,2,object_04,1,892,0,6,4,library_1,2,memory-2step-stake-s,585,1625822,0.0-19.0-0.0-0.95,A1G5EPLJEGL381,3SD15I2WE5AO7614M34OSYMJOYM362,3YDGXNSEO3AZFZ1Q5YB7B163256485,5,6
96,1,object_02,object_09,323.80000001192,2,1,447.5,0.5555555555555556,2,object_04,5,917,0,5,5,desert_2,2,memory-2step-stake-s,586,1633999,0.0-19.0-0.0-0.96,A1G5EPLJEGL381,3SD15I2WE5AO7614M34OSYMJOYM362,3YDGXNSEO3AZFZ1Q5YB7B163256485,2,1
97,1,object_02,object_09,496.89999997616,1,2,426.79999998212,0.3333333333333333,1,object_01,5,932,0,3,6,desert_6,2,memory-2step-stake-s,587,1641956,0.0-19.0-0.0-0.97,A1G5EPLJEGL381,3SD15I2WE5AO7614M34OSYMJOYM362,3YDGXNSEO3AZFZ1Q5YB7B163256485,2,1
98,2,object_10,object_08,271.59999999404,4,1,289.30000001192,0.8888888888888888,2,object_04,1,940,0,4,8,forest_8,2,memory-2step-stake-s,588,1650281,0.0-19.0-0.0-0.98,A1G5EPLJEGL381,3SD15I2WE5AO7614M34OSYMJOYM362,3YDGXNSEO3AZFZ1Q5YB7B163256485,4,3
99,3,object_05,object_06,282.59999999404,5,2,541.19999998808,0.3333333333333333,1,object_01,1,943,0,3,6,library_3,2,memory-2step-stake-s,589,1658345,0.0-19.0-0.0-0.99,A1G5EPLJEGL381,3SD15I2WE5AO7614M34OSYMJOYM362,3YDGXNSEO3AZFZ1Q5YB7B163256485,6,5
100,3,object_06,object_05,322.5,5,1,517.09999999404,0.8888888888888888,1,object_01,5,983,0,8,3,library_7,2,memory-2step-stake-s,590,1666896,0.0-19.0-0.0-0.100,A1G5EPLJEGL381,3SD15I2WE5AO7614M34OSYMJOYM362,3YDGXNSEO3AZFZ1Q5YB7B163256485,5,6
101,4,object_03,object_07,346.19999998808,7,2,340.20000001788,0.4444444444444444,1,object_01,1,987,0,4,3,restaurant_6,2,memory-2step-stake-s,591,1674857,0.0-19.0-0.0-0.101,A1G5EPLJEGL381,3SD15I2WE5AO7614M34OSYMJOYM362,3YDGXNSEO3AZFZ1Q5YB7B163256485,8,7
102,1,object_09,object_02,633.40000000596,1,1,517.60000002384,0.3333333333333333,1,object_01,5,1002,0,3,3,desert_7,2,memory-2step-stake-s,592,1682897,0.0-19.0-0.0-0.102,A1G5EPLJEGL381,3SD15I2WE5AO7614M34OSYMJOYM362,3YDGXNSEO3AZFZ1Q5YB7B163256485,1,2
103,4,object_03,object_07,577.40000000596,7,2,571.40000000596,0.4444444444444444,1,object_01,1,1006,0,4,5,restaurant_6,2,memory-2step-stake-s,593,1691089,0.0-19.0-0.0-0.103,A1G5EPLJEGL381,3SD15I2WE5AO7614M34OSYMJOYM362,3YDGXNSEO3AZFZ1Q5YB7B163256485,8,7
104,3,object_06,object_05,377.79999998212,5,1,492.40000000596,0.4444444444444444,1,object_01,1,1010,0,4,7,library_1,2,memory-2step-stake-s,594,1699199,0.0-19.0-0.0-0.104,A1G5EPLJEGL381,3SD15I2WE5AO7614M34OSYMJOYM362,3YDGXNSEO3AZFZ1Q5YB7B163256485,5,6
105,4,object_03,object_07,347.40000000596,7,2,278.70000001788,0.8888888888888888,1,object_01,1,1018,0,8,5,restaurant_3,2,memory-2step-stake-s,595,1707502,0.0-19.0-0.0-0.105,A1G5EPLJEGL381,3SD15I2WE5AO7614M34OSYMJOYM362,3YDGXNSEO3AZFZ1Q5YB7B163256485,8,7
106,2,object_08,object_10,482.59999999404,4,2,557.29999998212,0.6666666666666666,2,object_04,5,1048,0,7,6,forest_5,2,memory-2step-stake-s,596,1715887,0.0-19.0-0.0-0.106,A1G5EPLJEGL381,3SD15I2WE5AO7614M34OSYMJOYM362,3YDGXNSEO3AZFZ1Q5YB7B163256485,3,4
107,1,object_09,object_02,619.0,1,1,541.19999998808,0.6666666666666666,1,object_01,5,1078,0,6,8,desert_2,2,memory-2step-stake-s,597,1724267,0.0-19.0-0.0-0.107,A1G5EPLJEGL381,3SD15I2WE5AO7614M34OSYMJOYM362,3YDGXNSEO3AZFZ1Q5YB7B163256485,1,2
108,1,object_02,object_09,463.19999998808,1,2,521.0,0.2222222222222222,1,object_01,5,1088,0,2,8,desert_5,2,memory-2step-stake-s,598,1732216,0.0-19.0-0.0-0.108,A1G5EPLJEGL381,3SD15I2WE5AO7614M34OSYMJOYM362,3YDGXNSEO3AZFZ1Q5YB7B163256485,2,1
109,2,object_10,object_08,536.70000001788,3,2,436.09999999404,0.2222222222222222,1,object_01,1,1090,0,2,8,forest_8,2,memory-2step-stake-s,599,1740069,0.0-19.0-0.0-0.109,A1G5EPLJEGL381,3SD15I2WE5AO7614M34OSYMJOYM362,3YDGXNSEO3AZFZ1Q5YB7B163256485,4,3
110,4,object_03,object_07,644.69999998808,7,2,278.20000001788,0.0,1,object_01,1,1090,0,0,8,restaurant_5,2,memory-2step-stake-s,600,1747561,0.0-19.0-0.0-0.110,A1G5EPLJEGL381,3SD15I2WE5AO7614M34OSYMJOYM362,3YDGXNSEO3AZFZ1Q5YB7B163256485,8,7
111,1,object_09,object_02,368.09999999404,1,1,567.90000000596,0.0,1,object_01,5,1090,0,0,5,desert_6,2,memory-2step-stake-s,601,1755349,0.0-19.0-0.0-0.111,A1G5EPLJEGL381,3SD15I2WE5AO7614M34OSYMJOYM362,3YDGXNSEO3AZFZ1Q5YB7B163256485,1,2
112,4,object_07,object_03,388.30000001192,8,2,638.69999998808,0.8888888888888888,2,object_04,5,1130,0,2,8,restaurant_5,2,memory-2step-stake-s,602,1764016,0.0-19.0-0.0-0.112,A1G5EPLJEGL381,3SD15I2WE5AO7614M34OSYMJOYM362,3YDGXNSEO3AZFZ1Q5YB7B163256485,7,8
113,3,object_05,object_06,537.40000000596,5,2,540.29999998212,0.5555555555555556,1,object_01,1,1135,0,5,8,library_3,2,memory-2step-stake-s,603,1772277,0.0-19.0-0.0-0.113,A1G5EPLJEGL381,3SD15I2WE5AO7614M34OSYMJOYM362,3YDGXNSEO3AZFZ1Q5YB7B163256485,6,5
114,4,object_07,object_03,290.40000000596,7,1,517.90000000596,0.4444444444444444,1,object_01,1,1139,0,4,6,restaurant_5,2,memory-2step-stake-s,604,1780422,0.0-19.0-0.0-0.114,A1G5EPLJEGL381,3SD15I2WE5AO7614M34OSYMJOYM362,3YDGXNSEO3AZFZ1Q5YB7B163256485,7,8
115,3,object_05,object_06,505.90000000596,5,2,532.0,0.4444444444444444,1,object_01,1,1143,0,4,9,library_3,2,memory-2step-stake-s,605,1788593,0.0-19.0-0.0-0.115,A1G5EPLJEGL381,3SD15I2WE5AO7614M34OSYMJOYM362,3YDGXNSEO3AZFZ1Q5YB7B163256485,6,5
116,1,object_02,object_09,615.39999997616,2,1,490.10000002384,0.5555555555555556,2,object_04,5,1168,0,5,5,desert_5,2,memory-2step-stake-s,606,1798221,0.0-19.0-0.0-0.116,A1G5EPLJEGL381,3SD15I2WE5AO7614M34OSYMJOYM362,3YDGXNSEO3AZFZ1Q5YB7B163256485,2,1
117,3,object_06,object_05,556.09999999404,6,2,365.70000001788,0.8888888888888888,2,object_04,1,1176,0,5,8,library_5,2,memory-2step-stake-s,607,1806623,0.0-19.0-0.0-0.117,A1G5EPLJEGL381,3SD15I2WE5AO7614M34OSYMJOYM362,3YDGXNSEO3AZFZ1Q5YB7B163256485,5,6
118,1,object_02,object_09,366.80000001192,2,1,433.90000000596,1.0,2,object_04,5,1221,0,2,9,desert_7,2,memory-2step-stake-s,608,1815188,0.0-19.0-0.0-0.118,A1G5EPLJEGL381,3SD15I2WE5AO7614M34OSYMJOYM362,3YDGXNSEO3AZFZ1Q5YB7B163256485,2,1
119,3,object_05,object_06,349.5,5,2,471.5,0.4444444444444444,1,object_01,5,1241,0,4,9,library_3,2,memory-2step-stake-s,609,1823281,0.0-19.0-0.0-0.119,A1G5EPLJEGL381,3SD15I2WE5AO7614M34OSYMJOYM362,3YDGXNSEO3AZFZ1Q5YB7B163256485,6,5
120,2,object_08,object_10,737.5,4,2,428.69999998808,0.8888888888888888,2,object_04,5,1281,0,1,8,forest_8,2,memory-2step-stake-s,610,1831736,0.0-19.0-0.0-0.120,A1G5EPLJEGL381,3SD15I2WE5AO7614M34OSYMJOYM362,3YDGXNSEO3AZFZ1Q5YB7B163256485,3,4
121,3,object_05,object_06,792.5,5,2,403.5,0.1111111111111111,1,object_01,5,1286,0,1,7,library_3,2,memory-2step-stake-s,611,1839461,0.0-19.0-0.0-0.121,A1G5EPLJEGL381,3SD15I2WE5AO7614M34OSYMJOYM362,3YDGXNSEO3AZFZ1Q5YB7B163256485,6,5
122,2,object_08,object_10,707.69999998808,4,2,462.70000001788,0.7777777777777778,2,object_04,5,1321,0,0,7,forest_4,2,memory-2step-stake-s,612,1847849,0.0-19.0-0.0-0.122,A1G5EPLJEGL381,3SD15I2WE5AO7614M34OSYMJOYM362,3YDGXNSEO3AZFZ1Q5YB7B163256485,3,4
123,1,object_02,object_09,501.90000000596,1,2,527.69999998808,0.1111111111111111,1,object_01,5,1326,0,1,7,desert_5,2,memory-2step-stake-s,613,1855699,0.0-19.0-0.0-0.123,A1G5EPLJEGL381,3SD15I2WE5AO7614M34OSYMJOYM362,3YDGXNSEO3AZFZ1Q5YB7B163256485,2,1
124,4,object_07,object_03,429.5,7,1,352.0,0.5555555555555556,1,object_01,1,1331,0,5,8,restaurant_6,2,memory-2step-stake-s,614,1863773,0.0-19.0-0.0-0.124,A1G5EPLJEGL381,3SD15I2WE5AO7614M34OSYMJOYM362,3YDGXNSEO3AZFZ1Q5YB7B163256485,7,8
125,1,object_02,object_09,570.40000000596,1,2,477.30000001192,0.4444444444444444,1,object_01,5,1351,0,4,8,desert_2,2,memory-2step-stake-s,615,1871871,0.0-19.0-0.0-0.125,A1G5EPLJEGL381,3SD15I2WE5AO7614M34OSYMJOYM362,3YDGXNSEO3AZFZ1Q5YB7B163256485,2,1
126,4,object_07,object_03,121.59999999404,7,1,347.30000001192,0.6666666666666666,1,object_01,1,1357,0,6,8,restaurant_5,2,memory-2step-stake-s,616,1880038,0.0-19.0-0.0-0.126,A1G5EPLJEGL381,3SD15I2WE5AO7614M34OSYMJOYM362,3YDGXNSEO3AZFZ1Q5YB7B163256485,7,8
127,3,object_06,object_05,307.0,6,2,357.30000001192,0.5555555555555556,2,object_04,1,1362,0,5,5,library_5,2,memory-2step-stake-s,617,1888115,0.0-19.0-0.0-0.127,A1G5EPLJEGL381,3SD15I2WE5AO7614M34OSYMJOYM362,3YDGXNSEO3AZFZ1Q5YB7B163256485,5,6
128,2,object_08,object_10,690.09999999404,4,2,302.29999998212,0.6666666666666666,2,object_04,5,1392,0,4,6,forest_2,2,memory-2step-stake-s,619,1924509,0.0-19.0-0.1-0.128,A1G5EPLJEGL381,3SD15I2WE5AO7614M34OSYMJOYM362,3YDGXNSEO3AZFZ1Q5YB7B163256485,3,4
129,4,object_07,object_03,456.20000001788,7,1,626.30000001192,0.7777777777777778,1,object_01,1,1399,0,7,4,restaurant_5,2,memory-2step-stake-s,620,1933062,0.0-19.0-0.1-0.129,A1G5EPLJEGL381,3SD15I2WE5AO7614M34OSYMJOYM362,3YDGXNSEO3AZFZ1Q5YB7B163256485,7,8
130,1,object_02,object_09,421.5,1,2,454.70000001788,0.8888888888888888,1,object_01,5,1439,0,8,3,desert_6,2,memory-2step-stake-s,621,1941548,0.0-19.0-0.1-0.130,A1G5EPLJEGL381,3SD15I2WE5AO7614M34OSYMJOYM362,3YDGXNSEO3AZFZ1Q5YB7B163256485,2,1
131,1,object_02,object_09,401.90000000596,1,2,495.09999999404,0.8888888888888888,1,object_01,5,1479,0,8,5,desert_5,2,memory-2step-stake-s,622,1950074,0.0-19.0-0.1-0.131,A1G5EPLJEGL381,3SD15I2WE5AO7614M34OSYMJOYM362,3YDGXNSEO3AZFZ1Q5YB7B163256485,2,1
132,2,object_10,object_08,276.90000000596,4,1,445.70000001788,0.3333333333333333,2,object_04,1,1482,0,7,3,forest_8,2,memory-2step-stake-s,623,1958041,0.0-19.0-0.1-0.132,A1G5EPLJEGL381,3SD15I2WE5AO7614M34OSYMJOYM362,3YDGXNSEO3AZFZ1Q5YB7B163256485,4,3
133,3,object_06,object_05,488.5,6,2,456.0,0.2222222222222222,2,object_04,1,1484,0,6,2,library_5,2,memory-2step-stake-s,624,1965922,0.0-19.0-0.1-0.133,A1G5EPLJEGL381,3SD15I2WE5AO7614M34OSYMJOYM362,3YDGXNSEO3AZFZ1Q5YB7B163256485,5,6
134,4,object_03,object_07,418.69999998808,8,1,275.20000001788,0.3333333333333333,2,object_04,5,1499,0,5,3,restaurant_6,2,memory-2step-stake-s,625,1973719,0.0-19.0-0.1-0.134,A1G5EPLJEGL381,3SD15I2WE5AO7614M34OSYMJOYM362,3YDGXNSEO3AZFZ1Q5YB7B163256485,8,7
135,3,object_06,object_05,887.40000000596,5,1,624.29999998212,0.6666666666666666,1,object_01,1,1505,0,6,3,library_5,2,memory-2step-stake-s,626,1982166,0.0-19.0-0.1-0.135,A1G5EPLJEGL381,3SD15I2WE5AO7614M34OSYMJOYM362,3YDGXNSEO3AZFZ1Q5YB7B163256485,5,6
136,1,object_09,object_02,423.40000000596,2,2,561.0,0.1111111111111111,2,object_04,5,1510,0,2,1,desert_2,2,memory-2step-stake-s,627,1990045,0.0-19.0-0.1-0.136,A1G5EPLJEGL381,3SD15I2WE5AO7614M34OSYMJOYM362,3YDGXNSEO3AZFZ1Q5YB7B163256485,1,2
137,4,object_03,object_07,433.5,8,1,561.0,0.3333333333333333,2,object_04,5,1525,0,2,3,restaurant_3,2,memory-2step-stake-s,628,1998128,0.0-19.0-0.1-0.137,A1G5EPLJEGL381,3SD15I2WE5AO7614M34OSYMJOYM362,3YDGXNSEO3AZFZ1Q5YB7B163256485,8,7
138,4,object_07,object_03,325.80000001192,8,2,503.59999999404,0.4444444444444444,2,object_04,1,1529,0,3,4,restaurant_6,2,memory-2step-stake-s,629,2006252,0.0-19.0-0.1-0.138,A1G5EPLJEGL381,3SD15I2WE5AO7614M34OSYMJOYM362,3YDGXNSEO3AZFZ1Q5YB7B163256485,7,8
139,4,object_03,object_07,249.0,8,1,679.29999998212,0.5555555555555556,2,object_04,5,1554,0,0,5,restaurant_6,2,memory-2step-stake-s,630,2014692,0.0-19.0-0.1-0.139,A1G5EPLJEGL381,3SD15I2WE5AO7614M34OSYMJOYM362,3YDGXNSEO3AZFZ1Q5YB7B163256485,8,7
140,3,object_05,object_06,440.90000000596,5,2,349.89999997616,0.1111111111111111,1,object_01,1,1555,0,1,4,library_7,2,memory-2step-stake-s,631,2022365,0.0-19.0-0.1-0.140,A1G5EPLJEGL381,3SD15I2WE5AO7614M34OSYMJOYM362,3YDGXNSEO3AZFZ1Q5YB7B163256485,6,5
141,4,object_07,object_03,432.19999998808,7,1,322.09999999404,0.2222222222222222,1,object_01,1,1557,0,2,4,restaurant_3,2,memory-2step-stake-s,632,2030106,0.0-19.0-0.1-0.141,A1G5EPLJEGL381,3SD15I2WE5AO7614M34OSYMJOYM362,3YDGXNSEO3AZFZ1Q5YB7B163256485,7,8
142,1,object_02,object_09,403.80000001192,1,2,508.5,0.2222222222222222,1,object_01,5,1567,0,2,2,desert_6,2,memory-2step-stake-s,633,2038040,0.0-19.0-0.1-0.142,A1G5EPLJEGL381,3SD15I2WE5AO7614M34OSYMJOYM362,3YDGXNSEO3AZFZ1Q5YB7B163256485,2,1
143,2,object_08,object_10,493.60000002384,3,1,440.80000001192,0.4444444444444444,1,object_01,5,1587,0,4,1,forest_4,2,memory-2step-stake-s,634,2046108,0.0-19.0-0.1-0.143,A1G5EPLJEGL381,3SD15I2WE5AO7614M34OSYMJOYM362,3YDGXNSEO3AZFZ1Q5YB7B163256485,3,4
144,2,object_10,object_08,248.09999999404,4,1,434.10000002384,0.0,2,object_04,5,1587,0,4,0,forest_4,2,memory-2step-stake-s,635,2053760,0.0-19.0-0.1-0.144,A1G5EPLJEGL381,3SD15I2WE5AO7614M34OSYMJOYM362,3YDGXNSEO3AZFZ1Q5YB7B163256485,4,3
145,3,object_05,object_06,556.5,5,2,461.39999997616,0.7777777777777778,1,object_01,1,1594,0,7,0,library_5,2,memory-2step-stake-s,636,2062147,0.0-19.0-0.1-0.145,A1G5EPLJEGL381,3SD15I2WE5AO7614M34OSYMJOYM362,3YDGXNSEO3AZFZ1Q5YB7B163256485,6,5
146,1,object_09,object_02,289.80000001192,1,1,450.0,0.6666666666666666,1,object_01,1,1600,0,6,1,desert_5,2,memory-2step-stake-s,637,2070430,0.0-19.0-0.1-0.146,A1G5EPLJEGL381,3SD15I2WE5AO7614M34OSYMJOYM362,3YDGXNSEO3AZFZ1Q5YB7B163256485,1,2
147,4,object_07,object_03,253.69999998808,8,2,615.19999998808,0.0,2,object_04,1,1600,0,9,0,restaurant_7,2,memory-2step-stake-s,638,2078263,0.0-19.0-0.1-0.147,A1G5EPLJEGL381,3SD15I2WE5AO7614M34OSYMJOYM362,3YDGXNSEO3AZFZ1Q5YB7B163256485,7,8
148,2,object_08,object_10,557.59999999404,3,1,431.0,1.0,1,object_01,5,1645,0,9,0,forest_4,2,memory-2step-stake-s,639,2086830,0.0-19.0-0.1-0.148,A1G5EPLJEGL381,3SD15I2WE5AO7614M34OSYMJOYM362,3YDGXNSEO3AZFZ1Q5YB7B163256485,3,4
149,4,object_07,object_03,525.90000000596,8,2,373.79999998212,0.1111111111111111,2,object_04,5,1650,0,7,1,restaurant_7,2,memory-2step-stake-s,640,2094525,0.0-19.0-0.1-0.149,A1G5EPLJEGL381,3SD15I2WE5AO7614M34OSYMJOYM362,3YDGXNSEO3AZFZ1Q5YB7B163256485,7,8
150,2,object_10,object_08,552.29999998212,4,1,418.0,0.3333333333333333,2,object_04,1,1653,0,7,3,forest_8,2,memory-2step-stake-s,641,2102471,0.0-19.0-0.1-0.150,A1G5EPLJEGL381,3SD15I2WE5AO7614M34OSYMJOYM362,3YDGXNSEO3AZFZ1Q5YB7B163256485,4,3
151,4,object_03,object_07,477.0,7,2,589.0,0.5555555555555556,1,object_01,1,1658,0,5,3,restaurant_7,2,memory-2step-stake-s,642,2110783,0.0-19.0-0.1-0.151,A1G5EPLJEGL381,3SD15I2WE5AO7614M34OSYMJOYM362,3YDGXNSEO3AZFZ1Q5YB7B163256485,8,7
152,2,object_08,object_10,870.40000000596,3,1,547.29999998212,0.5555555555555556,1,object_01,5,1683,0,5,1,forest_2,2,memory-2step-stake-s,643,2119059,0.0-19.0-0.1-0.152,A1G5EPLJEGL381,3SD15I2WE5AO7614M34OSYMJOYM362,3YDGXNSEO3AZFZ1Q5YB7B163256485,3,4
153,3,object_06,object_05,353.30000001192,6,2,619.30000001192,0.1111111111111111,2,object_04,1,1684,0,5,1,library_7,2,memory-2step-stake-s,644,2126993,0.0-19.0-0.1-0.153,A1G5EPLJEGL381,3SD15I2WE5AO7614M34OSYMJOYM362,3YDGXNSEO3AZFZ1Q5YB7B163256485,5,6
154,1,object_02,object_09,403.59999999404,2,1,396.79999998212,0.0,2,object_04,1,1684,0,7,0,desert_7,2,memory-2step-stake-s,645,2134605,0.0-19.0-0.1-0.154,A1G5EPLJEGL381,3SD15I2WE5AO7614M34OSYMJOYM362,3YDGXNSEO3AZFZ1Q5YB7B163256485,2,1
155,2,object_10,object_08,319.59999999404,3,2,393.40000000596,0.8888888888888888,1,object_01,5,1724,0,8,0,forest_4,2,memory-2step-stake-s,646,2143043,0.0-19.0-0.1-0.155,A1G5EPLJEGL381,3SD15I2WE5AO7614M34OSYMJOYM362,3YDGXNSEO3AZFZ1Q5YB7B163256485,4,3
156,2,object_08,object_10,457.09999999404,3,1,362.30000001192,0.8888888888888888,1,object_01,5,1764,0,8,2,forest_8,2,memory-2step-stake-s,647,2151431,0.0-19.0-0.1-0.156,A1G5EPLJEGL381,3SD15I2WE5AO7614M34OSYMJOYM362,3YDGXNSEO3AZFZ1Q5YB7B163256485,3,4
157,4,object_07,object_03,444.69999998808,8,2,549.20000001788,0.1111111111111111,2,object_04,1,1765,0,5,1,restaurant_7,2,memory-2step-stake-s,648,2159298,0.0-19.0-0.1-0.157,A1G5EPLJEGL381,3SD15I2WE5AO7614M34OSYMJOYM362,3YDGXNSEO3AZFZ1Q5YB7B163256485,7,8
158,3,object_06,object_05,359.80000001192,6,2,711.90000000596,0.3333333333333333,2,object_04,1,1768,0,4,3,library_3,2,memory-2step-stake-s,649,2167533,0.0-19.0-0.1-0.158,A1G5EPLJEGL381,3SD15I2WE5AO7614M34OSYMJOYM362,3YDGXNSEO3AZFZ1Q5YB7B163256485,5,6
159,2,object_10,object_08,421.20000001788,4,1,103.69999998808,0.3333333333333333,2,object_04,5,1783,0,6,3,forest_5,2,memory-2step-stake-s,650,2175157,0.0-19.0-0.1-0.159,A1G5EPLJEGL381,3SD15I2WE5AO7614M34OSYMJOYM362,3YDGXNSEO3AZFZ1Q5YB7B163256485,4,3
160,1,object_09,object_02,383.0,2,2,368.30000001192,0.1111111111111111,2,object_04,5,1788,0,7,1,desert_2,2,memory-2step-stake-s,651,2182849,0.0-19.0-0.1-0.160,A1G5EPLJEGL381,3SD15I2WE5AO7614M34OSYMJOYM362,3YDGXNSEO3AZFZ1Q5YB7B163256485,1,2
161,1,object_02,object_09,369.79999998212,2,1,398.0,0.0,2,object_04,5,1788,0,9,0,desert_7,2,memory-2step-stake-s,652,2190469,0.0-19.0-0.1-0.161,A1G5EPLJEGL381,3SD15I2WE5AO7614M34OSYMJOYM362,3YDGXNSEO3AZFZ1Q5YB7B163256485,2,1
162,2,object_10,object_08,253.39999997616,3,2,381.59999999404,0.6666666666666666,1,object_01,5,1818,0,6,4,forest_2,2,memory-2step-stake-s,653,2198681,0.0-19.0-0.1-0.162,A1G5EPLJEGL381,3SD15I2WE5AO7614M34OSYMJOYM362,3YDGXNSEO3AZFZ1Q5YB7B163256485,4,3
163,2,object_10,object_08,329.20000001788,3,2,506.30000001192,0.7777777777777778,1,object_01,5,1853,0,7,0,forest_5,2,memory-2step-stake-s,654,2207136,0.0-19.0-0.1-0.163,A1G5EPLJEGL381,3SD15I2WE5AO7614M34OSYMJOYM362,3YDGXNSEO3AZFZ1Q5YB7B163256485,4,3
164,1,object_02,object_09,507.5,1,2,511.39999997616,0.3333333333333333,1,object_01,5,1868,0,3,1,desert_7,2,memory-2step-stake-s,655,2215179,0.0-19.0-0.1-0.164,A1G5EPLJEGL381,3SD15I2WE5AO7614M34OSYMJOYM362,3YDGXNSEO3AZFZ1Q5YB7B163256485,2,1
165,1,object_02,object_09,535.90000000596,1,2,376.40000000596,0.4444444444444444,1,object_01,5,1888,0,4,0,desert_2,2,memory-2step-stake-s,656,2223178,0.0-19.0-0.1-0.165,A1G5EPLJEGL381,3SD15I2WE5AO7614M34OSYMJOYM362,3YDGXNSEO3AZFZ1Q5YB7B163256485,2,1
166,2,object_10,object_08,312.40000000596,4,1,376.80000001192,0.3333333333333333,2,object_04,5,1903,0,5,3,forest_5,2,memory-2step-stake-s,657,2231076,0.0-19.0-0.1-0.166,A1G5EPLJEGL381,3SD15I2WE5AO7614M34OSYMJOYM362,3YDGXNSEO3AZFZ1Q5YB7B163256485,4,3
167,3,object_06,object_05,229.10000002384,6,2,421.5,0.4444444444444444,2,object_04,1,1907,0,5,4,library_1,2,memory-2step-stake-s,658,2239123,0.0-19.0-0.1-0.167,A1G5EPLJEGL381,3SD15I2WE5AO7614M34OSYMJOYM362,3YDGXNSEO3AZFZ1Q5YB7B163256485,5,6
168,1,object_09,object_02,382.5,1,1,571.29999998212,0.6666666666666666,1,object_01,5,1937,0,6,3,desert_6,2,memory-2step-stake-s,659,2247526,0.0-19.0-0.1-0.168,A1G5EPLJEGL381,3SD15I2WE5AO7614M34OSYMJOYM362,3YDGXNSEO3AZFZ1Q5YB7B163256485,1,2
169,1,object_02,object_09,132.59999999404,1,2,390.40000000596,0.6666666666666666,1,object_01,1,1943,0,6,2,desert_6,2,memory-2step-stake-s,660,2255741,0.0-19.0-0.1-0.169,A1G5EPLJEGL381,3SD15I2WE5AO7614M34OSYMJOYM362,3YDGXNSEO3AZFZ1Q5YB7B163256485,2,1
170,4,object_03,object_07,397.39999997616,8,1,321.79999998212,0.3333333333333333,2,object_04,1,1946,0,4,3,restaurant_5,2,memory-2step-stake-s,661,2263601,0.0-19.0-0.1-0.170,A1G5EPLJEGL381,3SD15I2WE5AO7614M34OSYMJOYM362,3YDGXNSEO3AZFZ1Q5YB7B163256485,8,7
171,4,object_03,object_07,128.90000000596,7,2,375.20000001788,0.7777777777777778,1,object_01,1,1953,0,7,3,restaurant_7,2,memory-2step-stake-s,662,2271914,0.0-19.0-0.1-0.171,A1G5EPLJEGL381,3SD15I2WE5AO7614M34OSYMJOYM362,3YDGXNSEO3AZFZ1Q5YB7B163256485,8,7
172,1,object_09,object_02,304.90000000596,2,2,338.60000002384,0.4444444444444444,2,object_04,5,1973,0,8,4,desert_5,2,memory-2step-stake-s,663,2279879,0.0-19.0-0.1-0.172,A1G5EPLJEGL381,3SD15I2WE5AO7614M34OSYMJOYM362,3YDGXNSEO3AZFZ1Q5YB7B163256485,1,2
173,1,object_02,object_09,356.70000001788,2,1,510.5,0.1111111111111111,2,object_04,5,1978,0,7,1,desert_2,2,memory-2step-stake-s,664,2287707,0.0-19.0-0.1-0.173,A1G5EPLJEGL381,3SD15I2WE5AO7614M34OSYMJOYM362,3YDGXNSEO3AZFZ1Q5YB7B163256485,2,1
174,4,object_03,object_07,236.80000001192,7,2,449.40000000596,0.4444444444444444,1,object_01,5,1998,0,4,0,restaurant_5,2,memory-2step-stake-s,665,2295801,0.0-19.0-0.1-0.174,A1G5EPLJEGL381,3SD15I2WE5AO7614M34OSYMJOYM362,3YDGXNSEO3AZFZ1Q5YB7B163256485,8,7
175,1,object_09,object_02,482.5,2,2,493.09999999404,0.1111111111111111,2,object_04,5,2003,0,6,1,desert_5,2,memory-2step-stake-s,666,2303611,0.0-19.0-0.1-0.175,A1G5EPLJEGL381,3SD15I2WE5AO7614M34OSYMJOYM362,3YDGXNSEO3AZFZ1Q5YB7B163256485,1,2
176,3,object_05,object_06,558.90000000596,6,1,1044.6999999881,0.1111111111111111,2,object_04,1,2004,0,6,1,library_1,2,memory-2step-stake-s,667,2311977,0.0-19.0-0.1-0.176,A1G5EPLJEGL381,3SD15I2WE5AO7614M34OSYMJOYM362,3YDGXNSEO3AZFZ1Q5YB7B163256485,6,5
177,4,object_07,object_03,625.89999997616,7,1,368.40000000596,0.6666666666666666,1,object_01,5,2034,0,6,0,restaurant_6,2,memory-2step-stake-s,668,2320171,0.0-19.0-0.1-0.177,A1G5EPLJEGL381,3SD15I2WE5AO7614M34OSYMJOYM362,3YDGXNSEO3AZFZ1Q5YB7B163256485,7,8
178,2,object_08,object_10,351.30000001192,3,1,454.0,0.6666666666666666,1,object_01,5,2064,0,6,1,forest_2,2,memory-2step-stake-s,669,2328451,0.0-19.0-0.1-0.178,A1G5EPLJEGL381,3SD15I2WE5AO7614M34OSYMJOYM362,3YDGXNSEO3AZFZ1Q5YB7B163256485,3,4
179,1,object_02,object_09,293.19999998808,1,2,644.0,0.2222222222222222,1,object_01,5,2074,0,2,4,desert_7,2,memory-2step-stake-s,670,2336519,0.0-19.0-0.1-0.179,A1G5EPLJEGL381,3SD15I2WE5AO7614M34OSYMJOYM362,3YDGXNSEO3AZFZ1Q5YB7B163256485,2,1
180,1,object_02,object_09,634.0,1,2,419.09999999404,0.0,1,object_01,5,2074,0,0,4,desert_7,2,memory-2step-stake-s,671,2344154,0.0-19.0-0.1-0.180,A1G5EPLJEGL381,3SD15I2WE5AO7614M34OSYMJOYM362,3YDGXNSEO3AZFZ1Q5YB7B163256485,2,1
181,3,object_06,object_05,413.69999998808,5,1,525.20000001788,0.1111111111111111,1,object_01,1,2075,0,1,2,library_1,2,memory-2step-stake-s,672,2352001,0.0-19.0-0.1-0.181,A1G5EPLJEGL381,3SD15I2WE5AO7614M34OSYMJOYM362,3YDGXNSEO3AZFZ1Q5YB7B163256485,5,6
182,1,object_09,object_02,295.5,1,1,479.5,0.2222222222222222,1,object_01,5,2085,0,2,4,desert_7,2,memory-2step-stake-s,673,2359900,0.0-19.0-0.1-0.182,A1G5EPLJEGL381,3SD15I2WE5AO7614M34OSYMJOYM362,3YDGXNSEO3AZFZ1Q5YB7B163256485,1,2
183,1,object_02,object_09,307.80000001192,1,2,461.59999999404,0.2222222222222222,1,object_01,5,2095,0,2,4,desert_2,2,memory-2step-stake-s,674,2367788,0.0-19.0-0.1-0.183,A1G5EPLJEGL381,3SD15I2WE5AO7614M34OSYMJOYM362,3YDGXNSEO3AZFZ1Q5YB7B163256485,2,1
184,2,object_08,object_10,341.40000000596,3,1,416.10000002384,0.2222222222222222,1,object_01,5,2105,0,2,6,forest_2,2,memory-2step-stake-s,675,2375643,0.0-19.0-0.1-0.184,A1G5EPLJEGL381,3SD15I2WE5AO7614M34OSYMJOYM362,3YDGXNSEO3AZFZ1Q5YB7B163256485,3,4
185,3,object_05,object_06,628.69999998808,5,2,517.5,0.5555555555555556,1,object_01,1,2110,0,5,3,library_3,2,memory-2step-stake-s,676,2383888,0.0-19.0-0.1-0.185,A1G5EPLJEGL381,3SD15I2WE5AO7614M34OSYMJOYM362,3YDGXNSEO3AZFZ1Q5YB7B163256485,6,5
186,1,object_02,object_09,1056.7999999821,2,1,497.30000001192,0.3333333333333333,2,object_04,5,2125,0,5,3,desert_6,2,memory-2step-stake-s,677,2391906,0.0-19.0-0.1-0.186,A1G5EPLJEGL381,3SD15I2WE5AO7614M34OSYMJOYM362,3YDGXNSEO3AZFZ1Q5YB7B163256485,2,1
187,1,object_02,object_09,326.0,1,2,780.09999999404,0.2222222222222222,1,object_01,5,2135,0,2,4,desert_7,2,memory-2step-stake-s,678,2400111,0.0-19.0-0.1-0.187,A1G5EPLJEGL381,3SD15I2WE5AO7614M34OSYMJOYM362,3YDGXNSEO3AZFZ1Q5YB7B163256485,2,1
188,4,object_03,object_07,432.90000000596,8,1,429.09999999404,0.3333333333333333,2,object_04,1,2138,0,1,3,restaurant_3,2,memory-2step-stake-s,679,2408067,0.0-19.0-0.1-0.188,A1G5EPLJEGL381,3SD15I2WE5AO7614M34OSYMJOYM362,3YDGXNSEO3AZFZ1Q5YB7B163256485,8,7
189,2,object_08,object_10,228.5,4,2,356.90000000596,0.1111111111111111,2,object_04,5,2143,0,1,1,forest_5,2,memory-2step-stake-s,680,2415744,0.0-19.0-0.1-0.189,A1G5EPLJEGL381,3SD15I2WE5AO7614M34OSYMJOYM362,3YDGXNSEO3AZFZ1Q5YB7B163256485,3,4
190,1,object_02,object_09,288.5,2,1,426.0,0.1111111111111111,2,object_04,5,2148,0,3,1,desert_6,2,memory-2step-stake-s,681,2423488,0.0-19.0-0.1-0.190,A1G5EPLJEGL381,3SD15I2WE5AO7614M34OSYMJOYM362,3YDGXNSEO3AZFZ1Q5YB7B163256485,2,1
191,3,object_05,object_06,229.80000001192,5,2,415.40000000596,0.1111111111111111,1,object_01,1,2149,0,1,1,library_3,2,memory-2step-stake-s,682,2431224,0.0-19.0-0.1-0.191,A1G5EPLJEGL381,3SD15I2WE5AO7614M34OSYMJOYM362,3YDGXNSEO3AZFZ1Q5YB7B163256485,6,5
192,1,object_09,object_02,147.90000000596,1,1,427.90000000596,0.1111111111111111,1,object_01,5,2154,0,1,2,desert_2,2,memory-2step-stake-s,683,2438975,0.0-19.0-0.1-0.192,A1G5EPLJEGL381,3SD15I2WE5AO7614M34OSYMJOYM362,3YDGXNSEO3AZFZ1Q5YB7B163256485,1,2
193,4,object_07,object_03,400.39999997616,8,2,208.79999998212,0.2222222222222222,2,object_04,1,2156,0,1,2,restaurant_6,2,memory-2step-stake-s,684,2446603,0.0-19.0-0.1-0.193,A1G5EPLJEGL381,3SD15I2WE5AO7614M34OSYMJOYM362,3YDGXNSEO3AZFZ1Q5YB7B163256485,7,8
194,2,object_10,object_08,420.70000001788,3,2,501.5,0.2222222222222222,1,object_01,5,2166,0,2,2,forest_8,2,memory-2step-stake-s,685,2454524,0.0-19.0-0.1-0.194,A1G5EPLJEGL381,3SD15I2WE5AO7614M34OSYMJOYM362,3YDGXNSEO3AZFZ1Q5YB7B163256485,4,3
195,3,object_06,object_05,515.30000001192,6,2,377.5,0.3333333333333333,2,object_04,1,2169,0,1,3,library_7,2,memory-2step-stake-s,686,2462440,0.0-19.0-0.1-0.195,A1G5EPLJEGL381,3SD15I2WE5AO7614M34OSYMJOYM362,3YDGXNSEO3AZFZ1Q5YB7B163256485,5,6
196,3,object_05,object_06,192.0,6,1,516.0,0.1111111111111111,2,object_04,1,2170,0,2,1,library_3,2,memory-2step-stake-s,687,2470286,0.0-19.0-0.1-0.196,A1G5EPLJEGL381,3SD15I2WE5AO7614M34OSYMJOYM362,3YDGXNSEO3AZFZ1Q5YB7B163256485,6,5
197,2,object_10,object_08,377.69999998808,3,2,487.90000000596,0.2222222222222222,1,object_01,5,2180,0,2,0,forest_5,2,memory-2step-stake-s,688,2478195,0.0-19.0-0.1-0.197,A1G5EPLJEGL381,3SD15I2WE5AO7614M34OSYMJOYM362,3YDGXNSEO3AZFZ1Q5YB7B163256485,4,3
198,2,object_08,object_10,500.59999999404,3,1,310.19999998808,0.0,1,object_01,5,2180,0,0,3,forest_4,2,memory-2step-stake-s,689,2485720,0.0-19.0-0.1-0.198,A1G5EPLJEGL381,3SD15I2WE5AO7614M34OSYMJOYM362,3YDGXNSEO3AZFZ1Q5YB7B163256485,3,4
199,2,object_10,object_08,1112.599999994,4,1,450.0,0.2222222222222222,2,object_04,5,2190,0,0,2,forest_8,2,memory-2step-stake-s,690,2493593,0.0-19.0-0.1-0.199,A1G5EPLJEGL381,3SD15I2WE5AO7614M34OSYMJOYM362,3YDGXNSEO3AZFZ1Q5YB7B163256485,4,3
200,4,object_03,object_07,583.40000000596,7,2,297.40000000596,0.2222222222222222,1,object_01,1,2192,0,2,0,restaurant_7,2,memory-2step-stake-s,691,2501307,0.0-19.0-0.1-0.200,A1G5EPLJEGL381,3SD15I2WE5AO7614M34OSYMJOYM362,3YDGXNSEO3AZFZ1Q5YB7B163256485,8,7
201,2,object_10,object_08,244.0,3,2,400.09999999404,0.0,1,object_01,1,2192,0,0,3,forest_5,2,memory-2step-stake-s,692,2508930,0.0-19.0-0.1-0.201,A1G5EPLJEGL381,3SD15I2WE5AO7614M34OSYMJOYM362,3YDGXNSEO3AZFZ1Q5YB7B163256485,4,3
202,1,object_02,object_09,230.90000000596,2,1,447.30000001192,0.3333333333333333,2,object_04,1,2195,0,0,3,desert_6,2,memory-2step-stake-s,693,2516897,0.0-19.0-0.1-0.202,A1G5EPLJEGL381,3SD15I2WE5AO7614M34OSYMJOYM362,3YDGXNSEO3AZFZ1Q5YB7B163256485,2,1
203,4,object_07,object_03,279.79999998212,8,2,439.89999997616,0.2222222222222222,2,object_04,5,2205,0,4,2,restaurant_6,2,memory-2step-stake-s,694,2524762,0.0-19.0-0.1-0.203,A1G5EPLJEGL381,3SD15I2WE5AO7614M34OSYMJOYM362,3YDGXNSEO3AZFZ1Q5YB7B163256485,7,8
204,3,object_06,object_05,636.29999998212,5,1,1069.099999994,0.5555555555555556,1,object_01,1,2210,0,5,1,library_7,2,memory-2step-stake-s,695,2533556,0.0-19.0-0.1-0.204,A1G5EPLJEGL381,3SD15I2WE5AO7614M34OSYMJOYM362,3YDGXNSEO3AZFZ1Q5YB7B163256485,5,6
205,3,object_06,object_05,298.5,6,2,692.0,0.2222222222222222,2,object_04,5,2220,0,7,2,library_3,2,memory-2step-stake-s,696,2541674,0.0-19.0-0.1-0.205,A1G5EPLJEGL381,3SD15I2WE5AO7614M34OSYMJOYM362,3YDGXNSEO3AZFZ1Q5YB7B163256485,5,6
206,4,object_03,object_07,124.30000001192,8,1,341.59999999404,0.3333333333333333,2,object_04,1,2223,0,9,3,restaurant_5,2,memory-2step-stake-s,697,2549536,0.0-19.0-0.1-0.206,A1G5EPLJEGL381,3SD15I2WE5AO7614M34OSYMJOYM362,3YDGXNSEO3AZFZ1Q5YB7B163256485,8,7
207,4,object_03,object_07,477.90000000596,7,2,46.09999999404,1.0,1,object_01,1,2232,0,9,5,restaurant_3,2,memory-2step-stake-s,698,2557718,0.0-19.0-0.1-0.207,A1G5EPLJEGL381,3SD15I2WE5AO7614M34OSYMJOYM362,3YDGXNSEO3AZFZ1Q5YB7B163256485,8,7
208,2,object_08,object_10,32.300000011921,3,1,265.59999999404,1.0,1,object_01,1,2241,0,9,3,forest_8,2,memory-2step-stake-s,699,2566116,0.0-19.0-0.1-0.208,A1G5EPLJEGL381,3SD15I2WE5AO7614M34OSYMJOYM362,3YDGXNSEO3AZFZ1Q5YB7B163256485,3,4
209,2,object_10,object_08,330.69999998808,3,2,508.0,0.6666666666666666,1,object_01,5,2271,0,6,1,forest_2,2,memory-2step-stake-s,700,2574453,0.0-19.0-0.1-0.209,A1G5EPLJEGL381,3SD15I2WE5AO7614M34OSYMJOYM362,3YDGXNSEO3AZFZ1Q5YB7B163256485,4,3
210,4,object_03,object_07,112.70000001788,7,2,168.70000001788,1.0,1,object_01,1,2280,0,9,2,restaurant_3,2,memory-2step-stake-s,701,2582754,0.0-19.0-0.1-0.210,A1G5EPLJEGL381,3SD15I2WE5AO7614M34OSYMJOYM362,3YDGXNSEO3AZFZ1Q5YB7B163256485,8,7
211,2,object_08,object_10,243.89999997616,3,1,236.69999998808,0.8888888888888888,1,object_01,1,2288,0,8,3,forest_2,2,memory-2step-stake-s,702,2591023,0.0-19.0-0.1-0.211,A1G5EPLJEGL381,3SD15I2WE5AO7614M34OSYMJOYM362,3YDGXNSEO3AZFZ1Q5YB7B163256485,3,4
212,3,object_05,object_06,198.19999998808,5,2,524.0,1.0,1,object_01,5,2333,0,9,1,library_5,2,memory-2step-stake-s,703,2599680,0.0-19.0-0.1-0.212,A1G5EPLJEGL381,3SD15I2WE5AO7614M34OSYMJOYM362,3YDGXNSEO3AZFZ1Q5YB7B163256485,6,5
213,3,object_06,object_05,245.39999997616,5,1,146.89999997616,0.6666666666666666,1,object_01,1,2339,0,6,6,library_7,2,memory-2step-stake-s,704,2607658,0.0-19.0-0.1-0.213,A1G5EPLJEGL381,3SD15I2WE5AO7614M34OSYMJOYM362,3YDGXNSEO3AZFZ1Q5YB7B163256485,5,6
214,1,object_09,object_02,435.09999999404,1,1,568.09999999404,0.5555555555555556,1,object_01,5,2364,0,5,5,desert_7,2,memory-2step-stake-s,705,2615956,0.0-19.0-0.1-0.214,A1G5EPLJEGL381,3SD15I2WE5AO7614M34OSYMJOYM362,3YDGXNSEO3AZFZ1Q5YB7B163256485,1,2
215,1,object_09,object_02,368.5,2,2,434.0,0.3333333333333333,2,object_04,5,2379,0,3,3,desert_6,2,memory-2step-stake-s,706,2623925,0.0-19.0-0.1-0.215,A1G5EPLJEGL381,3SD15I2WE5AO7614M34OSYMJOYM362,3YDGXNSEO3AZFZ1Q5YB7B163256485,1,2
216,4,object_07,object_03,439.59999999404,8,2,336.90000000596,0.4444444444444444,2,object_04,1,2383,0,6,4,restaurant_3,2,memory-2step-stake-s,707,2631884,0.0-19.0-0.1-0.216,A1G5EPLJEGL381,3SD15I2WE5AO7614M34OSYMJOYM362,3YDGXNSEO3AZFZ1Q5YB7B163256485,7,8
217,3,object_06,object_05,169.90000000596,5,1,395.5,0.8888888888888888,1,object_01,5,2423,0,8,5,library_1,2,memory-2step-stake-s,708,2640311,0.0-19.0-0.1-0.217,A1G5EPLJEGL381,3SD15I2WE5AO7614M34OSYMJOYM362,3YDGXNSEO3AZFZ1Q5YB7B163256485,5,6
218,1,object_02,object_09,318.30000001192,2,1,328.29999998212,0.6666666666666666,2,object_04,5,2453,0,7,6,desert_6,2,memory-2step-stake-s,709,2648464,0.0-19.0-0.1-0.218,A1G5EPLJEGL381,3SD15I2WE5AO7614M34OSYMJOYM362,3YDGXNSEO3AZFZ1Q5YB7B163256485,2,1
219,2,object_08,object_10,812.69999998808,3,1,238.80000001192,0.6666666666666666,1,object_01,5,2483,0,6,8,forest_2,2,memory-2step-stake-s,710,2656527,0.0-19.0-0.1-0.219,A1G5EPLJEGL381,3SD15I2WE5AO7614M34OSYMJOYM362,3YDGXNSEO3AZFZ1Q5YB7B163256485,3,4
220,2,object_10,object_08,255.89999997616,3,2,342.29999998212,0.8888888888888888,1,object_01,5,2523,0,8,8,forest_5,2,memory-2step-stake-s,711,2664897,0.0-19.0-0.1-0.220,A1G5EPLJEGL381,3SD15I2WE5AO7614M34OSYMJOYM362,3YDGXNSEO3AZFZ1Q5YB7B163256485,4,3
221,4,object_03,object_07,100.5,7,2,115.80000001192,0.8888888888888888,1,object_01,1,2531,0,8,8,restaurant_7,2,memory-2step-stake-s,712,2673053,0.0-19.0-0.1-0.221,A1G5EPLJEGL381,3SD15I2WE5AO7614M34OSYMJOYM362,3YDGXNSEO3AZFZ1Q5YB7B163256485,8,7
222,3,object_05,object_06,358.79999998212,6,1,512.5,0.7777777777777778,2,object_04,1,2538,0,7,7,library_1,2,memory-2step-stake-s,713,2681490,0.0-19.0-0.1-0.222,A1G5EPLJEGL381,3SD15I2WE5AO7614M34OSYMJOYM362,3YDGXNSEO3AZFZ1Q5YB7B163256485,6,5
223,1,object_09,object_02,730.90000000596,2,2,312.59999999404,0.6666666666666666,2,object_04,1,2544,0,9,6,desert_5,2,memory-2step-stake-s,714,2689629,0.0-19.0-0.1-0.223,A1G5EPLJEGL381,3SD15I2WE5AO7614M34OSYMJOYM362,3YDGXNSEO3AZFZ1Q5YB7B163256485,1,2
224,2,object_08,object_10,952.5,3,1,412.5,0.7777777777777778,1,object_01,5,2579,0,7,6,forest_2,2,memory-2step-stake-s,715,2697979,0.0-19.0-0.1-0.224,A1G5EPLJEGL381,3SD15I2WE5AO7614M34OSYMJOYM362,3YDGXNSEO3AZFZ1Q5YB7B163256485,3,4
225,2,object_10,object_08,306.39999997616,4,1,1370.400000006,0.5555555555555556,2,object_04,5,2604,0,7,5,forest_8,2,memory-2step-stake-s,716,2707073,0.0-19.0-0.1-0.225,A1G5EPLJEGL381,3SD15I2WE5AO7614M34OSYMJOYM362,3YDGXNSEO3AZFZ1Q5YB7B163256485,4,3
226,1,object_02,object_09,266.59999999404,1,2,593.90000000596,0.6666666666666666,1,object_01,1,2610,0,6,3,desert_2,2,memory-2step-stake-s,717,2715510,0.0-19.0-0.1-0.226,A1G5EPLJEGL381,3SD15I2WE5AO7614M34OSYMJOYM362,3YDGXNSEO3AZFZ1Q5YB7B163256485,2,1
227,1,object_09,object_02,349.40000000596,1,1,343.09999999404,0.7777777777777778,1,object_01,5,2645,0,7,5,desert_5,2,memory-2step-stake-s,718,2723779,0.0-19.0-0.1-0.227,A1G5EPLJEGL381,3SD15I2WE5AO7614M34OSYMJOYM362,3YDGXNSEO3AZFZ1Q5YB7B163256485,1,2
228,4,object_03,object_07,352.40000000596,8,1,473.5,0.3333333333333333,2,object_04,5,2660,0,8,3,restaurant_6,2,memory-2step-stake-s,719,2731773,0.0-19.0-0.1-0.228,A1G5EPLJEGL381,3SD15I2WE5AO7614M34OSYMJOYM362,3YDGXNSEO3AZFZ1Q5YB7B163256485,8,7
229,1,object_02,object_09,612.30000001192,2,1,334.20000001788,0.1111111111111111,2,object_04,5,2665,0,8,1,desert_7,2,memory-2step-stake-s,720,2739429,0.0-19.0-0.1-0.229,A1G5EPLJEGL381,3SD15I2WE5AO7614M34OSYMJOYM362,3YDGXNSEO3AZFZ1Q5YB7B163256485,2,1
230,4,object_07,object_03,614.5,8,2,276.59999999404,0.1111111111111111,2,object_04,1,2666,0,7,1,restaurant_6,2,memory-2step-stake-s,721,2747034,0.0-19.0-0.1-0.230,A1G5EPLJEGL381,3SD15I2WE5AO7614M34OSYMJOYM362,3YDGXNSEO3AZFZ1Q5YB7B163256485,7,8
231,2,object_08,object_10,889.80000001192,4,2,633.90000000596,0.1111111111111111,2,object_04,5,2671,0,6,1,forest_4,2,memory-2step-stake-s,722,2754987,0.0-19.0-0.1-0.231,A1G5EPLJEGL381,3SD15I2WE5AO7614M34OSYMJOYM362,3YDGXNSEO3AZFZ1Q5YB7B163256485,3,4
232,4,object_07,object_03,432.09999999404,7,1,244.19999998808,0.5555555555555556,1,object_01,1,2676,0,5,1,restaurant_3,2,memory-2step-stake-s,723,2762956,0.0-19.0-0.1-0.232,A1G5EPLJEGL381,3SD15I2WE5AO7614M34OSYMJOYM362,3YDGXNSEO3AZFZ1Q5YB7B163256485,7,8
233,4,object_07,object_03,462.19999998808,8,2,336.90000000596,0.1111111111111111,2,object_04,1,2677,0,4,1,restaurant_7,2,memory-2step-stake-s,724,2772583,0.0-19.0-0.1-0.233,A1G5EPLJEGL381,3SD15I2WE5AO7614M34OSYMJOYM362,3YDGXNSEO3AZFZ1Q5YB7B163256485,7,8
234,2,object_08,object_10,264.0,4,2,315.10000002384,0.0,2,object_04,5,2677,0,0,0,forest_4,2,memory-2step-stake-s,725,2780118,0.0-19.0-0.1-0.234,A1G5EPLJEGL381,3SD15I2WE5AO7614M34OSYMJOYM362,3YDGXNSEO3AZFZ1Q5YB7B163256485,3,4
235,2,object_10,object_08,44.600000023842,4,1,566.79999998212,0.3333333333333333,2,object_04,5,2692,0,0,3,forest_8,2,memory-2step-stake-s,726,2788203,0.0-19.0-0.1-0.235,A1G5EPLJEGL381,3SD15I2WE5AO7614M34OSYMJOYM362,3YDGXNSEO3AZFZ1Q5YB7B163256485,4,3
236,2,object_10,object_08,296.19999998808,3,2,864.5,0.1111111111111111,1,object_01,5,2697,0,1,2,forest_4,2,memory-2step-stake-s,727,2796389,0.0-19.0-0.1-0.236,A1G5EPLJEGL381,3SD15I2WE5AO7614M34OSYMJOYM362,3YDGXNSEO3AZFZ1Q5YB7B163256485,4,3
237,1,object_09,object_02,564.59999999404,1,1,475.19999998808,0.1111111111111111,1,object_01,1,2698,0,1,1,desert_5,2,memory-2step-stake-s,728,2804186,0.0-19.0-0.1-0.237,A1G5EPLJEGL381,3SD15I2WE5AO7614M34OSYMJOYM362,3YDGXNSEO3AZFZ1Q5YB7B163256485,1,2
238,3,object_06,object_05,298.09999999404,6,2,461.59999999404,0.4444444444444444,2,object_04,1,2702,0,2,4,library_1,2,memory-2step-stake-s,729,2812288,0.0-19.0-0.1-0.238,A1G5EPLJEGL381,3SD15I2WE5AO7614M34OSYMJOYM362,3YDGXNSEO3AZFZ1Q5YB7B163256485,5,6
239,1,object_02,object_09,492.30000001192,1,2,368.60000002384,0.4444444444444444,1,object_01,5,2722,0,4,5,desert_2,2,memory-2step-stake-s,730,2820272,0.0-19.0-0.1-0.239,A1G5EPLJEGL381,3SD15I2WE5AO7614M34OSYMJOYM362,3YDGXNSEO3AZFZ1Q5YB7B163256485,2,1
240,4,object_03,object_07,427.40000000596,8,1,340.39999997616,0.4444444444444444,2,object_04,1,2726,0,5,4,restaurant_3,2,memory-2step-stake-s,731,2828245,0.0-19.0-0.1-0.240,A1G5EPLJEGL381,3SD15I2WE5AO7614M34OSYMJOYM362,3YDGXNSEO3AZFZ1Q5YB7B163256485,8,7
241,4,object_07,object_03,503.30000001192,8,2,273.29999998212,0.7777777777777778,2,object_04,1,2733,0,1,7,restaurant_3,2,memory-2step-stake-s,732,2836461,0.0-19.0-0.1-0.241,A1G5EPLJEGL381,3SD15I2WE5AO7614M34OSYMJOYM362,3YDGXNSEO3AZFZ1Q5YB7B163256485,7,8
242,2,object_10,object_08,301.0,4,1,274.59999999404,0.6666666666666666,2,object_04,5,2763,0,2,6,forest_5,2,memory-2step-stake-s,733,2844567,0.0-19.0-0.1-0.242,A1G5EPLJEGL381,3SD15I2WE5AO7614M34OSYMJOYM362,3YDGXNSEO3AZFZ1Q5YB7B163256485,4,3
243,1,object_09,object_02,331.60000002384,2,2,313.69999998808,0.5555555555555556,2,object_04,1,2768,0,2,5,desert_7,2,memory-2step-stake-s,734,2852609,0.0-19.0-0.1-0.243,A1G5EPLJEGL381,3SD15I2WE5AO7614M34OSYMJOYM362,3YDGXNSEO3AZFZ1Q5YB7B163256485,1,2
244,3,object_05,object_06,350.5,6,1,609.40000000596,0.5555555555555556,2,object_04,1,2773,0,3,5,library_7,2,memory-2step-stake-s,735,2860962,0.0-19.0-0.1-0.244,A1G5EPLJEGL381,3SD15I2WE5AO7614M34OSYMJOYM362,3YDGXNSEO3AZFZ1Q5YB7B163256485,6,5
245,4,object_03,object_07,351.69999998808,7,2,752.59999999404,0.1111111111111111,1,object_01,1,2774,0,1,3,restaurant_7,2,memory-2step-stake-s,736,2869033,0.0-19.0-0.1-0.245,A1G5EPLJEGL381,3SD15I2WE5AO7614M34OSYMJOYM362,3YDGXNSEO3AZFZ1Q5YB7B163256485,8,7
246,4,object_03,object_07,439.59999999404,8,1,646.19999998808,0.4444444444444444,2,object_04,5,2794,0,3,4,restaurant_7,2,memory-2step-stake-s,737,2877313,0.0-19.0-0.1-0.246,A1G5EPLJEGL381,3SD15I2WE5AO7614M34OSYMJOYM362,3YDGXNSEO3AZFZ1Q5YB7B163256485,8,7
247,4,object_07,object_03,88.59999999404,8,2,352.90000000596,0.5555555555555556,2,object_04,1,2799,0,2,5,restaurant_3,2,memory-2step-stake-s,738,2885392,0.0-19.0-0.1-0.247,A1G5EPLJEGL381,3SD15I2WE5AO7614M34OSYMJOYM362,3YDGXNSEO3AZFZ1Q5YB7B163256485,7,8
248,2,object_10,object_08,296.30000001192,4,1,435.09999999404,0.6666666666666666,2,object_04,1,2805,0,0,6,forest_2,2,memory-2step-stake-s,739,2893662,0.0-19.0-0.1-0.248,A1G5EPLJEGL381,3SD15I2WE5AO7614M34OSYMJOYM362,3YDGXNSEO3AZFZ1Q5YB7B163256485,4,3
249,3,object_05,object_06,338.10000002384,5,2,381.10000002384,0.2222222222222222,1,object_01,1,2807,0,2,2,library_3,2,memory-2step-stake-s,740,2901462,0.0-19.0-0.1-0.249,A1G5EPLJEGL381,3SD15I2WE5AO7614M34OSYMJOYM362,3YDGXNSEO3AZFZ1Q5YB7B163256485,6,5
250,1,object_09,object_02,450.70000001788,1,1,388.80000001192,0.2222222222222222,1,object_01,5,2817,0,2,1,desert_2,2,memory-2step-stake-s,741,2909270,0.0-19.0-0.1-0.250,A1G5EPLJEGL381,3SD15I2WE5AO7614M34OSYMJOYM362,3YDGXNSEO3AZFZ1Q5YB7B163256485,1,2
251,2,object_10,object_08,406.19999998808,3,2,344.69999998808,0.1111111111111111,1,object_01,5,2822,0,1,2,forest_2,2,memory-2step-stake-s,742,2916938,0.0-19.0-0.1-0.251,A1G5EPLJEGL381,3SD15I2WE5AO7614M34OSYMJOYM362,3YDGXNSEO3AZFZ1Q5YB7B163256485,4,3
252,3,object_05,object_06,293.59999999404,6,1,439.69999998808,0.2222222222222222,2,object_04,1,2824,0,1,2,library_5,2,memory-2step-stake-s,743,2924798,0.0-19.0-0.1-0.252,A1G5EPLJEGL381,3SD15I2WE5AO7614M34OSYMJOYM362,3YDGXNSEO3AZFZ1Q5YB7B163256485,6,5
253,3,object_05,object_06,306.80000001192,5,2,601.90000000596,0.3333333333333333,1,object_01,1,2827,0,3,1,library_7,2,memory-2step-stake-s,744,2932931,0.0-19.0-0.1-0.253,A1G5EPLJEGL381,3SD15I2WE5AO7614M34OSYMJOYM362,3YDGXNSEO3AZFZ1Q5YB7B163256485,6,5
254,3,object_06,object_05,291.70000001788,5,1,269.5,0.2222222222222222,1,object_01,1,2829,0,2,2,library_7,2,memory-2step-stake-s,745,2940621,0.0-19.0-0.1-0.254,A1G5EPLJEGL381,3SD15I2WE5AO7614M34OSYMJOYM362,3YDGXNSEO3AZFZ1Q5YB7B163256485,5,6
255,1,object_09,object_02,281.5,2,2,312.90000000596,0.1111111111111111,2,object_04,5,2834,0,4,1,desert_7,2,memory-2step-stake-s,746,2948256,0.0-19.0-0.1-0.255,A1G5EPLJEGL381,3SD15I2WE5AO7614M34OSYMJOYM362,3YDGXNSEO3AZFZ1Q5YB7B163256485,1,2
