,state1,stim_left,stim_right,rt_1,choice1,response1,rt_2,points,state2,stim_state2,stake,score,practice,rews1,rews2,background,high_arm,trial_type,trial_index,time_elapsed,internal_node_id,subid,hitid,assignmentid,stim_left_num,stim_right_num
0,1,object_04,object_09,764.0,2,1,1305.0,0.8888888888888888,2,object_07,1,8,0,1,8,desert_1,1,memory-2step-stake-s,489,1088433,0.0-19.0-0.0-0.0,A2R6UQCQ8T3RZE,3SD15I2WE5AO7614M34OSYMJOYM362,3NVC2EB65UFTC994IO4I092ZHKE3YY,2,1
1,1,object_04,object_09,788.0,1,2,872.0,0.0,1,object_05,1,8,0,0,6,desert_8,1,memory-2step-stake-s,490,1096592,0.0-19.0-0.0-0.1,A2R6UQCQ8T3RZE,3SD15I2WE5AO7614M34OSYMJOYM362,3NVC2EB65UFTC994IO4I092ZHKE3YY,2,1
2,2,object_01,object_03,924.0,3,1,546.0,0.0,1,object_05,5,8,0,0,3,forest_2,1,memory-2step-stake-s,491,1104451,0.0-19.0-0.0-0.2,A2R6UQCQ8T3RZE,3SD15I2WE5AO7614M34OSYMJOYM362,3NVC2EB65UFTC994IO4I092ZHKE3YY,3,4
3,2,object_03,object_01,1141.0,4,1,509.0,0.3333333333333333,2,object_07,1,11,0,1,3,forest_8,1,memory-2step-stake-s,492,1112612,0.0-19.0-0.0-0.3,A2R6UQCQ8T3RZE,3SD15I2WE5AO7614M34OSYMJOYM362,3NVC2EB65UFTC994IO4I092ZHKE3YY,4,3
4,3,object_10,object_02,1085.0,6,2,443.0,0.4444444444444444,2,object_07,1,15,0,2,4,library_6,1,memory-2step-stake-s,493,1120813,0.0-19.0-0.0-0.4,A2R6UQCQ8T3RZE,3SD15I2WE5AO7614M34OSYMJOYM362,3NVC2EB65UFTC994IO4I092ZHKE3YY,5,6
5,3,object_02,object_10,865.0,6,1,487.0,0.4444444444444444,2,object_07,5,35,0,5,4,library_1,1,memory-2step-stake-s,494,1129074,0.0-19.0-0.0-0.5,A2R6UQCQ8T3RZE,3SD15I2WE5AO7614M34OSYMJOYM362,3NVC2EB65UFTC994IO4I092ZHKE3YY,6,5
6,4,object_08,object_06,1127.0,7,2,474.0,0.7777777777777778,1,object_05,1,42,0,7,4,restaurant_5,1,memory-2step-stake-s,495,1137651,0.0-19.0-0.0-0.6,A2R6UQCQ8T3RZE,3SD15I2WE5AO7614M34OSYMJOYM362,3NVC2EB65UFTC994IO4I092ZHKE3YY,8,7
7,3,object_02,object_10,614.0,6,1,463.0,0.6666666666666666,2,object_07,5,72,0,4,6,library_5,1,memory-2step-stake-s,496,1146034,0.0-19.0-0.0-0.7,A2R6UQCQ8T3RZE,3SD15I2WE5AO7614M34OSYMJOYM362,3NVC2EB65UFTC994IO4I092ZHKE3YY,6,5
8,4,object_08,object_06,1496.0,7,2,393.0,0.5555555555555556,1,object_05,5,97,0,5,6,restaurant_2,1,memory-2step-stake-s,497,1154293,0.0-19.0-0.0-0.8,A2R6UQCQ8T3RZE,3SD15I2WE5AO7614M34OSYMJOYM362,3NVC2EB65UFTC994IO4I092ZHKE3YY,8,7
9,4,object_06,object_08,1241.0,7,1,436.0,0.8888888888888888,1,object_05,5,137,0,8,6,restaurant_3,1,memory-2step-stake-s,498,1162993,0.0-19.0-0.0-0.9,A2R6UQCQ8T3RZE,3SD15I2WE5AO7614M34OSYMJOYM362,3NVC2EB65UFTC994IO4I092ZHKE3YY,7,8
10,4,object_06,object_08,909.0,7,1,507.0,0.8888888888888888,1,object_05,1,145,0,8,3,restaurant_5,1,memory-2step-stake-s,499,1171734,0.0-19.0-0.0-0.10,A2R6UQCQ8T3RZE,3SD15I2WE5AO7614M34OSYMJOYM362,3NVC2EB65UFTC994IO4I092ZHKE3YY,7,8
11,3,object_02,object_10,912.0,6,1,443.0,0.4444444444444444,2,object_07,1,149,0,7,4,library_7,1,memory-2step-stake-s,500,1179953,0.0-19.0-0.0-0.11,A2R6UQCQ8T3RZE,3SD15I2WE5AO7614M34OSYMJOYM362,3NVC2EB65UFTC994IO4I092ZHKE3YY,6,5
12,4,object_08,object_06,922.0,7,2,425.0,0.6666666666666666,1,object_05,5,179,0,6,2,restaurant_7,1,memory-2step-stake-s,501,1188375,0.0-19.0-0.0-0.12,A2R6UQCQ8T3RZE,3SD15I2WE5AO7614M34OSYMJOYM362,3NVC2EB65UFTC994IO4I092ZHKE3YY,8,7
13,2,object_03,object_01,873.0,4,1,571.0,0.4444444444444444,2,object_07,1,183,0,6,4,forest_8,1,memory-2step-stake-s,502,1196694,0.0-19.0-0.0-0.13,A2R6UQCQ8T3RZE,3SD15I2WE5AO7614M34OSYMJOYM362,3NVC2EB65UFTC994IO4I092ZHKE3YY,4,3
14,1,object_04,object_09,1284.0,2,1,424.0,0.5555555555555556,2,object_07,1,188,0,6,5,desert_4,1,memory-2step-stake-s,503,1205035,0.0-19.0-0.0-0.14,A2R6UQCQ8T3RZE,3SD15I2WE5AO7614M34OSYMJOYM362,3NVC2EB65UFTC994IO4I092ZHKE3YY,2,1
15,2,object_01,object_03,1019.0,3,1,384.0,0.6666666666666666,1,object_05,5,218,0,6,7,forest_3,1,memory-2step-stake-s,504,1213414,0.0-19.0-0.0-0.15,A2R6UQCQ8T3RZE,3SD15I2WE5AO7614M34OSYMJOYM362,3NVC2EB65UFTC994IO4I092ZHKE3YY,3,4
16,1,object_04,object_09,1035.0,2,1,441.0,0.5555555555555556,2,object_07,1,223,0,5,5,desert_4,1,memory-2step-stake-s,505,1221795,0.0-19.0-0.0-0.16,A2R6UQCQ8T3RZE,3SD15I2WE5AO7614M34OSYMJOYM362,3NVC2EB65UFTC994IO4I092ZHKE3YY,2,1
17,1,object_09,object_04,796.0,2,2,453.0,0.5555555555555556,2,object_07,5,248,0,7,5,desert_1,1,memory-2step-stake-s,506,1230095,0.0-19.0-0.0-0.17,A2R6UQCQ8T3RZE,3SD15I2WE5AO7614M34OSYMJOYM362,3NVC2EB65UFTC994IO4I092ZHKE3YY,1,2
18,1,object_04,object_09,592.0,2,1,358.0,0.5555555555555556,2,object_07,1,253,0,7,5,desert_8,1,memory-2step-stake-s,507,1238375,0.0-19.0-0.0-0.18,A2R6UQCQ8T3RZE,3SD15I2WE5AO7614M34OSYMJOYM362,3NVC2EB65UFTC994IO4I092ZHKE3YY,2,1
19,2,object_03,object_01,926.0,3,2,368.0,0.6666666666666666,1,object_05,1,259,0,6,5,forest_8,1,memory-2step-stake-s,508,1246715,0.0-19.0-0.0-0.19,A2R6UQCQ8T3RZE,3SD15I2WE5AO7614M34OSYMJOYM362,3NVC2EB65UFTC994IO4I092ZHKE3YY,4,3
20,2,object_03,object_01,726.0,3,2,358.0,0.8888888888888888,1,object_05,1,267,0,8,7,forest_6,1,memory-2step-stake-s,509,1255335,0.0-19.0-0.0-0.20,A2R6UQCQ8T3RZE,3SD15I2WE5AO7614M34OSYMJOYM362,3NVC2EB65UFTC994IO4I092ZHKE3YY,4,3
21,3,object_02,object_10,645.0,6,1,355.0,0.7777777777777778,2,object_07,5,302,0,8,7,library_1,1,memory-2step-stake-s,510,1263775,0.0-19.0-0.0-0.21,A2R6UQCQ8T3RZE,3SD15I2WE5AO7614M34OSYMJOYM362,3NVC2EB65UFTC994IO4I092ZHKE3YY,6,5
22,4,object_06,object_08,905.0,7,1,364.0,0.8888888888888888,1,object_05,5,342,0,8,4,restaurant_7,1,memory-2step-stake-s,511,1272415,0.0-19.0-0.0-0.22,A2R6UQCQ8T3RZE,3SD15I2WE5AO7614M34OSYMJOYM362,3NVC2EB65UFTC994IO4I092ZHKE3YY,7,8
23,3,object_02,object_10,708.0,6,1,340.0,0.3333333333333333,2,object_07,5,357,0,7,3,library_7,1,memory-2step-stake-s,512,1280436,0.0-19.0-0.0-0.23,A2R6UQCQ8T3RZE,3SD15I2WE5AO7614M34OSYMJOYM362,3NVC2EB65UFTC994IO4I092ZHKE3YY,6,5
24,4,object_06,object_08,819.0,7,1,560.0,0.7777777777777778,1,object_05,5,392,0,7,1,restaurant_2,1,memory-2step-stake-s,513,1289116,0.0-19.0-0.0-0.24,A2R6UQCQ8T3RZE,3SD15I2WE5AO7614M34OSYMJOYM362,3NVC2EB65UFTC994IO4I092ZHKE3YY,7,8
25,3,object_02,object_10,806.0,6,1,566.0,0.1111111111111111,2,object_07,5,397,0,8,1,library_6,1,memory-2step-stake-s,514,1297096,0.0-19.0-0.0-0.25,A2R6UQCQ8T3RZE,3SD15I2WE5AO7614M34OSYMJOYM362,3NVC2EB65UFTC994IO4I092ZHKE3YY,6,5
26,1,object_09,object_04,633.0,2,2,550.0,0.0,2,object_07,1,397,0,8,0,desert_8,1,memory-2step-stake-s,515,1304956,0.0-19.0-0.0-0.26,A2R6UQCQ8T3RZE,3SD15I2WE5AO7614M34OSYMJOYM362,3NVC2EB65UFTC994IO4I092ZHKE3YY,1,2
27,1,object_04,object_09,742.0,2,1,437.0,0.0,2,object_07,1,397,0,6,0,desert_4,1,memory-2step-stake-s,516,1312696,0.0-19.0-0.0-0.27,A2R6UQCQ8T3RZE,3SD15I2WE5AO7614M34OSYMJOYM362,3NVC2EB65UFTC994IO4I092ZHKE3YY,2,1
28,4,object_06,object_08,932.0,8,2,401.0,0.6666666666666666,2,object_07,1,403,0,9,6,restaurant_3,1,memory-2step-stake-s,517,1321136,0.0-19.0-0.0-0.28,A2R6UQCQ8T3RZE,3SD15I2WE5AO7614M34OSYMJOYM362,3NVC2EB65UFTC994IO4I092ZHKE3YY,7,8
29,4,object_08,object_06,695.0,7,2,385.0,0.8888888888888888,1,object_05,5,443,0,8,7,restaurant_7,1,memory-2step-stake-s,518,1329757,0.0-19.0-0.0-0.29,A2R6UQCQ8T3RZE,3SD15I2WE5AO7614M34OSYMJOYM362,3NVC2EB65UFTC994IO4I092ZHKE3YY,8,7
30,4,object_08,object_06,1023.0,7,2,402.0,0.4444444444444444,1,object_05,5,463,0,4,8,restaurant_2,1,memory-2step-stake-s,519,1337917,0.0-19.0-0.0-0.30,A2R6UQCQ8T3RZE,3SD15I2WE5AO7614M34OSYMJOYM362,3NVC2EB65UFTC994IO4I092ZHKE3YY,8,7
31,3,object_02,object_10,676.0,6,1,514.0,0.8888888888888888,2,object_07,1,471,0,2,8,library_7,1,memory-2step-stake-s,520,1346677,0.0-19.0-0.0-0.31,A2R6UQCQ8T3RZE,3SD15I2WE5AO7614M34OSYMJOYM362,3NVC2EB65UFTC994IO4I092ZHKE3YY,6,5
32,1,object_04,object_09,507.0,1,2,430.0,0.3333333333333333,1,object_05,1,474,0,3,8,desert_4,1,memory-2step-stake-s,521,1354737,0.0-19.0-0.0-0.32,A2R6UQCQ8T3RZE,3SD15I2WE5AO7614M34OSYMJOYM362,3NVC2EB65UFTC994IO4I092ZHKE3YY,2,1
33,4,object_08,object_06,929.0,7,2,510.0,0.2222222222222222,1,object_05,5,484,0,2,6,restaurant_5,1,memory-2step-stake-s,522,1362797,0.0-19.0-0.0-0.33,A2R6UQCQ8T3RZE,3SD15I2WE5AO7614M34OSYMJOYM362,3NVC2EB65UFTC994IO4I092ZHKE3YY,8,7
34,3,object_10,object_02,914.0,6,2,407.0,0.6666666666666666,2,object_07,5,514,0,4,6,library_5,1,memory-2step-stake-s,523,1371197,0.0-19.0-0.0-0.34,A2R6UQCQ8T3RZE,3SD15I2WE5AO7614M34OSYMJOYM362,3NVC2EB65UFTC994IO4I092ZHKE3YY,5,6
35,1,object_04,object_09,721.0,1,2,355.0,0.6666666666666666,1,object_05,5,544,0,6,3,desert_7,1,memory-2step-stake-s,524,1379557,0.0-19.0-0.0-0.35,A2R6UQCQ8T3RZE,3SD15I2WE5AO7614M34OSYMJOYM362,3NVC2EB65UFTC994IO4I092ZHKE3YY,2,1
36,3,object_10,object_02,778.0,6,2,570.0,0.3333333333333333,2,object_07,5,559,0,8,3,library_7,1,memory-2step-stake-s,525,1387758,0.0-19.0-0.0-0.36,A2R6UQCQ8T3RZE,3SD15I2WE5AO7614M34OSYMJOYM362,3NVC2EB65UFTC994IO4I092ZHKE3YY,5,6
37,3,object_10,object_02,757.0,5,1,381.0,0.7777777777777778,1,object_05,5,594,0,7,4,library_1,1,memory-2step-stake-s,526,1396258,0.0-19.0-0.0-0.37,A2R6UQCQ8T3RZE,3SD15I2WE5AO7614M34OSYMJOYM362,3NVC2EB65UFTC994IO4I092ZHKE3YY,5,6
38,2,object_01,object_03,1135.0,4,2,441.0,0.0,2,object_07,5,594,0,8,0,forest_2,1,memory-2step-stake-s,527,1403998,0.0-19.0-0.0-0.38,A2R6UQCQ8T3RZE,3SD15I2WE5AO7614M34OSYMJOYM362,3NVC2EB65UFTC994IO4I092ZHKE3YY,3,4
39,2,object_03,object_01,774.0,3,2,354.0,0.4444444444444444,1,object_05,1,598,0,4,0,forest_8,1,memory-2step-stake-s,528,1412098,0.0-19.0-0.0-0.39,A2R6UQCQ8T3RZE,3SD15I2WE5AO7614M34OSYMJOYM362,3NVC2EB65UFTC994IO4I092ZHKE3YY,4,3
40,4,object_06,object_08,1021.0,7,1,376.0,0.3333333333333333,1,object_05,5,613,0,3,2,restaurant_5,1,memory-2step-stake-s,529,1420118,0.0-19.0-0.0-0.40,A2R6UQCQ8T3RZE,3SD15I2WE5AO7614M34OSYMJOYM362,3NVC2EB65UFTC994IO4I092ZHKE3YY,7,8
41,4,object_08,object_06,894.0,7,2,311.0,0.5555555555555556,1,object_05,5,638,0,5,0,restaurant_7,1,memory-2step-stake-s,530,1428278,0.0-19.0-0.0-0.41,A2R6UQCQ8T3RZE,3SD15I2WE5AO7614M34OSYMJOYM362,3NVC2EB65UFTC994IO4I092ZHKE3YY,8,7
42,1,object_04,object_09,458.0,2,1,307.0,0.2222222222222222,2,object_07,1,640,0,3,2,desert_1,1,memory-2step-stake-s,531,1436138,0.0-19.0-0.0-0.42,A2R6UQCQ8T3RZE,3SD15I2WE5AO7614M34OSYMJOYM362,3NVC2EB65UFTC994IO4I092ZHKE3YY,2,1
43,2,object_01,object_03,874.0,3,1,448.0,0.5555555555555556,1,object_05,1,645,0,5,2,forest_2,1,memory-2step-stake-s,532,1444498,0.0-19.0-0.0-0.43,A2R6UQCQ8T3RZE,3SD15I2WE5AO7614M34OSYMJOYM362,3NVC2EB65UFTC994IO4I092ZHKE3YY,3,4
44,4,object_06,object_08,800.0,8,2,477.0,0.0,2,object_07,5,645,0,5,0,restaurant_3,1,memory-2step-stake-s,533,1452279,0.0-19.0-0.0-0.44,A2R6UQCQ8T3RZE,3SD15I2WE5AO7614M34OSYMJOYM362,3NVC2EB65UFTC994IO4I092ZHKE3YY,7,8
45,1,object_09,object_04,494.0,2,2,315.0,0.1111111111111111,2,object_07,1,646,0,5,1,desert_8,1,memory-2step-stake-s,534,1459979,0.0-19.0-0.0-0.45,A2R6UQCQ8T3RZE,3SD15I2WE5AO7614M34OSYMJOYM362,3NVC2EB65UFTC994IO4I092ZHKE3YY,1,2
46,4,object_06,object_08,946.0,8,2,418.0,0.1111111111111111,2,object_07,5,651,0,5,1,restaurant_3,1,memory-2step-stake-s,535,1467799,0.0-19.0-0.0-0.46,A2R6UQCQ8T3RZE,3SD15I2WE5AO7614M34OSYMJOYM362,3NVC2EB65UFTC994IO4I092ZHKE3YY,7,8
47,3,object_10,object_02,1121.0,6,2,344.0,0.3333333333333333,2,object_07,5,666,0,3,3,library_5,1,memory-2step-stake-s,536,1475779,0.0-19.0-0.0-0.47,A2R6UQCQ8T3RZE,3SD15I2WE5AO7614M34OSYMJOYM362,3NVC2EB65UFTC994IO4I092ZHKE3YY,5,6
48,1,object_04,object_09,1066.0,1,2,322.0,0.4444444444444444,1,object_05,1,670,0,4,7,desert_8,1,memory-2step-stake-s,537,1483860,0.0-19.0-0.0-0.48,A2R6UQCQ8T3RZE,3SD15I2WE5AO7614M34OSYMJOYM362,3NVC2EB65UFTC994IO4I092ZHKE3YY,2,1
49,4,object_08,object_06,942.0,7,2,448.0,0.4444444444444444,1,object_05,5,690,0,4,7,restaurant_3,1,memory-2step-stake-s,538,1492049,0.0-19.0-0.0-0.49,A2R6UQCQ8T3RZE,3SD15I2WE5AO7614M34OSYMJOYM362,3NVC2EB65UFTC994IO4I092ZHKE3YY,8,7
50,3,object_10,object_02,916.0,5,1,325.0,0.6666666666666666,1,object_05,5,720,0,6,6,library_1,1,memory-2step-stake-s,539,1500430,0.0-19.0-0.0-0.50,A2R6UQCQ8T3RZE,3SD15I2WE5AO7614M34OSYMJOYM362,3NVC2EB65UFTC994IO4I092ZHKE3YY,5,6
51,1,object_09,object_04,635.0,1,1,324.0,0.6666666666666666,1,object_05,1,726,0,6,7,desert_1,1,memory-2step-stake-s,540,1508809,0.0-19.0-0.0-0.51,A2R6UQCQ8T3RZE,3SD15I2WE5AO7614M34OSYMJOYM362,3NVC2EB65UFTC994IO4I092ZHKE3YY,1,2
52,1,object_09,object_04,1123.0,1,1,317.0,0.7777777777777778,1,object_05,1,733,0,7,7,desert_4,1,memory-2step-stake-s,541,1517270,0.0-19.0-0.0-0.52,A2R6UQCQ8T3RZE,3SD15I2WE5AO7614M34OSYMJOYM362,3NVC2EB65UFTC994IO4I092ZHKE3YY,1,2
53,1,object_09,object_04,909.0,2,2,303.0,0.8888888888888888,2,object_07,1,741,0,6,8,desert_8,1,memory-2step-stake-s,542,1525810,0.0-19.0-0.0-0.53,A2R6UQCQ8T3RZE,3SD15I2WE5AO7614M34OSYMJOYM362,3NVC2EB65UFTC994IO4I092ZHKE3YY,1,2
54,3,object_10,object_02,566.0,6,2,286.0,0.4444444444444444,2,object_07,5,761,0,5,4,library_7,1,memory-2step-stake-s,543,1533850,0.0-19.0-0.0-0.54,A2R6UQCQ8T3RZE,3SD15I2WE5AO7614M34OSYMJOYM362,3NVC2EB65UFTC994IO4I092ZHKE3YY,5,6
55,1,object_09,object_04,931.0,2,2,526.0,0.7777777777777778,2,object_07,1,768,0,4,7,desert_8,1,memory-2step-stake-s,544,1542450,0.0-19.0-0.0-0.55,A2R6UQCQ8T3RZE,3SD15I2WE5AO7614M34OSYMJOYM362,3NVC2EB65UFTC994IO4I092ZHKE3YY,1,2
56,1,object_04,object_09,808.0,1,2,616.0,0.8888888888888888,1,object_05,5,808,0,8,8,desert_8,1,memory-2step-stake-s,545,1551230,0.0-19.0-0.0-0.56,A2R6UQCQ8T3RZE,3SD15I2WE5AO7614M34OSYMJOYM362,3NVC2EB65UFTC994IO4I092ZHKE3YY,2,1
57,3,object_10,object_02,547.0,5,1,304.0,1.0,1,object_05,5,853,0,9,9,library_5,1,memory-2step-stake-s,546,1559851,0.0-19.0-0.0-0.57,A2R6UQCQ8T3RZE,3SD15I2WE5AO7614M34OSYMJOYM362,3NVC2EB65UFTC994IO4I092ZHKE3YY,5,6
58,2,object_01,object_03,890.0,3,1,281.0,0.7777777777777778,1,object_05,1,860,0,7,7,forest_8,1,memory-2step-stake-s,547,1568251,0.0-19.0-0.0-0.58,A2R6UQCQ8T3RZE,3SD15I2WE5AO7614M34OSYMJOYM362,3NVC2EB65UFTC994IO4I092ZHKE3YY,3,4
59,3,object_10,object_02,453.0,6,2,337.0,1.0,2,object_07,5,905,0,7,9,library_7,1,memory-2step-stake-s,548,1576931,0.0-19.0-0.0-0.59,A2R6UQCQ8T3RZE,3SD15I2WE5AO7614M34OSYMJOYM362,3NVC2EB65UFTC994IO4I092ZHKE3YY,5,6
60,1,object_04,object_09,711.0,1,2,369.0,0.8888888888888888,1,object_05,5,945,0,8,8,desert_7,1,memory-2step-stake-s,549,1585491,0.0-19.0-0.0-0.60,A2R6UQCQ8T3RZE,3SD15I2WE5AO7614M34OSYMJOYM362,3NVC2EB65UFTC994IO4I092ZHKE3YY,2,1
61,1,object_09,object_04,899.0,2,2,398.0,0.6666666666666666,2,object_07,5,975,0,6,6,desert_7,1,memory-2step-stake-s,550,1593847,0.0-19.0-0.0-0.61,A2R6UQCQ8T3RZE,3SD15I2WE5AO7614M34OSYMJOYM362,3NVC2EB65UFTC994IO4I092ZHKE3YY,1,2
62,1,object_09,object_04,763.0,1,1,402.0,0.4444444444444444,1,object_05,1,979,0,4,4,desert_7,1,memory-2step-stake-s,551,1601947,0.0-19.0-0.0-0.62,A2R6UQCQ8T3RZE,3SD15I2WE5AO7614M34OSYMJOYM362,3NVC2EB65UFTC994IO4I092ZHKE3YY,1,2
63,4,object_08,object_06,735.0,7,2,346.0,0.2222222222222222,1,object_05,5,989,0,2,4,restaurant_3,1,memory-2step-stake-s,552,1609811,0.0-19.0-0.0-0.63,A2R6UQCQ8T3RZE,3SD15I2WE5AO7614M34OSYMJOYM362,3NVC2EB65UFTC994IO4I092ZHKE3YY,8,7
64,2,object_03,object_01,901.0,3,2,347.0,0.4444444444444444,1,object_05,1,993,0,4,2,forest_8,1,memory-2step-stake-s,553,1617871,0.0-19.0-0.0-0.64,A2R6UQCQ8T3RZE,3SD15I2WE5AO7614M34OSYMJOYM362,3NVC2EB65UFTC994IO4I092ZHKE3YY,4,3
65,4,object_08,object_06,1076.0,8,1,436.0,0.2222222222222222,2,object_07,5,1003,0,4,2,restaurant_3,1,memory-2step-stake-s,554,1625832,0.0-19.0-0.0-0.65,A2R6UQCQ8T3RZE,3SD15I2WE5AO7614M34OSYMJOYM362,3NVC2EB65UFTC994IO4I092ZHKE3YY,8,7
66,1,object_04,object_09,964.0,2,1,353.0,0.6666666666666666,2,object_07,1,1009,0,2,6,desert_4,1,memory-2step-stake-s,555,1634132,0.0-19.0-0.0-0.66,A2R6UQCQ8T3RZE,3SD15I2WE5AO7614M34OSYMJOYM362,3NVC2EB65UFTC994IO4I092ZHKE3YY,2,1
67,2,object_03,object_01,735.0,3,2,330.0,0.1111111111111111,1,object_05,5,1014,0,1,5,forest_6,1,memory-2step-stake-s,556,1641847,0.0-19.0-0.0-0.67,A2R6UQCQ8T3RZE,3SD15I2WE5AO7614M34OSYMJOYM362,3NVC2EB65UFTC994IO4I092ZHKE3YY,4,3
68,3,object_10,object_02,674.0,5,1,332.0,0.3333333333333333,1,object_05,5,1029,0,3,7,library_6,1,memory-2step-stake-s,557,1649833,0.0-19.0-0.0-0.68,A2R6UQCQ8T3RZE,3SD15I2WE5AO7614M34OSYMJOYM362,3NVC2EB65UFTC994IO4I092ZHKE3YY,5,6
69,4,object_06,object_08,809.0,7,1,395.0,0.2222222222222222,1,object_05,5,1039,0,2,4,restaurant_3,1,memory-2step-stake-s,558,1657733,0.0-19.0-0.0-0.69,A2R6UQCQ8T3RZE,3SD15I2WE5AO7614M34OSYMJOYM362,3NVC2EB65UFTC994IO4I092ZHKE3YY,7,8
70,2,object_03,object_01,828.0,3,2,379.0,0.1111111111111111,1,object_05,1,1040,0,1,4,forest_8,1,memory-2step-stake-s,559,1665513,0.0-19.0-0.0-0.70,A2R6UQCQ8T3RZE,3SD15I2WE5AO7614M34OSYMJOYM362,3NVC2EB65UFTC994IO4I092ZHKE3YY,4,3
71,3,object_10,object_02,507.0,6,2,348.0,0.5555555555555556,2,object_07,5,1065,0,0,5,library_1,1,memory-2step-stake-s,560,1673733,0.0-19.0-0.0-0.71,A2R6UQCQ8T3RZE,3SD15I2WE5AO7614M34OSYMJOYM362,3NVC2EB65UFTC994IO4I092ZHKE3YY,5,6
72,1,object_09,object_04,769.0,1,1,409.0,0.1111111111111111,1,object_05,1,1066,0,1,4,desert_7,1,memory-2step-stake-s,561,1681533,0.0-19.0-0.0-0.72,A2R6UQCQ8T3RZE,3SD15I2WE5AO7614M34OSYMJOYM362,3NVC2EB65UFTC994IO4I092ZHKE3YY,1,2
73,3,object_02,object_10,990.0,6,1,340.0,0.3333333333333333,2,object_07,5,1081,0,1,3,library_1,1,memory-2step-stake-s,562,1689449,0.0-19.0-0.0-0.73,A2R6UQCQ8T3RZE,3SD15I2WE5AO7614M34OSYMJOYM362,3NVC2EB65UFTC994IO4I092ZHKE3YY,6,5
74,2,object_03,object_01,670.0,3,2,549.0,0.0,1,object_05,5,1081,0,0,4,forest_8,1,memory-2step-stake-s,563,1697283,0.0-19.0-0.0-0.74,A2R6UQCQ8T3RZE,3SD15I2WE5AO7614M34OSYMJOYM362,3NVC2EB65UFTC994IO4I092ZHKE3YY,4,3
75,3,object_02,object_10,561.0,5,2,361.0,0.2222222222222222,1,object_05,5,1091,0,2,5,library_7,1,memory-2step-stake-s,564,1705184,0.0-19.0-0.0-0.75,A2R6UQCQ8T3RZE,3SD15I2WE5AO7614M34OSYMJOYM362,3NVC2EB65UFTC994IO4I092ZHKE3YY,6,5
76,1,object_04,object_09,861.0,1,2,415.0,0.5555555555555556,1,object_05,1,1096,0,5,3,desert_8,1,memory-2step-stake-s,565,1713444,0.0-19.0-0.0-0.76,A2R6UQCQ8T3RZE,3SD15I2WE5AO7614M34OSYMJOYM362,3NVC2EB65UFTC994IO4I092ZHKE3YY,2,1
77,2,object_01,object_03,491.0,4,2,357.0,0.4444444444444444,2,object_07,1,1100,0,6,4,forest_3,1,memory-2step-stake-s,566,1721544,0.0-19.0-0.0-0.77,A2R6UQCQ8T3RZE,3SD15I2WE5AO7614M34OSYMJOYM362,3NVC2EB65UFTC994IO4I092ZHKE3YY,3,4
78,3,object_02,object_10,577.0,6,1,539.0,0.3333333333333333,2,object_07,5,1115,0,8,3,library_5,1,memory-2step-stake-s,567,1729703,0.0-19.0-0.0-0.78,A2R6UQCQ8T3RZE,3SD15I2WE5AO7614M34OSYMJOYM362,3NVC2EB65UFTC994IO4I092ZHKE3YY,6,5
79,3,object_02,object_10,862.0,6,1,321.0,0.6666666666666666,2,object_07,5,1145,0,7,6,library_7,1,memory-2step-stake-s,568,1738002,0.0-19.0-0.0-0.79,A2R6UQCQ8T3RZE,3SD15I2WE5AO7614M34OSYMJOYM362,3NVC2EB65UFTC994IO4I092ZHKE3YY,6,5
80,1,object_04,object_09,587.0,1,2,359.0,0.8888888888888888,1,object_05,1,1153,0,8,3,desert_8,1,memory-2step-stake-s,569,1746603,0.0-19.0-0.0-0.80,A2R6UQCQ8T3RZE,3SD15I2WE5AO7614M34OSYMJOYM362,3NVC2EB65UFTC994IO4I092ZHKE3YY,2,1
81,2,object_03,object_01,949.0,4,1,433.0,0.1111111111111111,2,object_07,5,1158,0,6,1,forest_6,1,memory-2step-stake-s,570,1754403,0.0-19.0-0.0-0.81,A2R6UQCQ8T3RZE,3SD15I2WE5AO7614M34OSYMJOYM362,3NVC2EB65UFTC994IO4I092ZHKE3YY,4,3
82,1,object_04,object_09,868.0,2,1,572.0,0.2222222222222222,2,object_07,1,1160,0,0,2,desert_7,1,memory-2step-stake-s,571,1762524,0.0-19.0-0.0-0.82,A2R6UQCQ8T3RZE,3SD15I2WE5AO7614M34OSYMJOYM362,3NVC2EB65UFTC994IO4I092ZHKE3YY,2,1
83,3,object_10,object_02,793.0,6,2,404.0,0.1111111111111111,2,object_07,5,1165,0,0,1,library_5,1,memory-2step-stake-s,572,1770385,0.0-19.0-0.0-0.83,A2R6UQCQ8T3RZE,3SD15I2WE5AO7614M34OSYMJOYM362,3NVC2EB65UFTC994IO4I092ZHKE3YY,5,6
84,2,object_01,object_03,700.0,4,2,321.0,0.1111111111111111,2,object_07,1,1166,0,3,1,forest_6,1,memory-2step-stake-s,573,1778104,0.0-19.0-0.0-0.84,A2R6UQCQ8T3RZE,3SD15I2WE5AO7614M34OSYMJOYM362,3NVC2EB65UFTC994IO4I092ZHKE3YY,3,4
85,2,object_01,object_03,637.0,3,1,306.0,0.2222222222222222,1,object_05,1,1168,0,2,1,forest_6,1,memory-2step-stake-s,574,1785904,0.0-19.0-0.0-0.85,A2R6UQCQ8T3RZE,3SD15I2WE5AO7614M34OSYMJOYM362,3NVC2EB65UFTC994IO4I092ZHKE3YY,3,4
86,2,object_01,object_03,1010.0,3,1,312.0,0.1111111111111111,1,object_05,1,1169,0,1,0,forest_6,1,memory-2step-stake-s,575,1793585,0.0-19.0-0.0-0.86,A2R6UQCQ8T3RZE,3SD15I2WE5AO7614M34OSYMJOYM362,3NVC2EB65UFTC994IO4I092ZHKE3YY,3,4
87,4,object_08,object_06,905.0,7,2,349.0,0.1111111111111111,1,object_05,5,1174,0,1,3,restaurant_2,1,memory-2step-stake-s,576,1801345,0.0-19.0-0.0-0.87,A2R6UQCQ8T3RZE,3SD15I2WE5AO7614M34OSYMJOYM362,3NVC2EB65UFTC994IO4I092ZHKE3YY,8,7
88,3,object_10,object_02,726.0,5,1,679.0,0.1111111111111111,1,object_05,1,1175,0,1,3,library_1,1,memory-2step-stake-s,577,1809405,0.0-19.0-0.0-0.88,A2R6UQCQ8T3RZE,3SD15I2WE5AO7614M34OSYMJOYM362,3NVC2EB65UFTC994IO4I092ZHKE3YY,5,6
89,2,object_01,object_03,690.0,4,2,411.0,0.2222222222222222,2,object_07,1,1177,0,4,2,forest_6,1,memory-2step-stake-s,578,1817325,0.0-19.0-0.0-0.89,A2R6UQCQ8T3RZE,3SD15I2WE5AO7614M34OSYMJOYM362,3NVC2EB65UFTC994IO4I092ZHKE3YY,3,4
90,4,object_06,object_08,1067.0,7,1,351.0,0.2222222222222222,1,object_05,5,1187,0,2,2,restaurant_7,1,memory-2step-stake-s,579,1825185,0.0-19.0-0.0-0.90,A2R6UQCQ8T3RZE,3SD15I2WE5AO7614M34OSYMJOYM362,3NVC2EB65UFTC994IO4I092ZHKE3YY,7,8
91,2,object_03,object_01,860.0,4,1,270.0,0.4444444444444444,2,object_07,1,1191,0,4,4,forest_2,1,memory-2step-stake-s,580,1833186,0.0-19.0-0.0-0.91,A2R6UQCQ8T3RZE,3SD15I2WE5AO7614M34OSYMJOYM362,3NVC2EB65UFTC994IO4I092ZHKE3YY,4,3
92,3,object_02,object_10,563.0,6,1,292.0,0.6666666666666666,2,object_07,5,1221,0,4,6,library_1,1,memory-2step-stake-s,581,1841405,0.0-19.0-0.0-0.92,A2R6UQCQ8T3RZE,3SD15I2WE5AO7614M34OSYMJOYM362,3NVC2EB65UFTC994IO4I092ZHKE3YY,6,5
93,1,object_04,object_09,586.0,1,2,373.0,0.5555555555555556,1,object_05,5,1246,0,5,6,desert_1,1,memory-2step-stake-s,582,1849606,0.0-19.0-0.0-0.93,A2R6UQCQ8T3RZE,3SD15I2WE5AO7614M34OSYMJOYM362,3NVC2EB65UFTC994IO4I092ZHKE3YY,2,1
94,1,object_09,object_04,537.0,2,2,373.0,0.6666666666666666,2,object_07,1,1252,0,4,6,desert_1,1,memory-2step-stake-s,583,1857906,0.0-19.0-0.0-0.94,A2R6UQCQ8T3RZE,3SD15I2WE5AO7614M34OSYMJOYM362,3NVC2EB65UFTC994IO4I092ZHKE3YY,1,2
95,3,object_10,object_02,842.0,5,1,393.0,0.1111111111111111,1,object_05,5,1257,0,1,7,library_6,1,memory-2step-stake-s,584,1865726,0.0-19.0-0.0-0.95,A2R6UQCQ8T3RZE,3SD15I2WE5AO7614M34OSYMJOYM362,3NVC2EB65UFTC994IO4I092ZHKE3YY,5,6
96,3,object_10,object_02,851.0,5,1,993.0,0.3333333333333333,1,object_05,1,1260,0,3,9,library_6,1,memory-2step-stake-s,585,1874326,0.0-19.0-0.0-0.96,A2R6UQCQ8T3RZE,3SD15I2WE5AO7614M34OSYMJOYM362,3NVC2EB65UFTC994IO4I092ZHKE3YY,5,6
97,4,object_06,object_08,431.0,8,2,605.0,0.7777777777777778,2,object_07,1,1267,0,5,7,restaurant_7,1,memory-2step-stake-s,586,1883046,0.0-19.0-0.0-0.97,A2R6UQCQ8T3RZE,3SD15I2WE5AO7614M34OSYMJOYM362,3NVC2EB65UFTC994IO4I092ZHKE3YY,7,8
98,4,object_06,object_08,566.0,8,2,275.0,0.3333333333333333,2,object_07,5,1282,0,7,3,restaurant_3,1,memory-2step-stake-s,587,1890967,0.0-19.0-0.0-0.98,A2R6UQCQ8T3RZE,3SD15I2WE5AO7614M34OSYMJOYM362,3NVC2EB65UFTC994IO4I092ZHKE3YY,7,8
99,1,object_09,object_04,723.0,1,1,470.0,0.5555555555555556,1,object_05,5,1307,0,5,4,desert_1,1,memory-2step-stake-s,588,1899306,0.0-19.0-0.0-0.99,A2R6UQCQ8T3RZE,3SD15I2WE5AO7614M34OSYMJOYM362,3NVC2EB65UFTC994IO4I092ZHKE3YY,1,2
100,3,object_10,object_02,973.0,6,2,434.0,0.6666666666666666,2,object_07,5,1337,0,8,6,library_1,1,memory-2step-stake-s,589,1907707,0.0-19.0-0.0-0.100,A2R6UQCQ8T3RZE,3SD15I2WE5AO7614M34OSYMJOYM362,3NVC2EB65UFTC994IO4I092ZHKE3YY,5,6
101,1,object_09,object_04,769.0,2,2,291.0,0.4444444444444444,2,object_07,1,1341,0,8,4,desert_7,1,memory-2step-stake-s,590,1915727,0.0-19.0-0.0-0.101,A2R6UQCQ8T3RZE,3SD15I2WE5AO7614M34OSYMJOYM362,3NVC2EB65UFTC994IO4I092ZHKE3YY,1,2
102,1,object_04,object_09,538.0,2,1,641.0,0.6666666666666666,2,object_07,1,1347,0,8,6,desert_4,1,memory-2step-stake-s,591,1924327,0.0-19.0-0.0-0.102,A2R6UQCQ8T3RZE,3SD15I2WE5AO7614M34OSYMJOYM362,3NVC2EB65UFTC994IO4I092ZHKE3YY,2,1
103,3,object_02,object_10,1072.0,5,2,382.0,0.7777777777777778,1,object_05,5,1382,0,7,8,library_6,1,memory-2step-stake-s,592,1932788,0.0-19.0-0.0-0.103,A2R6UQCQ8T3RZE,3SD15I2WE5AO7614M34OSYMJOYM362,3NVC2EB65UFTC994IO4I092ZHKE3YY,6,5
104,1,object_09,object_04,651.0,2,2,514.0,0.6666666666666666,2,object_07,1,1388,0,5,6,desert_4,1,memory-2step-stake-s,593,1941287,0.0-19.0-0.0-0.104,A2R6UQCQ8T3RZE,3SD15I2WE5AO7614M34OSYMJOYM362,3NVC2EB65UFTC994IO4I092ZHKE3YY,1,2
105,1,object_04,object_09,835.0,1,2,238.0,0.8888888888888888,1,object_05,1,1396,0,8,5,desert_4,1,memory-2step-stake-s,594,1949688,0.0-19.0-0.0-0.105,A2R6UQCQ8T3RZE,3SD15I2WE5AO7614M34OSYMJOYM362,3NVC2EB65UFTC994IO4I092ZHKE3YY,2,1
106,4,object_08,object_06,643.0,8,1,301.0,1.0,2,object_07,1,1405,0,7,9,restaurant_2,1,memory-2step-stake-s,595,1958288,0.0-19.0-0.0-0.106,A2R6UQCQ8T3RZE,3SD15I2WE5AO7614M34OSYMJOYM362,3NVC2EB65UFTC994IO4I092ZHKE3YY,8,7
107,1,object_04,object_09,562.0,1,2,395.0,1.0,1,object_05,1,1414,0,9,6,desert_7,1,memory-2step-stake-s,596,1966928,0.0-19.0-0.0-0.107,A2R6UQCQ8T3RZE,3SD15I2WE5AO7614M34OSYMJOYM362,3NVC2EB65UFTC994IO4I092ZHKE3YY,2,1
108,1,object_09,object_04,528.0,1,1,272.0,1.0,1,object_05,1,1423,0,9,5,desert_4,1,memory-2step-stake-s,597,1975508,0.0-19.0-0.0-0.108,A2R6UQCQ8T3RZE,3SD15I2WE5AO7614M34OSYMJOYM362,3NVC2EB65UFTC994IO4I092ZHKE3YY,1,2
109,3,object_10,object_02,964.0,5,1,335.0,1.0,1,object_05,5,1468,0,9,4,library_7,1,memory-2step-stake-s,598,1984208,0.0-19.0-0.0-0.109,A2R6UQCQ8T3RZE,3SD15I2WE5AO7614M34OSYMJOYM362,3NVC2EB65UFTC994IO4I092ZHKE3YY,5,6
110,4,object_08,object_06,654.0,8,1,326.0,0.0,2,object_07,5,1468,0,8,0,restaurant_5,1,memory-2step-stake-s,599,1991828,0.0-19.0-0.0-0.110,A2R6UQCQ8T3RZE,3SD15I2WE5AO7614M34OSYMJOYM362,3NVC2EB65UFTC994IO4I092ZHKE3YY,8,7
111,1,object_04,object_09,531.0,1,2,449.0,0.8888888888888888,1,object_05,1,1476,0,8,2,desert_7,1,memory-2step-stake-s,600,2000509,0.0-19.0-0.0-0.111,A2R6UQCQ8T3RZE,3SD15I2WE5AO7614M34OSYMJOYM362,3NVC2EB65UFTC994IO4I092ZHKE3YY,2,1
112,3,object_02,object_10,956.0,6,1,298.0,0.4444444444444444,2,object_07,5,1496,0,8,4,library_6,1,memory-2step-stake-s,601,2008608,0.0-19.0-0.0-0.112,A2R6UQCQ8T3RZE,3SD15I2WE5AO7614M34OSYMJOYM362,3NVC2EB65UFTC994IO4I092ZHKE3YY,6,5
113,1,object_04,object_09,712.0,2,1,489.0,0.7777777777777778,2,object_07,1,1503,0,9,7,desert_8,1,memory-2step-stake-s,602,2017269,0.0-19.0-0.0-0.113,A2R6UQCQ8T3RZE,3SD15I2WE5AO7614M34OSYMJOYM362,3NVC2EB65UFTC994IO4I092ZHKE3YY,2,1
114,1,object_04,object_09,624.0,1,2,498.0,1.0,1,object_05,1,1512,0,9,4,desert_8,1,memory-2step-stake-s,603,2026149,0.0-19.0-0.0-0.114,A2R6UQCQ8T3RZE,3SD15I2WE5AO7614M34OSYMJOYM362,3NVC2EB65UFTC994IO4I092ZHKE3YY,2,1
115,3,object_10,object_02,894.0,6,2,445.0,0.4444444444444444,2,object_07,5,1532,0,9,4,library_5,1,memory-2step-stake-s,604,2034329,0.0-19.0-0.0-0.115,A2R6UQCQ8T3RZE,3SD15I2WE5AO7614M34OSYMJOYM362,3NVC2EB65UFTC994IO4I092ZHKE3YY,5,6
116,2,object_03,object_01,487.0,4,1,328.0,0.3333333333333333,2,object_07,1,1535,0,6,3,forest_8,1,memory-2step-stake-s,605,2042309,0.0-19.0-0.0-0.116,A2R6UQCQ8T3RZE,3SD15I2WE5AO7614M34OSYMJOYM362,3NVC2EB65UFTC994IO4I092ZHKE3YY,4,3
117,1,object_04,object_09,634.0,1,2,349.0,0.6666666666666666,1,object_05,1,1541,0,6,0,desert_1,1,memory-2step-stake-s,606,2050670,0.0-19.0-0.0-0.117,A2R6UQCQ8T3RZE,3SD15I2WE5AO7614M34OSYMJOYM362,3NVC2EB65UFTC994IO4I092ZHKE3YY,2,1
118,2,object_03,object_01,831.0,3,2,525.0,0.6666666666666666,1,object_05,1,1547,0,6,0,forest_3,1,memory-2step-stake-s,607,2059190,0.0-19.0-0.0-0.118,A2R6UQCQ8T3RZE,3SD15I2WE5AO7614M34OSYMJOYM362,3NVC2EB65UFTC994IO4I092ZHKE3YY,4,3
119,2,object_03,object_01,568.0,4,1,225.0,0.1111111111111111,2,object_07,1,1548,0,7,1,forest_6,1,memory-2step-stake-s,608,2066810,0.0-19.0-0.0-0.119,A2R6UQCQ8T3RZE,3SD15I2WE5AO7614M34OSYMJOYM362,3NVC2EB65UFTC994IO4I092ZHKE3YY,4,3
120,2,object_03,object_01,545.0,3,2,421.0,0.8888888888888888,1,object_05,1,1556,0,8,7,forest_2,1,memory-2step-stake-s,609,2075450,0.0-19.0-0.0-0.120,A2R6UQCQ8T3RZE,3SD15I2WE5AO7614M34OSYMJOYM362,3NVC2EB65UFTC994IO4I092ZHKE3YY,4,3
121,1,object_09,object_04,564.0,2,2,484.0,1.0,2,object_07,5,1601,0,7,9,desert_4,1,memory-2step-stake-s,610,2084310,0.0-19.0-0.0-0.121,A2R6UQCQ8T3RZE,3SD15I2WE5AO7614M34OSYMJOYM362,3NVC2EB65UFTC994IO4I092ZHKE3YY,1,2
122,4,object_08,object_06,1090.0,7,2,370.0,0.8888888888888888,1,object_05,5,1641,0,8,7,restaurant_3,1,memory-2step-stake-s,611,2092870,0.0-19.0-0.0-0.122,A2R6UQCQ8T3RZE,3SD15I2WE5AO7614M34OSYMJOYM362,3NVC2EB65UFTC994IO4I092ZHKE3YY,8,7
123,3,object_10,object_02,606.0,6,2,121.0,0.3333333333333333,2,object_07,5,1656,0,9,3,library_6,1,memory-2step-stake-s,612,2100670,0.0-19.0-0.0-0.123,A2R6UQCQ8T3RZE,3SD15I2WE5AO7614M34OSYMJOYM362,3NVC2EB65UFTC994IO4I092ZHKE3YY,5,6
124,4,object_08,object_06,499.0,8,1,301.0,0.4444444444444444,2,object_07,5,1676,0,7,4,restaurant_2,1,memory-2step-stake-s,613,2108750,0.0-19.0-0.0-0.124,A2R6UQCQ8T3RZE,3SD15I2WE5AO7614M34OSYMJOYM362,3NVC2EB65UFTC994IO4I092ZHKE3YY,8,7
125,4,object_08,object_06,823.0,8,1,463.0,0.5555555555555556,2,object_07,5,1701,0,3,5,restaurant_5,1,memory-2step-stake-s,614,2117111,0.0-19.0-0.0-0.125,A2R6UQCQ8T3RZE,3SD15I2WE5AO7614M34OSYMJOYM362,3NVC2EB65UFTC994IO4I092ZHKE3YY,8,7
126,2,object_01,object_03,955.0,4,2,368.0,0.5555555555555556,2,object_07,5,1726,0,5,5,forest_3,1,memory-2step-stake-s,615,2125351,0.0-19.0-0.0-0.126,A2R6UQCQ8T3RZE,3SD15I2WE5AO7614M34OSYMJOYM362,3NVC2EB65UFTC994IO4I092ZHKE3YY,3,4
127,1,object_09,object_04,542.0,2,2,535.0,0.4444444444444444,2,object_07,1,1730,0,2,4,desert_1,1,memory-2step-stake-s,616,2133611,0.0-19.0-0.0-0.127,A2R6UQCQ8T3RZE,3SD15I2WE5AO7614M34OSYMJOYM362,3NVC2EB65UFTC994IO4I092ZHKE3YY,1,2
128,4,object_08,object_06,820.0,8,1,648.0,0.2222222222222222,2,object_07,1,1732,0,3,2,restaurant_3,1,memory-2step-stake-s,618,2453667,0.0-19.0-0.1-0.128,A2R6UQCQ8T3RZE,3SD15I2WE5AO7614M34OSYMJOYM362,3NVC2EB65UFTC994IO4I092ZHKE3YY,8,7
129,2,object_01,object_03,1075.0,4,2,448.0,0.3333333333333333,2,object_07,1,1735,0,2,3,forest_2,1,memory-2step-stake-s,619,2461727,0.0-19.0-0.1-0.129,A2R6UQCQ8T3RZE,3SD15I2WE5AO7614M34OSYMJOYM362,3NVC2EB65UFTC994IO4I092ZHKE3YY,3,4
130,2,object_03,object_01,525.0,3,2,331.0,0.1111111111111111,1,object_05,5,1740,0,1,1,forest_2,1,memory-2step-stake-s,620,2469447,0.0-19.0-0.1-0.130,A2R6UQCQ8T3RZE,3SD15I2WE5AO7614M34OSYMJOYM362,3NVC2EB65UFTC994IO4I092ZHKE3YY,4,3
131,4,object_06,object_08,435.0,7,1,510.0,0.1111111111111111,1,object_05,5,1745,0,1,1,restaurant_2,1,memory-2step-stake-s,621,2477407,0.0-19.0-0.1-0.131,A2R6UQCQ8T3RZE,3SD15I2WE5AO7614M34OSYMJOYM362,3NVC2EB65UFTC994IO4I092ZHKE3YY,7,8
132,4,object_08,object_06,530.0,8,1,422.0,0.0,2,object_07,5,1745,0,3,0,restaurant_5,1,memory-2step-stake-s,622,2485107,0.0-19.0-0.1-0.132,A2R6UQCQ8T3RZE,3SD15I2WE5AO7614M34OSYMJOYM362,3NVC2EB65UFTC994IO4I092ZHKE3YY,8,7
133,2,object_01,object_03,725.0,3,1,302.0,0.2222222222222222,1,object_05,1,1747,0,2,0,forest_8,1,memory-2step-stake-s,623,2492907,0.0-19.0-0.1-0.133,A2R6UQCQ8T3RZE,3SD15I2WE5AO7614M34OSYMJOYM362,3NVC2EB65UFTC994IO4I092ZHKE3YY,3,4
134,2,object_03,object_01,600.0,3,2,647.0,0.2222222222222222,1,object_05,1,1749,0,2,2,forest_6,1,memory-2step-stake-s,624,2501068,0.0-19.0-0.1-0.134,A2R6UQCQ8T3RZE,3SD15I2WE5AO7614M34OSYMJOYM362,3NVC2EB65UFTC994IO4I092ZHKE3YY,4,3
135,4,object_06,object_08,847.0,7,1,320.0,0.0,1,object_05,5,1749,0,0,3,restaurant_2,1,memory-2step-stake-s,625,2508708,0.0-19.0-0.1-0.135,A2R6UQCQ8T3RZE,3SD15I2WE5AO7614M34OSYMJOYM362,3NVC2EB65UFTC994IO4I092ZHKE3YY,7,8
136,1,object_04,object_09,670.0,1,2,325.0,0.1111111111111111,1,object_05,1,1750,0,1,4,desert_4,1,memory-2step-stake-s,626,2516428,0.0-19.0-0.1-0.136,A2R6UQCQ8T3RZE,3SD15I2WE5AO7614M34OSYMJOYM362,3NVC2EB65UFTC994IO4I092ZHKE3YY,2,1
137,4,object_08,object_06,889.0,7,2,362.0,0.1111111111111111,1,object_05,5,1755,0,1,7,restaurant_2,1,memory-2step-stake-s,627,2524208,0.0-19.0-0.1-0.137,A2R6UQCQ8T3RZE,3SD15I2WE5AO7614M34OSYMJOYM362,3NVC2EB65UFTC994IO4I092ZHKE3YY,8,7
138,2,object_03,object_01,682.0,3,2,321.0,0.0,1,object_05,1,1755,0,0,8,forest_2,1,memory-2step-stake-s,628,2531845,0.0-19.0-0.1-0.138,A2R6UQCQ8T3RZE,3SD15I2WE5AO7614M34OSYMJOYM362,3NVC2EB65UFTC994IO4I092ZHKE3YY,4,3
139,2,object_01,object_03,521.0,3,1,493.0,0.1111111111111111,1,object_05,1,1756,0,1,8,forest_2,1,memory-2step-stake-s,629,2539745,0.0-19.0-0.1-0.139,A2R6UQCQ8T3RZE,3SD15I2WE5AO7614M34OSYMJOYM362,3NVC2EB65UFTC994IO4I092ZHKE3YY,3,4
140,3,object_02,object_10,887.0,6,1,507.0,0.8888888888888888,2,object_07,5,1796,0,1,8,library_7,1,memory-2step-stake-s,630,2548429,0.0-19.0-0.1-0.140,A2R6UQCQ8T3RZE,3SD15I2WE5AO7614M34OSYMJOYM362,3NVC2EB65UFTC994IO4I092ZHKE3YY,6,5
141,1,object_04,object_09,512.0,1,2,385.0,0.3333333333333333,1,object_05,1,1799,0,3,9,desert_4,1,memory-2step-stake-s,631,2556488,0.0-19.0-0.1-0.141,A2R6UQCQ8T3RZE,3SD15I2WE5AO7614M34OSYMJOYM362,3NVC2EB65UFTC994IO4I092ZHKE3YY,2,1
142,1,object_04,object_09,666.0,2,1,533.0,1.0,2,object_07,5,1844,0,2,9,desert_4,1,memory-2step-stake-s,632,2565309,0.0-19.0-0.1-0.142,A2R6UQCQ8T3RZE,3SD15I2WE5AO7614M34OSYMJOYM362,3NVC2EB65UFTC994IO4I092ZHKE3YY,2,1
143,2,object_01,object_03,574.0,3,1,351.0,0.3333333333333333,1,object_05,1,1847,0,3,8,forest_2,1,memory-2step-stake-s,633,2573269,0.0-19.0-0.1-0.143,A2R6UQCQ8T3RZE,3SD15I2WE5AO7614M34OSYMJOYM362,3NVC2EB65UFTC994IO4I092ZHKE3YY,3,4
144,1,object_09,object_04,576.0,2,2,816.0,0.8888888888888888,2,object_07,5,1887,0,3,8,desert_8,1,memory-2step-stake-s,634,2582229,0.0-19.0-0.1-0.144,A2R6UQCQ8T3RZE,3SD15I2WE5AO7614M34OSYMJOYM362,3NVC2EB65UFTC994IO4I092ZHKE3YY,1,2
145,3,object_02,object_10,525.0,6,1,275.0,0.6666666666666666,2,object_07,5,1917,0,6,6,library_1,1,memory-2step-stake-s,635,2590489,0.0-19.0-0.1-0.145,A2R6UQCQ8T3RZE,3SD15I2WE5AO7614M34OSYMJOYM362,3NVC2EB65UFTC994IO4I092ZHKE3YY,6,5
146,3,object_02,object_10,749.0,5,2,468.0,0.6666666666666666,1,object_05,5,1947,0,6,7,library_5,1,memory-2step-stake-s,636,2598946,0.0-19.0-0.1-0.146,A2R6UQCQ8T3RZE,3SD15I2WE5AO7614M34OSYMJOYM362,3NVC2EB65UFTC994IO4I092ZHKE3YY,6,5
147,3,object_02,object_10,495.0,5,2,267.0,1.0,1,object_05,5,1992,0,9,6,library_1,1,memory-2step-stake-s,637,2607547,0.0-19.0-0.1-0.147,A2R6UQCQ8T3RZE,3SD15I2WE5AO7614M34OSYMJOYM362,3NVC2EB65UFTC994IO4I092ZHKE3YY,6,5
148,3,object_02,object_10,597.0,6,1,322.0,0.8888888888888888,2,object_07,5,2032,0,8,8,library_1,1,memory-2step-stake-s,638,2616030,0.0-19.0-0.1-0.148,A2R6UQCQ8T3RZE,3SD15I2WE5AO7614M34OSYMJOYM362,3NVC2EB65UFTC994IO4I092ZHKE3YY,6,5
149,4,object_06,object_08,569.0,8,2,366.0,0.8888888888888888,2,object_07,5,2072,0,8,8,restaurant_7,1,memory-2step-stake-s,639,2624670,0.0-19.0-0.1-0.149,A2R6UQCQ8T3RZE,3SD15I2WE5AO7614M34OSYMJOYM362,3NVC2EB65UFTC994IO4I092ZHKE3YY,7,8
150,3,object_10,object_02,524.0,5,1,311.0,0.5555555555555556,1,object_05,1,2077,0,5,9,library_5,1,memory-2step-stake-s,640,2632847,0.0-19.0-0.1-0.150,A2R6UQCQ8T3RZE,3SD15I2WE5AO7614M34OSYMJOYM362,3NVC2EB65UFTC994IO4I092ZHKE3YY,5,6
151,4,object_06,object_08,559.0,8,2,294.0,0.8888888888888888,2,object_07,5,2117,0,6,8,restaurant_7,1,memory-2step-stake-s,641,2641390,0.0-19.0-0.1-0.151,A2R6UQCQ8T3RZE,3SD15I2WE5AO7614M34OSYMJOYM362,3NVC2EB65UFTC994IO4I092ZHKE3YY,7,8
152,3,object_10,object_02,491.0,6,2,300.0,0.7777777777777778,2,object_07,5,2152,0,8,7,library_6,1,memory-2step-stake-s,642,2649790,0.0-19.0-0.1-0.152,A2R6UQCQ8T3RZE,3SD15I2WE5AO7614M34OSYMJOYM362,3NVC2EB65UFTC994IO4I092ZHKE3YY,5,6
153,1,object_04,object_09,831.0,1,2,344.0,0.5555555555555556,1,object_05,5,2177,0,5,8,desert_1,1,memory-2step-stake-s,643,2658030,0.0-19.0-0.1-0.153,A2R6UQCQ8T3RZE,3SD15I2WE5AO7614M34OSYMJOYM362,3NVC2EB65UFTC994IO4I092ZHKE3YY,2,1
154,4,object_08,object_06,652.0,7,2,336.0,0.5555555555555556,1,object_05,5,2202,0,5,7,restaurant_7,1,memory-2step-stake-s,644,2666247,0.0-19.0-0.1-0.154,A2R6UQCQ8T3RZE,3SD15I2WE5AO7614M34OSYMJOYM362,3NVC2EB65UFTC994IO4I092ZHKE3YY,8,7
155,3,object_02,object_10,510.0,6,1,389.0,0.7777777777777778,2,object_07,5,2237,0,7,7,library_5,1,memory-2step-stake-s,645,2674790,0.0-19.0-0.1-0.155,A2R6UQCQ8T3RZE,3SD15I2WE5AO7614M34OSYMJOYM362,3NVC2EB65UFTC994IO4I092ZHKE3YY,6,5
156,2,object_01,object_03,699.0,4,2,343.0,1.0,2,object_07,1,2246,0,8,9,forest_8,1,memory-2step-stake-s,646,2683431,0.0-19.0-0.1-0.156,A2R6UQCQ8T3RZE,3SD15I2WE5AO7614M34OSYMJOYM362,3NVC2EB65UFTC994IO4I092ZHKE3YY,3,4
157,3,object_02,object_10,481.0,6,1,274.0,0.7777777777777778,2,object_07,5,2281,0,8,7,library_6,1,memory-2step-stake-s,647,2691871,0.0-19.0-0.1-0.157,A2R6UQCQ8T3RZE,3SD15I2WE5AO7614M34OSYMJOYM362,3NVC2EB65UFTC994IO4I092ZHKE3YY,6,5
158,1,object_04,object_09,730.0,2,1,340.0,0.3333333333333333,2,object_07,1,2284,0,8,3,desert_7,1,memory-2step-stake-s,648,2699849,0.0-19.0-0.1-0.158,A2R6UQCQ8T3RZE,3SD15I2WE5AO7614M34OSYMJOYM362,3NVC2EB65UFTC994IO4I092ZHKE3YY,2,1
159,3,object_10,object_02,419.0,5,1,326.0,0.8888888888888888,1,object_05,5,2324,0,8,2,library_6,1,memory-2step-stake-s,649,2708348,0.0-19.0-0.1-0.159,A2R6UQCQ8T3RZE,3SD15I2WE5AO7614M34OSYMJOYM362,3NVC2EB65UFTC994IO4I092ZHKE3YY,5,6
160,3,object_02,object_10,513.0,5,2,365.0,0.6666666666666666,1,object_05,5,2354,0,6,3,library_7,1,memory-2step-stake-s,650,2716731,0.0-19.0-0.1-0.160,A2R6UQCQ8T3RZE,3SD15I2WE5AO7614M34OSYMJOYM362,3NVC2EB65UFTC994IO4I092ZHKE3YY,6,5
161,3,object_02,object_10,519.0,6,1,290.0,0.3333333333333333,2,object_07,5,2369,0,6,3,library_1,1,memory-2step-stake-s,651,2724648,0.0-19.0-0.1-0.161,A2R6UQCQ8T3RZE,3SD15I2WE5AO7614M34OSYMJOYM362,3NVC2EB65UFTC994IO4I092ZHKE3YY,6,5
162,2,object_01,object_03,461.0,4,2,292.0,0.1111111111111111,2,object_07,1,2370,0,6,1,forest_3,1,memory-2step-stake-s,652,2732332,0.0-19.0-0.1-0.162,A2R6UQCQ8T3RZE,3SD15I2WE5AO7614M34OSYMJOYM362,3NVC2EB65UFTC994IO4I092ZHKE3YY,3,4
163,3,object_02,object_10,704.0,6,1,368.0,0.0,2,object_07,5,2370,0,5,0,library_5,1,memory-2step-stake-s,653,2739972,0.0-19.0-0.1-0.163,A2R6UQCQ8T3RZE,3SD15I2WE5AO7614M34OSYMJOYM362,3NVC2EB65UFTC994IO4I092ZHKE3YY,6,5
164,4,object_06,object_08,650.0,8,2,392.0,0.2222222222222222,2,object_07,5,2380,0,4,2,restaurant_2,1,memory-2step-stake-s,654,2747892,0.0-19.0-0.1-0.164,A2R6UQCQ8T3RZE,3SD15I2WE5AO7614M34OSYMJOYM362,3NVC2EB65UFTC994IO4I092ZHKE3YY,7,8
165,2,object_03,object_01,527.0,4,1,303.0,0.1111111111111111,2,object_07,1,2381,0,8,1,forest_8,1,memory-2step-stake-s,655,2755592,0.0-19.0-0.1-0.165,A2R6UQCQ8T3RZE,3SD15I2WE5AO7614M34OSYMJOYM362,3NVC2EB65UFTC994IO4I092ZHKE3YY,4,3
166,2,object_01,object_03,1047.0,4,2,353.0,0.1111111111111111,2,object_07,1,2382,0,5,1,forest_6,1,memory-2step-stake-s,656,2763333,0.0-19.0-0.1-0.166,A2R6UQCQ8T3RZE,3SD15I2WE5AO7614M34OSYMJOYM362,3NVC2EB65UFTC994IO4I092ZHKE3YY,3,4
167,3,object_02,object_10,569.0,6,1,496.0,0.0,2,object_07,5,2382,0,4,0,library_7,1,memory-2step-stake-s,657,2771113,0.0-19.0-0.1-0.167,A2R6UQCQ8T3RZE,3SD15I2WE5AO7614M34OSYMJOYM362,3NVC2EB65UFTC994IO4I092ZHKE3YY,6,5
168,4,object_06,object_08,443.0,7,1,390.0,0.1111111111111111,1,object_05,1,2383,0,1,4,restaurant_2,1,memory-2step-stake-s,658,2778932,0.0-19.0-0.1-0.168,A2R6UQCQ8T3RZE,3SD15I2WE5AO7614M34OSYMJOYM362,3NVC2EB65UFTC994IO4I092ZHKE3YY,7,8
169,2,object_01,object_03,547.0,3,1,369.0,0.1111111111111111,1,object_05,1,2384,0,1,4,forest_3,1,memory-2step-stake-s,659,2786733,0.0-19.0-0.1-0.169,A2R6UQCQ8T3RZE,3SD15I2WE5AO7614M34OSYMJOYM362,3NVC2EB65UFTC994IO4I092ZHKE3YY,3,4
170,4,object_06,object_08,1022.0,7,1,540.0,0.2222222222222222,1,object_05,5,2394,0,2,7,restaurant_3,1,memory-2step-stake-s,660,2794793,0.0-19.0-0.1-0.170,A2R6UQCQ8T3RZE,3SD15I2WE5AO7614M34OSYMJOYM362,3NVC2EB65UFTC994IO4I092ZHKE3YY,7,8
171,2,object_03,object_01,666.0,4,1,333.0,0.8888888888888888,2,object_07,1,2402,0,0,8,forest_6,1,memory-2step-stake-s,661,2803393,0.0-19.0-0.1-0.171,A2R6UQCQ8T3RZE,3SD15I2WE5AO7614M34OSYMJOYM362,3NVC2EB65UFTC994IO4I092ZHKE3YY,4,3
172,3,object_10,object_02,724.0,5,1,362.0,0.1111111111111111,1,object_05,5,2407,0,1,4,library_6,1,memory-2step-stake-s,662,2811173,0.0-19.0-0.1-0.172,A2R6UQCQ8T3RZE,3SD15I2WE5AO7614M34OSYMJOYM362,3NVC2EB65UFTC994IO4I092ZHKE3YY,5,6
173,4,object_08,object_06,485.0,8,1,323.0,0.3333333333333333,2,object_07,1,2410,0,0,3,restaurant_5,1,memory-2step-stake-s,663,2819150,0.0-19.0-0.1-0.173,A2R6UQCQ8T3RZE,3SD15I2WE5AO7614M34OSYMJOYM362,3NVC2EB65UFTC994IO4I092ZHKE3YY,8,7
174,4,object_06,object_08,562.0,7,1,298.0,0.1111111111111111,1,object_05,5,2415,0,1,5,restaurant_2,1,memory-2step-stake-s,664,2826834,0.0-19.0-0.1-0.174,A2R6UQCQ8T3RZE,3SD15I2WE5AO7614M34OSYMJOYM362,3NVC2EB65UFTC994IO4I092ZHKE3YY,7,8
175,4,object_08,object_06,733.0,7,2,532.0,0.3333333333333333,1,object_05,1,2418,0,3,7,restaurant_2,1,memory-2step-stake-s,665,2835051,0.0-19.0-0.1-0.175,A2R6UQCQ8T3RZE,3SD15I2WE5AO7614M34OSYMJOYM362,3NVC2EB65UFTC994IO4I092ZHKE3YY,8,7
176,3,object_10,object_02,607.0,5,1,326.0,0.6666666666666666,1,object_05,1,2424,0,6,7,library_7,1,memory-2step-stake-s,666,2843394,0.0-19.0-0.1-0.176,A2R6UQCQ8T3RZE,3SD15I2WE5AO7614M34OSYMJOYM362,3NVC2EB65UFTC994IO4I092ZHKE3YY,5,6
177,4,object_06,object_08,961.0,8,2,395.0,0.8888888888888888,2,object_07,5,2464,0,3,8,restaurant_2,1,memory-2step-stake-s,667,2851951,0.0-19.0-0.1-0.177,A2R6UQCQ8T3RZE,3SD15I2WE5AO7614M34OSYMJOYM362,3NVC2EB65UFTC994IO4I092ZHKE3YY,7,8
178,2,object_01,object_03,359.0,3,1,257.0,0.4444444444444444,1,object_05,1,2468,0,4,8,forest_3,1,memory-2step-stake-s,668,2859951,0.0-19.0-0.1-0.178,A2R6UQCQ8T3RZE,3SD15I2WE5AO7614M34OSYMJOYM362,3NVC2EB65UFTC994IO4I092ZHKE3YY,3,4
179,3,object_02,object_10,734.0,6,1,455.0,0.7777777777777778,2,object_07,5,2503,0,3,7,library_1,1,memory-2step-stake-s,669,2868435,0.0-19.0-0.1-0.179,A2R6UQCQ8T3RZE,3SD15I2WE5AO7614M34OSYMJOYM362,3NVC2EB65UFTC994IO4I092ZHKE3YY,6,5
180,4,object_06,object_08,1385.0,8,2,459.0,0.6666666666666666,2,object_07,5,2533,0,3,6,restaurant_5,1,memory-2step-stake-s,670,2876914,0.0-19.0-0.1-0.180,A2R6UQCQ8T3RZE,3SD15I2WE5AO7614M34OSYMJOYM362,3NVC2EB65UFTC994IO4I092ZHKE3YY,7,8
181,4,object_06,object_08,787.0,7,1,339.0,0.5555555555555556,1,object_05,5,2558,0,5,9,restaurant_2,1,memory-2step-stake-s,671,2885152,0.0-19.0-0.1-0.181,A2R6UQCQ8T3RZE,3SD15I2WE5AO7614M34OSYMJOYM362,3NVC2EB65UFTC994IO4I092ZHKE3YY,7,8
182,1,object_04,object_09,806.0,1,2,281.0,0.4444444444444444,1,object_05,1,2562,0,4,7,desert_1,1,memory-2step-stake-s,672,2893195,0.0-19.0-0.1-0.182,A2R6UQCQ8T3RZE,3SD15I2WE5AO7614M34OSYMJOYM362,3NVC2EB65UFTC994IO4I092ZHKE3YY,2,1
183,1,object_09,object_04,603.0,1,1,304.0,0.3333333333333333,1,object_05,5,2577,0,3,5,desert_7,1,memory-2step-stake-s,673,2901135,0.0-19.0-0.1-0.183,A2R6UQCQ8T3RZE,3SD15I2WE5AO7614M34OSYMJOYM362,3NVC2EB65UFTC994IO4I092ZHKE3YY,1,2
184,1,object_04,object_09,549.0,1,2,287.0,0.5555555555555556,1,object_05,1,2582,0,5,5,desert_7,1,memory-2step-stake-s,674,2909315,0.0-19.0-0.1-0.184,A2R6UQCQ8T3RZE,3SD15I2WE5AO7614M34OSYMJOYM362,3NVC2EB65UFTC994IO4I092ZHKE3YY,2,1
185,4,object_08,object_06,645.0,7,2,368.0,0.3333333333333333,1,object_05,1,2585,0,3,5,restaurant_7,1,memory-2step-stake-s,675,2917353,0.0-19.0-0.1-0.185,A2R6UQCQ8T3RZE,3SD15I2WE5AO7614M34OSYMJOYM362,3NVC2EB65UFTC994IO4I092ZHKE3YY,8,7
186,4,object_06,object_08,426.0,7,1,277.0,0.3333333333333333,1,object_05,1,2588,0,3,2,restaurant_7,1,memory-2step-stake-s,676,2925253,0.0-19.0-0.1-0.186,A2R6UQCQ8T3RZE,3SD15I2WE5AO7614M34OSYMJOYM362,3NVC2EB65UFTC994IO4I092ZHKE3YY,7,8
187,2,object_03,object_01,415.0,4,1,277.0,0.1111111111111111,2,object_07,1,2589,0,3,1,forest_3,1,memory-2step-stake-s,677,2932953,0.0-19.0-0.1-0.187,A2R6UQCQ8T3RZE,3SD15I2WE5AO7614M34OSYMJOYM362,3NVC2EB65UFTC994IO4I092ZHKE3YY,4,3
188,1,object_04,object_09,430.0,2,1,719.0,0.0,2,object_07,1,2589,0,1,0,desert_8,1,memory-2step-stake-s,678,2940976,0.0-19.0-0.1-0.188,A2R6UQCQ8T3RZE,3SD15I2WE5AO7614M34OSYMJOYM362,3NVC2EB65UFTC994IO4I092ZHKE3YY,2,1
189,2,object_01,object_03,711.0,3,1,-1.0,0.0,1,object_05,1,2589,0,2,2,forest_3,1,memory-2step-stake-s,679,2949596,0.0-19.0-0.1-0.189,A2R6UQCQ8T3RZE,3SD15I2WE5AO7614M34OSYMJOYM362,3NVC2EB65UFTC994IO4I092ZHKE3YY,3,4
190,4,object_08,object_06,786.0,7,2,500.0,0.2222222222222222,1,object_05,5,2599,0,2,1,restaurant_7,1,memory-2step-stake-s,680,2957615,0.0-19.0-0.1-0.190,A2R6UQCQ8T3RZE,3SD15I2WE5AO7614M34OSYMJOYM362,3NVC2EB65UFTC994IO4I092ZHKE3YY,8,7
191,3,object_02,object_10,666.0,6,1,859.0,0.2222222222222222,2,object_07,5,2609,0,2,2,library_5,1,memory-2step-stake-s,681,2966016,0.0-19.0-0.1-0.191,A2R6UQCQ8T3RZE,3SD15I2WE5AO7614M34OSYMJOYM362,3NVC2EB65UFTC994IO4I092ZHKE3YY,6,5
192,4,object_06,object_08,677.0,7,1,396.0,0.6666666666666666,1,object_05,5,2639,0,6,3,restaurant_5,1,memory-2step-stake-s,682,2974416,0.0-19.0-0.1-0.192,A2R6UQCQ8T3RZE,3SD15I2WE5AO7614M34OSYMJOYM362,3NVC2EB65UFTC994IO4I092ZHKE3YY,7,8
193,2,object_01,object_03,707.0,3,1,310.0,0.6666666666666666,1,object_05,5,2669,0,6,4,forest_6,1,memory-2step-stake-s,683,2982697,0.0-19.0-0.1-0.193,A2R6UQCQ8T3RZE,3SD15I2WE5AO7614M34OSYMJOYM362,3NVC2EB65UFTC994IO4I092ZHKE3YY,3,4
194,1,object_09,object_04,589.0,1,1,289.0,0.7777777777777778,1,object_05,1,2676,0,7,5,desert_1,1,memory-2step-stake-s,684,2991096,0.0-19.0-0.1-0.194,A2R6UQCQ8T3RZE,3SD15I2WE5AO7614M34OSYMJOYM362,3NVC2EB65UFTC994IO4I092ZHKE3YY,1,2
195,1,object_09,object_04,957.0,1,1,342.0,0.7777777777777778,1,object_05,1,2683,0,7,7,desert_1,1,memory-2step-stake-s,685,2999556,0.0-19.0-0.1-0.195,A2R6UQCQ8T3RZE,3SD15I2WE5AO7614M34OSYMJOYM362,3NVC2EB65UFTC994IO4I092ZHKE3YY,1,2
196,1,object_09,object_04,439.0,1,1,274.0,0.7777777777777778,1,object_05,1,2690,0,7,7,desert_4,1,memory-2step-stake-s,686,3007977,0.0-19.0-0.1-0.196,A2R6UQCQ8T3RZE,3SD15I2WE5AO7614M34OSYMJOYM362,3NVC2EB65UFTC994IO4I092ZHKE3YY,1,2
197,3,object_10,object_02,596.0,5,1,469.0,0.8888888888888888,1,object_05,5,2730,0,8,7,library_1,1,memory-2step-stake-s,687,3016677,0.0-19.0-0.1-0.197,A2R6UQCQ8T3RZE,3SD15I2WE5AO7614M34OSYMJOYM362,3NVC2EB65UFTC994IO4I092ZHKE3YY,5,6
198,2,object_01,object_03,728.0,3,1,263.0,0.6666666666666666,1,object_05,1,2736,0,6,3,forest_6,1,memory-2step-stake-s,688,3024957,0.0-19.0-0.1-0.198,A2R6UQCQ8T3RZE,3SD15I2WE5AO7614M34OSYMJOYM362,3NVC2EB65UFTC994IO4I092ZHKE3YY,3,4
199,1,object_04,object_09,985.0,2,1,401.0,0.5555555555555556,2,object_07,5,2761,0,6,5,desert_4,1,memory-2step-stake-s,689,3033217,0.0-19.0-0.1-0.199,A2R6UQCQ8T3RZE,3SD15I2WE5AO7614M34OSYMJOYM362,3NVC2EB65UFTC994IO4I092ZHKE3YY,2,1
200,2,object_03,object_01,876.0,3,2,318.0,0.4444444444444444,1,object_05,5,2781,0,4,8,forest_2,1,memory-2step-stake-s,690,3041278,0.0-19.0-0.1-0.200,A2R6UQCQ8T3RZE,3SD15I2WE5AO7614M34OSYMJOYM362,3NVC2EB65UFTC994IO4I092ZHKE3YY,4,3
201,4,object_08,object_06,646.0,7,2,332.0,0.3333333333333333,1,object_05,5,2796,0,3,7,restaurant_7,1,memory-2step-stake-s,691,3049237,0.0-19.0-0.1-0.201,A2R6UQCQ8T3RZE,3SD15I2WE5AO7614M34OSYMJOYM362,3NVC2EB65UFTC994IO4I092ZHKE3YY,8,7
202,4,object_06,object_08,469.0,8,2,276.0,0.4444444444444444,2,object_07,5,2816,0,7,4,restaurant_3,1,memory-2step-stake-s,692,3057298,0.0-19.0-0.1-0.202,A2R6UQCQ8T3RZE,3SD15I2WE5AO7614M34OSYMJOYM362,3NVC2EB65UFTC994IO4I092ZHKE3YY,7,8
203,1,object_09,object_04,1053.0,1,1,397.0,0.7777777777777778,1,object_05,1,2823,0,7,5,desert_8,1,memory-2step-stake-s,693,3065798,0.0-19.0-0.1-0.203,A2R6UQCQ8T3RZE,3SD15I2WE5AO7614M34OSYMJOYM362,3NVC2EB65UFTC994IO4I092ZHKE3YY,1,2
204,4,object_06,object_08,761.0,7,1,423.0,0.3333333333333333,1,object_05,5,2838,0,3,4,restaurant_7,1,memory-2step-stake-s,694,3073858,0.0-19.0-0.1-0.204,A2R6UQCQ8T3RZE,3SD15I2WE5AO7614M34OSYMJOYM362,3NVC2EB65UFTC994IO4I092ZHKE3YY,7,8
205,3,object_02,object_10,873.0,5,2,335.0,0.1111111111111111,1,object_05,5,2843,0,1,1,library_7,1,memory-2step-stake-s,695,3081618,0.0-19.0-0.1-0.205,A2R6UQCQ8T3RZE,3SD15I2WE5AO7614M34OSYMJOYM362,3NVC2EB65UFTC994IO4I092ZHKE3YY,6,5
206,2,object_03,object_01,746.0,3,2,386.0,0.3333333333333333,1,object_05,1,2846,0,3,1,forest_6,1,memory-2step-stake-s,696,3089658,0.0-19.0-0.1-0.206,A2R6UQCQ8T3RZE,3SD15I2WE5AO7614M34OSYMJOYM362,3NVC2EB65UFTC994IO4I092ZHKE3YY,4,3
207,2,object_01,object_03,451.0,3,1,185.0,0.1111111111111111,1,object_05,1,2847,0,1,0,forest_3,1,memory-2step-stake-s,697,3097298,0.0-19.0-0.1-0.207,A2R6UQCQ8T3RZE,3SD15I2WE5AO7614M34OSYMJOYM362,3NVC2EB65UFTC994IO4I092ZHKE3YY,3,4
208,2,object_03,object_01,521.0,4,1,278.0,0.1111111111111111,2,object_07,1,2848,0,0,1,forest_8,1,memory-2step-stake-s,698,3104939,0.0-19.0-0.1-0.208,A2R6UQCQ8T3RZE,3SD15I2WE5AO7614M34OSYMJOYM362,3NVC2EB65UFTC994IO4I092ZHKE3YY,4,3
209,2,object_01,object_03,378.0,4,2,258.0,0.3333333333333333,2,object_07,1,2851,0,3,3,forest_3,1,memory-2step-stake-s,699,3112819,0.0-19.0-0.1-0.209,A2R6UQCQ8T3RZE,3SD15I2WE5AO7614M34OSYMJOYM362,3NVC2EB65UFTC994IO4I092ZHKE3YY,3,4
210,3,object_02,object_10,789.0,6,1,348.0,0.0,2,object_07,5,2851,0,3,0,library_5,1,memory-2step-stake-s,700,3120478,0.0-19.0-0.1-0.210,A2R6UQCQ8T3RZE,3SD15I2WE5AO7614M34OSYMJOYM362,3NVC2EB65UFTC994IO4I092ZHKE3YY,6,5
211,2,object_03,object_01,978.0,3,2,384.0,0.5555555555555556,1,object_05,5,2876,0,5,2,forest_8,1,memory-2step-stake-s,701,3128779,0.0-19.0-0.1-0.211,A2R6UQCQ8T3RZE,3SD15I2WE5AO7614M34OSYMJOYM362,3NVC2EB65UFTC994IO4I092ZHKE3YY,4,3
212,3,object_02,object_10,415.0,5,2,277.0,0.5555555555555556,1,object_05,5,2901,0,5,2,library_6,1,memory-2step-stake-s,702,3136919,0.0-19.0-0.1-0.212,A2R6UQCQ8T3RZE,3SD15I2WE5AO7614M34OSYMJOYM362,3NVC2EB65UFTC994IO4I092ZHKE3YY,6,5
213,1,object_09,object_04,873.0,1,1,374.0,0.4444444444444444,1,object_05,1,2905,0,4,2,desert_7,1,memory-2step-stake-s,703,3145059,0.0-19.0-0.1-0.213,A2R6UQCQ8T3RZE,3SD15I2WE5AO7614M34OSYMJOYM362,3NVC2EB65UFTC994IO4I092ZHKE3YY,1,2
214,2,object_03,object_01,600.0,3,2,277.0,0.6666666666666666,1,object_05,1,2911,0,6,5,forest_8,1,memory-2step-stake-s,704,3153339,0.0-19.0-0.1-0.214,A2R6UQCQ8T3RZE,3SD15I2WE5AO7614M34OSYMJOYM362,3NVC2EB65UFTC994IO4I092ZHKE3YY,4,3
215,1,object_09,object_04,357.0,1,1,247.0,1.0,1,object_05,1,2920,0,9,3,desert_8,1,memory-2step-stake-s,705,3161940,0.0-19.0-0.1-0.215,A2R6UQCQ8T3RZE,3SD15I2WE5AO7614M34OSYMJOYM362,3NVC2EB65UFTC994IO4I092ZHKE3YY,1,2
216,2,object_03,object_01,393.0,3,2,290.0,0.7777777777777778,1,object_05,5,2955,0,7,3,forest_6,1,memory-2step-stake-s,706,3170320,0.0-19.0-0.1-0.216,A2R6UQCQ8T3RZE,3SD15I2WE5AO7614M34OSYMJOYM362,3NVC2EB65UFTC994IO4I092ZHKE3YY,4,3
217,3,object_02,object_10,512.0,5,2,200.0,0.6666666666666666,1,object_05,5,2985,0,6,3,library_7,1,memory-2step-stake-s,707,3178520,0.0-19.0-0.1-0.217,A2R6UQCQ8T3RZE,3SD15I2WE5AO7614M34OSYMJOYM362,3NVC2EB65UFTC994IO4I092ZHKE3YY,6,5
218,4,object_08,object_06,1092.0,7,2,317.0,0.7777777777777778,1,object_05,5,3020,0,7,1,restaurant_5,1,memory-2step-stake-s,708,3186980,0.0-19.0-0.1-0.218,A2R6UQCQ8T3RZE,3SD15I2WE5AO7614M34OSYMJOYM362,3NVC2EB65UFTC994IO4I092ZHKE3YY,8,7
219,1,object_04,object_09,467.0,1,2,249.0,0.6666666666666666,1,object_05,5,3050,0,6,0,desert_1,1,memory-2step-stake-s,709,3195240,0.0-19.0-0.1-0.219,A2R6UQCQ8T3RZE,3SD15I2WE5AO7614M34OSYMJOYM362,3NVC2EB65UFTC994IO4I092ZHKE3YY,2,1
220,3,object_10,object_02,418.0,5,1,341.0,0.6666666666666666,1,object_05,5,3080,0,6,3,library_1,1,memory-2step-stake-s,710,3203621,0.0-19.0-0.1-0.220,A2R6UQCQ8T3RZE,3SD15I2WE5AO7614M34OSYMJOYM362,3NVC2EB65UFTC994IO4I092ZHKE3YY,5,6
221,4,object_08,object_06,1022.0,7,2,402.0,0.6666666666666666,1,object_05,1,3086,0,6,4,restaurant_3,1,memory-2step-stake-s,711,3212060,0.0-19.0-0.1-0.221,A2R6UQCQ8T3RZE,3SD15I2WE5AO7614M34OSYMJOYM362,3NVC2EB65UFTC994IO4I092ZHKE3YY,8,7
222,1,object_04,object_09,713.0,1,2,282.0,0.8888888888888888,1,object_05,1,3094,0,8,1,desert_1,1,memory-2step-stake-s,712,3220621,0.0-19.0-0.1-0.222,A2R6UQCQ8T3RZE,3SD15I2WE5AO7614M34OSYMJOYM362,3NVC2EB65UFTC994IO4I092ZHKE3YY,2,1
223,4,object_06,object_08,533.0,7,1,329.0,0.7777777777777778,1,object_05,5,3129,0,7,1,restaurant_5,1,memory-2step-stake-s,713,3229081,0.0-19.0-0.1-0.223,A2R6UQCQ8T3RZE,3SD15I2WE5AO7614M34OSYMJOYM362,3NVC2EB65UFTC994IO4I092ZHKE3YY,7,8
224,2,object_01,object_03,744.0,3,1,319.0,0.8888888888888888,1,object_05,1,3137,0,8,2,forest_2,1,memory-2step-stake-s,714,3237641,0.0-19.0-0.1-0.224,A2R6UQCQ8T3RZE,3SD15I2WE5AO7614M34OSYMJOYM362,3NVC2EB65UFTC994IO4I092ZHKE3YY,3,4
225,3,object_02,object_10,720.0,5,2,275.0,1.0,1,object_05,1,3146,0,9,1,library_6,1,memory-2step-stake-s,715,3246261,0.0-19.0-0.1-0.225,A2R6UQCQ8T3RZE,3SD15I2WE5AO7614M34OSYMJOYM362,3NVC2EB65UFTC994IO4I092ZHKE3YY,6,5
226,3,object_02,object_10,421.0,5,2,259.0,0.7777777777777778,1,object_05,5,3181,0,7,1,library_6,1,memory-2step-stake-s,716,3254662,0.0-19.0-0.1-0.226,A2R6UQCQ8T3RZE,3SD15I2WE5AO7614M34OSYMJOYM362,3NVC2EB65UFTC994IO4I092ZHKE3YY,6,5
227,3,object_02,object_10,449.0,5,2,270.0,1.0,1,object_05,1,3190,0,9,4,library_5,1,memory-2step-stake-s,717,3263301,0.0-19.0-0.1-0.227,A2R6UQCQ8T3RZE,3SD15I2WE5AO7614M34OSYMJOYM362,3NVC2EB65UFTC994IO4I092ZHKE3YY,6,5
228,2,object_01,object_03,429.0,3,1,772.0,0.2222222222222222,1,object_05,1,3192,0,2,4,forest_2,1,memory-2step-stake-s,718,3271561,0.0-19.0-0.1-0.228,A2R6UQCQ8T3RZE,3SD15I2WE5AO7614M34OSYMJOYM362,3NVC2EB65UFTC994IO4I092ZHKE3YY,3,4
229,3,object_10,object_02,394.0,5,1,317.0,0.1111111111111111,1,object_05,5,3197,0,1,4,library_5,1,memory-2step-stake-s,719,3279282,0.0-19.0-0.1-0.229,A2R6UQCQ8T3RZE,3SD15I2WE5AO7614M34OSYMJOYM362,3NVC2EB65UFTC994IO4I092ZHKE3YY,5,6
230,2,object_01,object_03,573.0,4,2,253.0,0.4444444444444444,2,object_07,5,3217,0,1,4,forest_3,1,memory-2step-stake-s,720,3287302,0.0-19.0-0.1-0.230,A2R6UQCQ8T3RZE,3SD15I2WE5AO7614M34OSYMJOYM362,3NVC2EB65UFTC994IO4I092ZHKE3YY,3,4
231,2,object_01,object_03,362.0,4,2,278.0,0.2222222222222222,2,object_07,5,3227,0,3,2,forest_3,1,memory-2step-stake-s,721,3295122,0.0-19.0-0.1-0.231,A2R6UQCQ8T3RZE,3SD15I2WE5AO7614M34OSYMJOYM362,3NVC2EB65UFTC994IO4I092ZHKE3YY,3,4
232,2,object_01,object_03,408.0,3,1,305.0,0.2222222222222222,1,object_05,1,3229,0,2,3,forest_2,1,memory-2step-stake-s,722,3302922,0.0-19.0-0.1-0.232,A2R6UQCQ8T3RZE,3SD15I2WE5AO7614M34OSYMJOYM362,3NVC2EB65UFTC994IO4I092ZHKE3YY,3,4
233,2,object_03,object_01,909.0,3,2,340.0,0.2222222222222222,1,object_05,1,3231,0,2,5,forest_6,1,memory-2step-stake-s,723,3310782,0.0-19.0-0.1-0.233,A2R6UQCQ8T3RZE,3SD15I2WE5AO7614M34OSYMJOYM362,3NVC2EB65UFTC994IO4I092ZHKE3YY,4,3
234,4,object_08,object_06,520.0,8,1,140.0,0.3333333333333333,2,object_07,5,3246,0,5,3,restaurant_2,1,memory-2step-stake-s,724,3318562,0.0-19.0-0.1-0.234,A2R6UQCQ8T3RZE,3SD15I2WE5AO7614M34OSYMJOYM362,3NVC2EB65UFTC994IO4I092ZHKE3YY,8,7
235,4,object_06,object_08,500.0,8,2,488.0,0.0,2,object_07,5,3246,0,6,0,restaurant_5,1,memory-2step-stake-s,725,3326362,0.0-19.0-0.1-0.235,A2R6UQCQ8T3RZE,3SD15I2WE5AO7614M34OSYMJOYM362,3NVC2EB65UFTC994IO4I092ZHKE3YY,7,8
236,2,object_01,object_03,492.0,3,1,286.0,0.5555555555555556,1,object_05,5,3271,0,5,1,forest_3,1,memory-2step-stake-s,726,3334543,0.0-19.0-0.1-0.236,A2R6UQCQ8T3RZE,3SD15I2WE5AO7614M34OSYMJOYM362,3NVC2EB65UFTC994IO4I092ZHKE3YY,3,4
237,4,object_08,object_06,670.0,7,2,411.0,0.5555555555555556,1,object_05,5,3296,0,5,0,restaurant_5,1,memory-2step-stake-s,727,3342843,0.0-19.0-0.1-0.237,A2R6UQCQ8T3RZE,3SD15I2WE5AO7614M34OSYMJOYM362,3NVC2EB65UFTC994IO4I092ZHKE3YY,8,7
238,3,object_02,object_10,463.0,5,2,280.0,0.3333333333333333,1,object_05,1,3299,0,3,3,library_5,1,memory-2step-stake-s,728,3350783,0.0-19.0-0.1-0.238,A2R6UQCQ8T3RZE,3SD15I2WE5AO7614M34OSYMJOYM362,3NVC2EB65UFTC994IO4I092ZHKE3YY,6,5
239,4,object_08,object_06,631.0,7,2,255.0,0.6666666666666666,1,object_05,5,3329,0,6,1,restaurant_3,1,memory-2step-stake-s,729,3359023,0.0-19.0-0.1-0.239,A2R6UQCQ8T3RZE,3SD15I2WE5AO7614M34OSYMJOYM362,3NVC2EB65UFTC994IO4I092ZHKE3YY,8,7
240,3,object_02,object_10,704.0,5,2,374.0,0.6666666666666666,1,object_05,5,3359,0,6,5,library_6,1,memory-2step-stake-s,730,3367444,0.0-19.0-0.1-0.240,A2R6UQCQ8T3RZE,3SD15I2WE5AO7614M34OSYMJOYM362,3NVC2EB65UFTC994IO4I092ZHKE3YY,6,5
241,4,object_08,object_06,700.0,7,2,381.0,0.5555555555555556,1,object_05,5,3384,0,5,7,restaurant_3,1,memory-2step-stake-s,731,3375704,0.0-19.0-0.1-0.241,A2R6UQCQ8T3RZE,3SD15I2WE5AO7614M34OSYMJOYM362,3NVC2EB65UFTC994IO4I092ZHKE3YY,8,7
242,2,object_03,object_01,592.0,3,2,207.0,0.8888888888888888,1,object_05,1,3392,0,8,8,forest_8,1,memory-2step-stake-s,732,3384164,0.0-19.0-0.1-0.242,A2R6UQCQ8T3RZE,3SD15I2WE5AO7614M34OSYMJOYM362,3NVC2EB65UFTC994IO4I092ZHKE3YY,4,3
243,2,object_01,object_03,401.0,3,1,305.0,0.8888888888888888,1,object_05,5,3432,0,8,8,forest_2,1,memory-2step-stake-s,733,3392703,0.0-19.0-0.1-0.243,A2R6UQCQ8T3RZE,3SD15I2WE5AO7614M34OSYMJOYM362,3NVC2EB65UFTC994IO4I092ZHKE3YY,3,4
244,2,object_01,object_03,669.0,3,1,310.0,0.8888888888888888,1,object_05,5,3472,0,8,8,forest_3,1,memory-2step-stake-s,734,3401264,0.0-19.0-0.1-0.244,A2R6UQCQ8T3RZE,3SD15I2WE5AO7614M34OSYMJOYM362,3NVC2EB65UFTC994IO4I092ZHKE3YY,3,4
245,2,object_01,object_03,402.0,3,1,278.0,0.8888888888888888,1,object_05,1,3480,0,8,8,forest_3,1,memory-2step-stake-s,735,3409764,0.0-19.0-0.1-0.245,A2R6UQCQ8T3RZE,3SD15I2WE5AO7614M34OSYMJOYM362,3NVC2EB65UFTC994IO4I092ZHKE3YY,3,4
246,1,object_09,object_04,1071.0,1,1,392.0,0.7777777777777778,1,object_05,1,3487,0,7,8,desert_1,1,memory-2step-stake-s,736,3418304,0.0-19.0-0.1-0.246,A2R6UQCQ8T3RZE,3SD15I2WE5AO7614M34OSYMJOYM362,3NVC2EB65UFTC994IO4I092ZHKE3YY,1,2
247,1,object_04,object_09,923.0,1,2,380.0,0.3333333333333333,1,object_05,5,3502,0,3,9,desert_7,1,memory-2step-stake-s,737,3426344,0.0-19.0-0.1-0.247,A2R6UQCQ8T3RZE,3SD15I2WE5AO7614M34OSYMJOYM362,3NVC2EB65UFTC994IO4I092ZHKE3YY,2,1
248,4,object_08,object_06,383.0,7,2,412.0,0.2222222222222222,1,object_05,5,3512,0,2,6,restaurant_5,1,memory-2step-stake-s,738,3434264,0.0-19.0-0.1-0.248,A2R6UQCQ8T3RZE,3SD15I2WE5AO7614M34OSYMJOYM362,3NVC2EB65UFTC994IO4I092ZHKE3YY,8,7
249,3,object_02,object_10,607.0,5,2,317.0,0.2222222222222222,1,object_05,5,3522,0,2,4,library_7,1,memory-2step-stake-s,739,3442084,0.0-19.0-0.1-0.249,A2R6UQCQ8T3RZE,3SD15I2WE5AO7614M34OSYMJOYM362,3NVC2EB65UFTC994IO4I092ZHKE3YY,6,5
250,4,object_08,object_06,377.0,8,1,318.0,0.4444444444444444,2,object_07,5,3542,0,2,4,restaurant_7,1,memory-2step-stake-s,740,3450185,0.0-19.0-0.1-0.250,A2R6UQCQ8T3RZE,3SD15I2WE5AO7614M34OSYMJOYM362,3NVC2EB65UFTC994IO4I092ZHKE3YY,8,7
251,4,object_06,object_08,420.0,8,2,330.0,0.2222222222222222,2,object_07,5,3552,0,1,2,restaurant_5,1,memory-2step-stake-s,741,3458065,0.0-19.0-0.1-0.251,A2R6UQCQ8T3RZE,3SD15I2WE5AO7614M34OSYMJOYM362,3NVC2EB65UFTC994IO4I092ZHKE3YY,7,8
252,1,object_04,object_09,448.0,2,1,283.0,0.1111111111111111,2,object_07,1,3553,0,6,1,desert_7,1,memory-2step-stake-s,742,3465725,0.0-19.0-0.1-0.252,A2R6UQCQ8T3RZE,3SD15I2WE5AO7614M34OSYMJOYM362,3NVC2EB65UFTC994IO4I092ZHKE3YY,2,1
253,4,object_06,object_08,380.0,7,1,296.0,0.5555555555555556,1,object_05,5,3578,0,5,2,restaurant_7,1,memory-2step-stake-s,743,3473846,0.0-19.0-0.1-0.253,A2R6UQCQ8T3RZE,3SD15I2WE5AO7614M34OSYMJOYM362,3NVC2EB65UFTC994IO4I092ZHKE3YY,7,8
254,1,object_09,object_04,907.0,1,1,264.0,0.8888888888888888,1,object_05,1,3586,0,8,1,desert_7,1,memory-2step-stake-s,744,3482346,0.0-19.0-0.1-0.254,A2R6UQCQ8T3RZE,3SD15I2WE5AO7614M34OSYMJOYM362,3NVC2EB65UFTC994IO4I092ZHKE3YY,1,2
255,2,object_03,object_01,508.0,3,2,836.0,0.8888888888888888,1,object_05,5,3626,0,8,0,forest_2,1,memory-2step-stake-s,745,3491425,0.0-19.0-0.1-0.255,A2R6UQCQ8T3RZE,3SD15I2WE5AO7614M34OSYMJOYM362,3NVC2EB65UFTC994IO4I092ZHKE3YY,4,3
