,state1,stim_left,stim_right,rt_1,choice1,response1,rt_2,points,state2,stim_state2,stake,score,practice,rews1,rews2,background,high_arm,trial_type,trial_index,time_elapsed,internal_node_id,subid,hitid,assignmentid,stim_left_num,stim_right_num
0,3,object_08,object_03,1108.0,5,2,-1.0,0.0,1,object_09,1,0,0,2,5,library_6,2,memory-2step-stake-s,497,919044,0.0-19.0-0.0-0.0,A2KQ1VCW1B8QJP,3SD15I2WE5AO7614M34OSYMJOYM362,3PJUZCGDJAW0C572MT7YS9HJOXM988,6,5
1,1,object_02,object_05,601.0,2,1,347.0,0.6666666666666666,2,object_01,1,6,0,1,6,desert_5,2,memory-2step-stake-s,498,927378,0.0-19.0-0.0-0.1,A2KQ1VCW1B8QJP,3SD15I2WE5AO7614M34OSYMJOYM362,3PJUZCGDJAW0C572MT7YS9HJOXM988,2,1
2,1,object_05,object_02,702.0,1,1,812.0,0.3333333333333333,1,object_09,5,21,0,3,6,desert_8,2,memory-2step-stake-s,499,935798,0.0-19.0-0.0-0.2,A2KQ1VCW1B8QJP,3SD15I2WE5AO7614M34OSYMJOYM362,3PJUZCGDJAW0C572MT7YS9HJOXM988,1,2
3,1,object_05,object_02,652.0,1,1,657.0,0.3333333333333333,1,object_09,5,36,0,3,7,desert_4,2,memory-2step-stake-s,500,944058,0.0-19.0-0.0-0.3,A2KQ1VCW1B8QJP,3SD15I2WE5AO7614M34OSYMJOYM362,3PJUZCGDJAW0C572MT7YS9HJOXM988,1,2
4,3,object_03,object_08,722.0,5,1,-1.0,0.0,1,object_09,1,36,0,4,3,library_1,2,memory-2step-stake-s,501,952678,0.0-19.0-0.0-0.4,A2KQ1VCW1B8QJP,3SD15I2WE5AO7614M34OSYMJOYM362,3PJUZCGDJAW0C572MT7YS9HJOXM988,5,6
5,2,object_06,object_10,761.0,4,2,619.0,0.6666666666666666,2,object_01,1,42,0,2,6,forest_2,2,memory-2step-stake-s,502,961258,0.0-19.0-0.0-0.5,A2KQ1VCW1B8QJP,3SD15I2WE5AO7614M34OSYMJOYM362,3PJUZCGDJAW0C572MT7YS9HJOXM988,3,4
6,1,object_05,object_02,756.0,2,2,704.0,0.7777777777777778,2,object_01,5,77,0,2,7,desert_8,2,memory-2step-stake-s,503,970019,0.0-19.0-0.0-0.6,A2KQ1VCW1B8QJP,3SD15I2WE5AO7614M34OSYMJOYM362,3PJUZCGDJAW0C572MT7YS9HJOXM988,1,2
7,1,object_02,object_05,488.0,2,1,470.0,0.7777777777777778,2,object_01,5,112,0,1,7,desert_8,2,memory-2step-stake-s,504,978538,0.0-19.0-0.0-0.7,A2KQ1VCW1B8QJP,3SD15I2WE5AO7614M34OSYMJOYM362,3PJUZCGDJAW0C572MT7YS9HJOXM988,2,1
8,1,object_02,object_05,603.0,2,1,400.0,0.6666666666666666,2,object_01,5,142,0,1,6,desert_4,2,memory-2step-stake-s,505,986898,0.0-19.0-0.0-0.8,A2KQ1VCW1B8QJP,3SD15I2WE5AO7614M34OSYMJOYM362,3PJUZCGDJAW0C572MT7YS9HJOXM988,2,1
9,2,object_06,object_10,611.0,3,1,585.0,0.2222222222222222,1,object_09,5,152,0,2,8,forest_2,2,memory-2step-stake-s,506,994978,0.0-19.0-0.0-0.9,A2KQ1VCW1B8QJP,3SD15I2WE5AO7614M34OSYMJOYM362,3PJUZCGDJAW0C572MT7YS9HJOXM988,3,4
10,3,object_08,object_03,553.0,5,2,662.0,0.1111111111111111,1,object_09,1,153,0,1,7,library_6,2,memory-2step-stake-s,507,1003055,0.0-19.0-0.0-0.10,A2KQ1VCW1B8QJP,3SD15I2WE5AO7614M34OSYMJOYM362,3PJUZCGDJAW0C572MT7YS9HJOXM988,6,5
11,2,object_06,object_10,701.0,4,2,489.0,0.8888888888888888,2,object_01,5,193,0,2,8,forest_6,2,memory-2step-stake-s,508,1011698,0.0-19.0-0.0-0.11,A2KQ1VCW1B8QJP,3SD15I2WE5AO7614M34OSYMJOYM362,3PJUZCGDJAW0C572MT7YS9HJOXM988,3,4
12,1,object_02,object_05,508.0,2,1,344.0,0.8888888888888888,2,object_01,1,201,0,3,8,desert_4,2,memory-2step-stake-s,509,1020187,0.0-19.0-0.0-0.12,A2KQ1VCW1B8QJP,3SD15I2WE5AO7614M34OSYMJOYM362,3PJUZCGDJAW0C572MT7YS9HJOXM988,2,1
13,2,object_06,object_10,471.0,4,2,571.0,0.4444444444444444,2,object_01,5,221,0,2,4,forest_7,2,memory-2step-stake-s,510,1028413,0.0-19.0-0.0-0.13,A2KQ1VCW1B8QJP,3SD15I2WE5AO7614M34OSYMJOYM362,3PJUZCGDJAW0C572MT7YS9HJOXM988,3,4
14,3,object_03,object_08,362.0,5,1,361.0,0.0,1,object_09,1,221,0,0,4,library_6,2,memory-2step-stake-s,511,1036048,0.0-19.0-0.0-0.14,A2KQ1VCW1B8QJP,3SD15I2WE5AO7614M34OSYMJOYM362,3PJUZCGDJAW0C572MT7YS9HJOXM988,5,6
15,4,object_07,object_04,399.0,7,2,396.0,0.1111111111111111,1,object_09,1,222,0,1,7,restaurant_4,2,memory-2step-stake-s,512,1043809,0.0-19.0-0.0-0.15,A2KQ1VCW1B8QJP,3SD15I2WE5AO7614M34OSYMJOYM362,3PJUZCGDJAW0C572MT7YS9HJOXM988,8,7
16,2,object_10,object_06,784.0,3,2,595.0,0.1111111111111111,1,object_09,1,223,0,1,3,forest_6,2,memory-2step-stake-s,513,1051788,0.0-19.0-0.0-0.16,A2KQ1VCW1B8QJP,3SD15I2WE5AO7614M34OSYMJOYM362,3PJUZCGDJAW0C572MT7YS9HJOXM988,4,3
17,3,object_08,object_03,616.0,6,1,615.0,0.4444444444444444,2,object_01,1,227,0,2,4,library_3,2,memory-2step-stake-s,514,1060129,0.0-19.0-0.0-0.17,A2KQ1VCW1B8QJP,3SD15I2WE5AO7614M34OSYMJOYM362,3PJUZCGDJAW0C572MT7YS9HJOXM988,6,5
18,4,object_04,object_07,674.0,7,1,600.0,0.0,1,object_09,1,227,0,0,1,restaurant_2,2,memory-2step-stake-s,515,1068019,0.0-19.0-0.0-0.18,A2KQ1VCW1B8QJP,3SD15I2WE5AO7614M34OSYMJOYM362,3PJUZCGDJAW0C572MT7YS9HJOXM988,7,8
19,2,object_10,object_06,686.0,3,2,481.0,0.1111111111111111,1,object_09,5,232,0,1,1,forest_5,2,memory-2step-stake-s,516,1075848,0.0-19.0-0.0-0.19,A2KQ1VCW1B8QJP,3SD15I2WE5AO7614M34OSYMJOYM362,3PJUZCGDJAW0C572MT7YS9HJOXM988,4,3
20,2,object_10,object_06,875.0,4,1,554.0,0.0,2,object_01,5,232,0,1,0,forest_5,2,memory-2step-stake-s,517,1083669,0.0-19.0-0.0-0.20,A2KQ1VCW1B8QJP,3SD15I2WE5AO7614M34OSYMJOYM362,3PJUZCGDJAW0C572MT7YS9HJOXM988,4,3
21,3,object_03,object_08,721.0,6,2,463.0,0.1111111111111111,2,object_01,1,233,0,2,1,library_6,2,memory-2step-stake-s,518,1091509,0.0-19.0-0.0-0.21,A2KQ1VCW1B8QJP,3SD15I2WE5AO7614M34OSYMJOYM362,3PJUZCGDJAW0C572MT7YS9HJOXM988,5,6
22,2,object_10,object_06,1035.0,3,2,481.0,0.1111111111111111,1,object_09,5,238,0,1,2,forest_2,2,memory-2step-stake-s,519,1099379,0.0-19.0-0.0-0.22,A2KQ1VCW1B8QJP,3SD15I2WE5AO7614M34OSYMJOYM362,3PJUZCGDJAW0C572MT7YS9HJOXM988,4,3
23,2,object_06,object_10,387.0,3,1,-1.0,0.0,1,object_09,1,238,0,1,1,forest_6,2,memory-2step-stake-s,520,1107948,0.0-19.0-0.0-0.23,A2KQ1VCW1B8QJP,3SD15I2WE5AO7614M34OSYMJOYM362,3PJUZCGDJAW0C572MT7YS9HJOXM988,3,4
24,1,object_05,object_02,-1.0,-1,-1,-1.0,0.0,-,0,5,238,0,0,3,desert_5,2,memory-2step-stake-s,521,1114539,0.0-19.0-0.0-0.24,A2KQ1VCW1B8QJP,3SD15I2WE5AO7614M34OSYMJOYM362,3PJUZCGDJAW0C572MT7YS9HJOXM988,1,2
25,2,object_06,object_10,816.0,3,1,604.0,0.2222222222222222,1,object_09,1,240,0,2,0,forest_7,2,memory-2step-stake-s,522,1122649,0.0-19.0-0.0-0.25,A2KQ1VCW1B8QJP,3SD15I2WE5AO7614M34OSYMJOYM362,3PJUZCGDJAW0C572MT7YS9HJOXM988,3,4
26,2,object_06,object_10,753.0,4,2,645.0,0.2222222222222222,2,object_01,5,250,0,1,2,forest_5,2,memory-2step-stake-s,523,1130800,0.0-19.0-0.0-0.26,A2KQ1VCW1B8QJP,3SD15I2WE5AO7614M34OSYMJOYM362,3PJUZCGDJAW0C572MT7YS9HJOXM988,3,4
27,4,object_04,object_07,650.0,7,1,510.0,0.0,1,object_09,1,250,0,0,6,restaurant_5,2,memory-2step-stake-s,524,1138588,0.0-19.0-0.0-0.27,A2KQ1VCW1B8QJP,3SD15I2WE5AO7614M34OSYMJOYM362,3PJUZCGDJAW0C572MT7YS9HJOXM988,7,8
28,3,object_03,object_08,531.0,6,2,464.0,0.6666666666666666,2,object_01,5,280,0,0,6,library_1,2,memory-2step-stake-s,525,1147009,0.0-19.0-0.0-0.28,A2KQ1VCW1B8QJP,3SD15I2WE5AO7614M34OSYMJOYM362,3PJUZCGDJAW0C572MT7YS9HJOXM988,5,6
29,1,object_05,object_02,635.0,2,2,424.0,0.6666666666666666,2,object_01,5,310,0,1,6,desert_4,2,memory-2step-stake-s,526,1155379,0.0-19.0-0.0-0.29,A2KQ1VCW1B8QJP,3SD15I2WE5AO7614M34OSYMJOYM362,3PJUZCGDJAW0C572MT7YS9HJOXM988,1,2
30,1,object_02,object_05,665.0,2,1,469.0,0.5555555555555556,2,object_01,5,335,0,4,5,desert_4,2,memory-2step-stake-s,527,1163689,0.0-19.0-0.0-0.30,A2KQ1VCW1B8QJP,3SD15I2WE5AO7614M34OSYMJOYM362,3PJUZCGDJAW0C572MT7YS9HJOXM988,2,1
31,4,object_04,object_07,816.0,7,1,1028.0,0.4444444444444444,1,object_09,5,355,0,4,5,restaurant_4,2,memory-2step-stake-s,528,1172439,0.0-19.0-0.0-0.31,A2KQ1VCW1B8QJP,3SD15I2WE5AO7614M34OSYMJOYM362,3PJUZCGDJAW0C572MT7YS9HJOXM988,7,8
32,1,object_02,object_05,574.0,2,1,527.0,0.5555555555555556,2,object_01,5,380,0,1,5,desert_4,2,memory-2step-stake-s,529,1180799,0.0-19.0-0.0-0.32,A2KQ1VCW1B8QJP,3SD15I2WE5AO7614M34OSYMJOYM362,3PJUZCGDJAW0C572MT7YS9HJOXM988,2,1
33,2,object_06,object_10,955.0,3,1,951.0,0.0,1,object_09,5,380,0,0,3,forest_5,2,memory-2step-stake-s,530,1189039,0.0-19.0-0.0-0.33,A2KQ1VCW1B8QJP,3SD15I2WE5AO7614M34OSYMJOYM362,3PJUZCGDJAW0C572MT7YS9HJOXM988,3,4
34,3,object_03,object_08,652.0,6,2,546.0,0.1111111111111111,2,object_01,1,381,0,1,1,library_6,2,memory-2step-stake-s,531,1196999,0.0-19.0-0.0-0.34,A2KQ1VCW1B8QJP,3SD15I2WE5AO7614M34OSYMJOYM362,3PJUZCGDJAW0C572MT7YS9HJOXM988,5,6
35,4,object_04,object_07,1093.0,8,2,540.0,0.0,2,object_01,1,381,0,1,0,restaurant_4,2,memory-2step-stake-s,532,1204799,0.0-19.0-0.0-0.35,A2KQ1VCW1B8QJP,3SD15I2WE5AO7614M34OSYMJOYM362,3PJUZCGDJAW0C572MT7YS9HJOXM988,7,8
36,3,object_03,object_08,819.0,6,2,401.0,0.3333333333333333,2,object_01,1,384,0,3,3,library_3,2,memory-2step-stake-s,533,1212839,0.0-19.0-0.0-0.36,A2KQ1VCW1B8QJP,3SD15I2WE5AO7614M34OSYMJOYM362,3PJUZCGDJAW0C572MT7YS9HJOXM988,5,6
37,2,object_10,object_06,785.0,4,1,550.0,0.3333333333333333,2,object_01,5,399,0,1,3,forest_5,2,memory-2step-stake-s,534,1220959,0.0-19.0-0.0-0.37,A2KQ1VCW1B8QJP,3SD15I2WE5AO7614M34OSYMJOYM362,3PJUZCGDJAW0C572MT7YS9HJOXM988,4,3
38,1,object_02,object_05,871.0,2,1,1094.0,0.7777777777777778,2,object_01,1,406,0,3,7,desert_4,2,memory-2step-stake-s,535,1230075,0.0-19.0-0.0-0.38,A2KQ1VCW1B8QJP,3SD15I2WE5AO7614M34OSYMJOYM362,3PJUZCGDJAW0C572MT7YS9HJOXM988,2,1
39,1,object_05,object_02,671.0,2,2,427.0,0.5555555555555556,2,object_01,5,431,0,0,5,desert_4,2,memory-2step-stake-s,536,1238310,0.0-19.0-0.0-0.39,A2KQ1VCW1B8QJP,3SD15I2WE5AO7614M34OSYMJOYM362,3PJUZCGDJAW0C572MT7YS9HJOXM988,1,2
40,1,object_05,object_02,528.0,2,2,531.0,0.7777777777777778,2,object_01,1,438,0,3,7,desert_8,2,memory-2step-stake-s,537,1246930,0.0-19.0-0.0-0.40,A2KQ1VCW1B8QJP,3SD15I2WE5AO7614M34OSYMJOYM362,3PJUZCGDJAW0C572MT7YS9HJOXM988,1,2
41,4,object_04,object_07,785.0,8,2,528.0,1.0,2,object_01,1,447,0,4,9,restaurant_5,2,memory-2step-stake-s,538,1255760,0.0-19.0-0.0-0.41,A2KQ1VCW1B8QJP,3SD15I2WE5AO7614M34OSYMJOYM362,3PJUZCGDJAW0C572MT7YS9HJOXM988,7,8
42,4,object_07,object_04,816.0,8,1,413.0,0.5555555555555556,2,object_01,1,452,0,6,5,restaurant_2,2,memory-2step-stake-s,539,1263980,0.0-19.0-0.0-0.42,A2KQ1VCW1B8QJP,3SD15I2WE5AO7614M34OSYMJOYM362,3PJUZCGDJAW0C572MT7YS9HJOXM988,8,7
43,3,object_08,object_03,677.0,6,1,626.0,0.7777777777777778,2,object_01,1,459,0,6,7,library_7,2,memory-2step-stake-s,540,1272629,0.0-19.0-0.0-0.43,A2KQ1VCW1B8QJP,3SD15I2WE5AO7614M34OSYMJOYM362,3PJUZCGDJAW0C572MT7YS9HJOXM988,6,5
44,2,object_10,object_06,773.0,4,1,486.0,0.7777777777777778,2,object_01,1,466,0,5,7,forest_2,2,memory-2step-stake-s,541,1281160,0.0-19.0-0.0-0.44,A2KQ1VCW1B8QJP,3SD15I2WE5AO7614M34OSYMJOYM362,3PJUZCGDJAW0C572MT7YS9HJOXM988,4,3
45,4,object_04,object_07,915.0,7,1,362.0,0.6666666666666666,1,object_09,1,472,0,6,8,restaurant_5,2,memory-2step-stake-s,542,1289379,0.0-19.0-0.0-0.45,A2KQ1VCW1B8QJP,3SD15I2WE5AO7614M34OSYMJOYM362,3PJUZCGDJAW0C572MT7YS9HJOXM988,7,8
46,1,object_05,object_02,561.0,2,2,566.0,0.7777777777777778,2,object_01,1,479,0,6,7,desert_5,2,memory-2step-stake-s,543,1297960,0.0-19.0-0.0-0.46,A2KQ1VCW1B8QJP,3SD15I2WE5AO7614M34OSYMJOYM362,3PJUZCGDJAW0C572MT7YS9HJOXM988,1,2
47,3,object_03,object_08,631.0,6,2,517.0,0.4444444444444444,2,object_01,5,499,0,5,4,library_7,2,memory-2step-stake-s,544,1306179,0.0-19.0-0.0-0.47,A2KQ1VCW1B8QJP,3SD15I2WE5AO7614M34OSYMJOYM362,3PJUZCGDJAW0C572MT7YS9HJOXM988,5,6
48,1,object_05,object_02,575.0,2,2,494.0,0.1111111111111111,2,object_01,1,500,0,5,1,desert_4,2,memory-2step-stake-s,545,1314040,0.0-19.0-0.0-0.48,A2KQ1VCW1B8QJP,3SD15I2WE5AO7614M34OSYMJOYM362,3PJUZCGDJAW0C572MT7YS9HJOXM988,1,2
49,3,object_03,object_08,575.0,6,2,438.0,0.3333333333333333,2,object_01,1,503,0,3,3,library_7,2,memory-2step-stake-s,546,1322110,0.0-19.0-0.0-0.49,A2KQ1VCW1B8QJP,3SD15I2WE5AO7614M34OSYMJOYM362,3PJUZCGDJAW0C572MT7YS9HJOXM988,5,6
50,2,object_10,object_06,879.0,3,2,732.0,0.6666666666666666,1,object_09,5,533,0,6,3,forest_2,2,memory-2step-stake-s,547,1330780,0.0-19.0-0.0-0.50,A2KQ1VCW1B8QJP,3SD15I2WE5AO7614M34OSYMJOYM362,3PJUZCGDJAW0C572MT7YS9HJOXM988,4,3
51,2,object_10,object_06,600.0,3,2,461.0,0.7777777777777778,1,object_09,5,568,0,7,7,forest_2,2,memory-2step-stake-s,548,1339291,0.0-19.0-0.0-0.51,A2KQ1VCW1B8QJP,3SD15I2WE5AO7614M34OSYMJOYM362,3PJUZCGDJAW0C572MT7YS9HJOXM988,4,3
52,3,object_03,object_08,699.0,6,2,417.0,0.6666666666666666,2,object_01,1,574,0,8,6,library_6,2,memory-2step-stake-s,549,1347650,0.0-19.0-0.0-0.52,A2KQ1VCW1B8QJP,3SD15I2WE5AO7614M34OSYMJOYM362,3PJUZCGDJAW0C572MT7YS9HJOXM988,5,6
53,1,object_02,object_05,604.0,2,1,480.0,0.4444444444444444,2,object_01,5,594,0,9,4,desert_1,2,memory-2step-stake-s,550,1355870,0.0-19.0-0.0-0.53,A2KQ1VCW1B8QJP,3SD15I2WE5AO7614M34OSYMJOYM362,3PJUZCGDJAW0C572MT7YS9HJOXM988,2,1
54,2,object_10,object_06,573.0,3,2,451.0,0.7777777777777778,1,object_09,5,629,0,7,2,forest_6,2,memory-2step-stake-s,551,1364320,0.0-19.0-0.0-0.54,A2KQ1VCW1B8QJP,3SD15I2WE5AO7614M34OSYMJOYM362,3PJUZCGDJAW0C572MT7YS9HJOXM988,4,3
55,1,object_02,object_05,592.0,2,1,309.0,0.5555555555555556,2,object_01,5,654,0,9,5,desert_4,2,memory-2step-stake-s,552,1372460,0.0-19.0-0.0-0.55,A2KQ1VCW1B8QJP,3SD15I2WE5AO7614M34OSYMJOYM362,3PJUZCGDJAW0C572MT7YS9HJOXM988,2,1
56,4,object_04,object_07,1120.0,7,1,357.0,0.6666666666666666,1,object_09,1,660,0,6,5,restaurant_8,2,memory-2step-stake-s,553,1380770,0.0-19.0-0.0-0.56,A2KQ1VCW1B8QJP,3SD15I2WE5AO7614M34OSYMJOYM362,3PJUZCGDJAW0C572MT7YS9HJOXM988,7,8
57,3,object_08,object_03,788.0,5,2,393.0,1.0,1,object_09,1,669,0,9,5,library_3,2,memory-2step-stake-s,554,1389470,0.0-19.0-0.0-0.57,A2KQ1VCW1B8QJP,3SD15I2WE5AO7614M34OSYMJOYM362,3PJUZCGDJAW0C572MT7YS9HJOXM988,6,5
58,3,object_08,object_03,668.0,5,2,335.0,0.6666666666666666,1,object_09,1,675,0,6,2,library_3,2,memory-2step-stake-s,555,1397720,0.0-19.0-0.0-0.58,A2KQ1VCW1B8QJP,3SD15I2WE5AO7614M34OSYMJOYM362,3PJUZCGDJAW0C572MT7YS9HJOXM988,6,5
59,3,object_03,object_08,571.0,5,1,290.0,0.4444444444444444,1,object_09,1,679,0,4,5,library_6,2,memory-2step-stake-s,556,1405741,0.0-19.0-0.0-0.59,A2KQ1VCW1B8QJP,3SD15I2WE5AO7614M34OSYMJOYM362,3PJUZCGDJAW0C572MT7YS9HJOXM988,5,6
60,4,object_04,object_07,834.0,7,1,415.0,0.1111111111111111,1,object_09,1,680,0,1,7,restaurant_5,2,memory-2step-stake-s,557,1413551,0.0-19.0-0.0-0.60,A2KQ1VCW1B8QJP,3SD15I2WE5AO7614M34OSYMJOYM362,3PJUZCGDJAW0C572MT7YS9HJOXM988,7,8
61,3,object_03,object_08,612.0,5,1,656.0,0.0,1,object_09,1,680,0,0,5,library_3,2,memory-2step-stake-s,558,1421491,0.0-19.0-0.0-0.61,A2KQ1VCW1B8QJP,3SD15I2WE5AO7614M34OSYMJOYM362,3PJUZCGDJAW0C572MT7YS9HJOXM988,5,6
62,1,object_02,object_05,594.0,2,1,263.0,0.5555555555555556,2,object_01,5,705,0,1,5,desert_1,2,memory-2step-stake-s,559,1429600,0.0-19.0-0.0-0.62,A2KQ1VCW1B8QJP,3SD15I2WE5AO7614M34OSYMJOYM362,3PJUZCGDJAW0C572MT7YS9HJOXM988,2,1
63,1,object_05,object_02,629.0,2,2,394.0,0.2222222222222222,2,object_01,5,715,0,3,2,desert_1,2,memory-2step-stake-s,560,1437511,0.0-19.0-0.0-0.63,A2KQ1VCW1B8QJP,3SD15I2WE5AO7614M34OSYMJOYM362,3PJUZCGDJAW0C572MT7YS9HJOXM988,1,2
64,1,object_02,object_05,545.0,2,1,727.0,0.2222222222222222,2,object_01,5,725,0,1,2,desert_5,2,memory-2step-stake-s,561,1445711,0.0-19.0-0.0-0.64,A2KQ1VCW1B8QJP,3SD15I2WE5AO7614M34OSYMJOYM362,3PJUZCGDJAW0C572MT7YS9HJOXM988,2,1
65,3,object_08,object_03,688.0,5,2,340.0,0.3333333333333333,1,object_09,1,728,0,3,2,library_7,2,memory-2step-stake-s,562,1453720,0.0-19.0-0.0-0.65,A2KQ1VCW1B8QJP,3SD15I2WE5AO7614M34OSYMJOYM362,3PJUZCGDJAW0C572MT7YS9HJOXM988,6,5
66,1,object_02,object_05,572.0,2,1,695.0,0.2222222222222222,2,object_01,1,730,0,3,2,desert_1,2,memory-2step-stake-s,563,1461981,0.0-19.0-0.0-0.66,A2KQ1VCW1B8QJP,3SD15I2WE5AO7614M34OSYMJOYM362,3PJUZCGDJAW0C572MT7YS9HJOXM988,2,1
67,1,object_05,object_02,595.0,1,1,553.0,0.2222222222222222,1,object_09,1,732,0,2,3,desert_8,2,memory-2step-stake-s,564,1470011,0.0-19.0-0.0-0.67,A2KQ1VCW1B8QJP,3SD15I2WE5AO7614M34OSYMJOYM362,3PJUZCGDJAW0C572MT7YS9HJOXM988,1,2
68,3,object_08,object_03,659.0,5,2,575.0,0.2222222222222222,1,object_09,1,734,0,2,2,library_1,2,memory-2step-stake-s,565,1478111,0.0-19.0-0.0-0.68,A2KQ1VCW1B8QJP,3SD15I2WE5AO7614M34OSYMJOYM362,3PJUZCGDJAW0C572MT7YS9HJOXM988,6,5
69,2,object_06,object_10,1207.0,3,1,654.0,0.2222222222222222,1,object_09,5,744,0,2,4,forest_6,2,memory-2step-stake-s,566,1486280,0.0-19.0-0.0-0.69,A2KQ1VCW1B8QJP,3SD15I2WE5AO7614M34OSYMJOYM362,3PJUZCGDJAW0C572MT7YS9HJOXM988,3,4
70,3,object_08,object_03,1045.0,5,2,496.0,0.2222222222222222,1,object_09,1,746,0,2,8,library_1,2,memory-2step-stake-s,567,1494240,0.0-19.0-0.0-0.70,A2KQ1VCW1B8QJP,3SD15I2WE5AO7614M34OSYMJOYM362,3PJUZCGDJAW0C572MT7YS9HJOXM988,6,5
71,2,object_10,object_06,1108.0,3,2,393.0,0.2222222222222222,1,object_09,5,756,0,2,4,forest_6,2,memory-2step-stake-s,568,1502181,0.0-19.0-0.0-0.71,A2KQ1VCW1B8QJP,3SD15I2WE5AO7614M34OSYMJOYM362,3PJUZCGDJAW0C572MT7YS9HJOXM988,4,3
72,3,object_03,object_08,1168.0,5,1,757.0,0.0,1,object_09,1,756,0,0,5,library_7,2,memory-2step-stake-s,569,1510221,0.0-19.0-0.0-0.72,A2KQ1VCW1B8QJP,3SD15I2WE5AO7614M34OSYMJOYM362,3PJUZCGDJAW0C572MT7YS9HJOXM988,5,6
73,2,object_10,object_06,483.0,3,2,513.0,0.2222222222222222,1,object_09,5,766,0,2,7,forest_6,2,memory-2step-stake-s,570,1518230,0.0-19.0-0.0-0.73,A2KQ1VCW1B8QJP,3SD15I2WE5AO7614M34OSYMJOYM362,3PJUZCGDJAW0C572MT7YS9HJOXM988,4,3
74,3,object_08,object_03,1140.0,5,2,293.0,0.3333333333333333,1,object_09,1,769,0,3,8,library_7,2,memory-2step-stake-s,571,1526121,0.0-19.0-0.0-0.74,A2KQ1VCW1B8QJP,3SD15I2WE5AO7614M34OSYMJOYM362,3PJUZCGDJAW0C572MT7YS9HJOXM988,6,5
75,2,object_06,object_10,1054.0,3,1,324.0,0.4444444444444444,1,object_09,5,789,0,4,7,forest_6,2,memory-2step-stake-s,572,1534190,0.0-19.0-0.0-0.75,A2KQ1VCW1B8QJP,3SD15I2WE5AO7614M34OSYMJOYM362,3PJUZCGDJAW0C572MT7YS9HJOXM988,3,4
76,3,object_08,object_03,936.0,5,2,540.0,0.7777777777777778,1,object_09,1,796,0,7,4,library_3,2,memory-2step-stake-s,573,1542791,0.0-19.0-0.0-0.76,A2KQ1VCW1B8QJP,3SD15I2WE5AO7614M34OSYMJOYM362,3PJUZCGDJAW0C572MT7YS9HJOXM988,6,5
77,2,object_06,object_10,655.0,4,2,702.0,0.2222222222222222,2,object_01,5,806,0,6,2,forest_2,2,memory-2step-stake-s,574,1551001,0.0-19.0-0.0-0.77,A2KQ1VCW1B8QJP,3SD15I2WE5AO7614M34OSYMJOYM362,3PJUZCGDJAW0C572MT7YS9HJOXM988,3,4
78,2,object_10,object_06,1056.0,3,2,246.0,0.6666666666666666,1,object_09,5,836,0,6,4,forest_5,2,memory-2step-stake-s,575,1559171,0.0-19.0-0.0-0.78,A2KQ1VCW1B8QJP,3SD15I2WE5AO7614M34OSYMJOYM362,3PJUZCGDJAW0C572MT7YS9HJOXM988,4,3
79,1,object_02,object_05,586.0,2,1,655.0,0.2222222222222222,2,object_01,1,838,0,9,2,desert_4,2,memory-2step-stake-s,576,1567271,0.0-19.0-0.0-0.79,A2KQ1VCW1B8QJP,3SD15I2WE5AO7614M34OSYMJOYM362,3PJUZCGDJAW0C572MT7YS9HJOXM988,2,1
80,2,object_10,object_06,645.0,4,1,492.0,0.2222222222222222,2,object_01,5,848,0,6,2,forest_2,2,memory-2step-stake-s,577,1575221,0.0-19.0-0.0-0.80,A2KQ1VCW1B8QJP,3SD15I2WE5AO7614M34OSYMJOYM362,3PJUZCGDJAW0C572MT7YS9HJOXM988,4,3
81,1,object_05,object_02,552.0,1,1,342.0,0.5555555555555556,1,object_09,5,873,0,5,2,desert_8,2,memory-2step-stake-s,578,1583441,0.0-19.0-0.0-0.81,A2KQ1VCW1B8QJP,3SD15I2WE5AO7614M34OSYMJOYM362,3PJUZCGDJAW0C572MT7YS9HJOXM988,1,2
82,3,object_08,object_03,652.0,5,2,321.0,0.1111111111111111,1,object_09,1,874,0,1,0,library_6,2,memory-2step-stake-s,579,1591141,0.0-19.0-0.0-0.82,A2KQ1VCW1B8QJP,3SD15I2WE5AO7614M34OSYMJOYM362,3PJUZCGDJAW0C572MT7YS9HJOXM988,6,5
83,2,object_10,object_06,970.0,3,2,1344.0,0.0,1,object_09,5,874,0,0,1,forest_7,2,memory-2step-stake-s,580,1599772,0.0-19.0-0.0-0.83,A2KQ1VCW1B8QJP,3SD15I2WE5AO7614M34OSYMJOYM362,3PJUZCGDJAW0C572MT7YS9HJOXM988,4,3
84,3,object_03,object_08,854.0,6,2,324.0,0.2222222222222222,2,object_01,1,876,0,3,2,library_1,2,memory-2step-stake-s,581,1607582,0.0-19.0-0.0-0.84,A2KQ1VCW1B8QJP,3SD15I2WE5AO7614M34OSYMJOYM362,3PJUZCGDJAW0C572MT7YS9HJOXM988,5,6
85,3,object_08,object_03,904.0,6,1,518.0,0.6666666666666666,2,object_01,1,882,0,7,6,library_7,2,memory-2step-stake-s,582,1616002,0.0-19.0-0.0-0.85,A2KQ1VCW1B8QJP,3SD15I2WE5AO7614M34OSYMJOYM362,3PJUZCGDJAW0C572MT7YS9HJOXM988,6,5
86,4,object_07,object_04,948.0,8,1,457.0,0.4444444444444444,2,object_01,1,886,0,8,4,restaurant_8,2,memory-2step-stake-s,583,1624211,0.0-19.0-0.0-0.86,A2KQ1VCW1B8QJP,3SD15I2WE5AO7614M34OSYMJOYM362,3PJUZCGDJAW0C572MT7YS9HJOXM988,8,7
87,4,object_07,object_04,699.0,8,1,393.0,0.7777777777777778,2,object_01,1,893,0,6,7,restaurant_2,2,memory-2step-stake-s,584,1632652,0.0-19.0-0.0-0.87,A2KQ1VCW1B8QJP,3SD15I2WE5AO7614M34OSYMJOYM362,3PJUZCGDJAW0C572MT7YS9HJOXM988,8,7
88,1,object_02,object_05,966.0,1,2,411.0,0.7777777777777778,1,object_09,5,928,0,7,8,desert_8,2,memory-2step-stake-s,585,1641092,0.0-19.0-0.0-0.88,A2KQ1VCW1B8QJP,3SD15I2WE5AO7614M34OSYMJOYM362,3PJUZCGDJAW0C572MT7YS9HJOXM988,2,1
89,1,object_05,object_02,778.0,1,1,455.0,0.7777777777777778,1,object_09,1,935,0,7,9,desert_1,2,memory-2step-stake-s,586,1649592,0.0-19.0-0.0-0.89,A2KQ1VCW1B8QJP,3SD15I2WE5AO7614M34OSYMJOYM362,3PJUZCGDJAW0C572MT7YS9HJOXM988,1,2
90,4,object_04,object_07,761.0,8,2,597.0,1.0,2,object_01,1,944,0,8,9,restaurant_8,2,memory-2step-stake-s,587,1658412,0.0-19.0-0.0-0.90,A2KQ1VCW1B8QJP,3SD15I2WE5AO7614M34OSYMJOYM362,3PJUZCGDJAW0C572MT7YS9HJOXM988,7,8
91,4,object_07,object_04,531.0,8,1,463.0,0.8888888888888888,2,object_01,1,952,0,8,8,restaurant_5,2,memory-2step-stake-s,588,1667002,0.0-19.0-0.0-0.91,A2KQ1VCW1B8QJP,3SD15I2WE5AO7614M34OSYMJOYM362,3PJUZCGDJAW0C572MT7YS9HJOXM988,8,7
92,3,object_08,object_03,618.0,6,1,351.0,0.6666666666666666,2,object_01,1,958,0,5,6,library_3,2,memory-2step-stake-s,589,1675222,0.0-19.0-0.0-0.92,A2KQ1VCW1B8QJP,3SD15I2WE5AO7614M34OSYMJOYM362,3PJUZCGDJAW0C572MT7YS9HJOXM988,6,5
93,2,object_06,object_10,866.0,3,1,318.0,0.5555555555555556,1,object_09,5,983,0,5,4,forest_7,2,memory-2step-stake-s,590,1683382,0.0-19.0-0.0-0.93,A2KQ1VCW1B8QJP,3SD15I2WE5AO7614M34OSYMJOYM362,3PJUZCGDJAW0C572MT7YS9HJOXM988,3,4
94,4,object_07,object_04,724.0,8,1,343.0,0.2222222222222222,2,object_01,1,985,0,6,2,restaurant_4,2,memory-2step-stake-s,591,1691202,0.0-19.0-0.0-0.94,A2KQ1VCW1B8QJP,3SD15I2WE5AO7614M34OSYMJOYM362,3PJUZCGDJAW0C572MT7YS9HJOXM988,8,7
95,4,object_07,object_04,662.0,7,2,324.0,0.4444444444444444,1,object_09,1,989,0,4,0,restaurant_5,2,memory-2step-stake-s,592,1699261,0.0-19.0-0.0-0.95,A2KQ1VCW1B8QJP,3SD15I2WE5AO7614M34OSYMJOYM362,3PJUZCGDJAW0C572MT7YS9HJOXM988,8,7
96,1,object_05,object_02,537.0,2,2,334.0,0.1111111111111111,2,object_01,1,990,0,2,1,desert_1,2,memory-2step-stake-s,593,1707012,0.0-19.0-0.0-0.96,A2KQ1VCW1B8QJP,3SD15I2WE5AO7614M34OSYMJOYM362,3PJUZCGDJAW0C572MT7YS9HJOXM988,1,2
97,4,object_07,object_04,599.0,8,1,461.0,0.4444444444444444,2,object_01,1,994,0,0,4,restaurant_5,2,memory-2step-stake-s,594,1715182,0.0-19.0-0.0-0.97,A2KQ1VCW1B8QJP,3SD15I2WE5AO7614M34OSYMJOYM362,3PJUZCGDJAW0C572MT7YS9HJOXM988,8,7
98,2,object_10,object_06,690.0,3,2,318.0,0.0,1,object_09,5,994,0,0,4,forest_5,2,memory-2step-stake-s,595,1722791,0.0-19.0-0.0-0.98,A2KQ1VCW1B8QJP,3SD15I2WE5AO7614M34OSYMJOYM362,3PJUZCGDJAW0C572MT7YS9HJOXM988,4,3
99,4,object_07,object_04,777.0,8,1,711.0,0.4444444444444444,2,object_01,5,1014,0,0,4,restaurant_2,2,memory-2step-stake-s,596,1731192,0.0-19.0-0.0-0.99,A2KQ1VCW1B8QJP,3SD15I2WE5AO7614M34OSYMJOYM362,3PJUZCGDJAW0C572MT7YS9HJOXM988,8,7
100,4,object_04,object_07,-1.0,-1,-1,-1.0,0.0,-,0,1,1014,0,0,2,restaurant_2,2,memory-2step-stake-s,597,1737772,0.0-19.0-0.0-0.100,A2KQ1VCW1B8QJP,3SD15I2WE5AO7614M34OSYMJOYM362,3PJUZCGDJAW0C572MT7YS9HJOXM988,7,8
101,1,object_02,object_05,630.0,2,1,1218.0,0.1111111111111111,2,object_01,5,1019,0,0,1,desert_5,2,memory-2step-stake-s,598,1746352,0.0-19.0-0.0-0.101,A2KQ1VCW1B8QJP,3SD15I2WE5AO7614M34OSYMJOYM362,3PJUZCGDJAW0C572MT7YS9HJOXM988,2,1
102,1,object_05,object_02,618.0,2,2,807.0,0.4444444444444444,2,object_01,5,1039,0,0,4,desert_1,2,memory-2step-stake-s,599,1754882,0.0-19.0-0.0-0.102,A2KQ1VCW1B8QJP,3SD15I2WE5AO7614M34OSYMJOYM362,3PJUZCGDJAW0C572MT7YS9HJOXM988,1,2
103,4,object_04,object_07,-1.0,-1,-1,-1.0,0.0,-,0,1,1039,0,0,4,restaurant_5,2,memory-2step-stake-s,600,1761473,0.0-19.0-0.0-0.103,A2KQ1VCW1B8QJP,3SD15I2WE5AO7614M34OSYMJOYM362,3PJUZCGDJAW0C572MT7YS9HJOXM988,7,8
104,2,object_10,object_06,478.0,3,2,188.0,0.2222222222222222,1,object_09,5,1049,0,2,5,forest_2,2,memory-2step-stake-s,601,1769152,0.0-19.0-0.0-0.104,A2KQ1VCW1B8QJP,3SD15I2WE5AO7614M34OSYMJOYM362,3PJUZCGDJAW0C572MT7YS9HJOXM988,4,3
105,1,object_05,object_02,-1.0,-1,-1,-1.0,0.0,-,0,5,1049,0,1,9,desert_8,2,memory-2step-stake-s,602,1775707,0.0-19.0-0.0-0.105,A2KQ1VCW1B8QJP,3SD15I2WE5AO7614M34OSYMJOYM362,3PJUZCGDJAW0C572MT7YS9HJOXM988,1,2
106,1,object_02,object_05,406.0,2,1,501.0,0.7777777777777778,2,object_01,1,1056,0,1,7,desert_1,2,memory-2step-stake-s,603,1784272,0.0-19.0-0.0-0.106,A2KQ1VCW1B8QJP,3SD15I2WE5AO7614M34OSYMJOYM362,3PJUZCGDJAW0C572MT7YS9HJOXM988,2,1
107,2,object_10,object_06,759.0,4,1,524.0,0.7777777777777778,2,object_01,5,1091,0,1,7,forest_2,2,memory-2step-stake-s,604,1792822,0.0-19.0-0.0-0.107,A2KQ1VCW1B8QJP,3SD15I2WE5AO7614M34OSYMJOYM362,3PJUZCGDJAW0C572MT7YS9HJOXM988,4,3
108,4,object_07,object_04,-1.0,-1,-1,-1.0,0.0,-,0,5,1091,0,3,8,restaurant_2,2,memory-2step-stake-s,605,1799393,0.0-19.0-0.0-0.108,A2KQ1VCW1B8QJP,3SD15I2WE5AO7614M34OSYMJOYM362,3PJUZCGDJAW0C572MT7YS9HJOXM988,8,7
109,3,object_08,object_03,-1.0,-1,-1,-1.0,0.0,-,0,1,1091,0,4,5,library_3,2,memory-2step-stake-s,606,1805922,0.0-19.0-0.0-0.109,A2KQ1VCW1B8QJP,3SD15I2WE5AO7614M34OSYMJOYM362,3PJUZCGDJAW0C572MT7YS9HJOXM988,6,5
110,1,object_05,object_02,1486.0,2,2,-1.0,0.0,2,object_01,1,1091,0,4,4,desert_4,2,memory-2step-stake-s,607,1814493,0.0-19.0-0.0-0.110,A2KQ1VCW1B8QJP,3SD15I2WE5AO7614M34OSYMJOYM362,3PJUZCGDJAW0C572MT7YS9HJOXM988,1,2
111,2,object_06,object_10,40.0,3,1,355.0,0.6666666666666666,1,object_09,5,1121,0,6,5,forest_7,2,memory-2step-stake-s,608,1822800,0.0-19.0-0.0-0.111,A2KQ1VCW1B8QJP,3SD15I2WE5AO7614M34OSYMJOYM362,3PJUZCGDJAW0C572MT7YS9HJOXM988,3,4
112,1,object_02,object_05,645.0,1,2,490.0,0.3333333333333333,1,object_09,5,1136,0,3,4,desert_5,2,memory-2step-stake-s,609,1830873,0.0-19.0-0.0-0.112,A2KQ1VCW1B8QJP,3SD15I2WE5AO7614M34OSYMJOYM362,3PJUZCGDJAW0C572MT7YS9HJOXM988,2,1
113,4,object_04,object_07,190.0,7,1,-1.0,0.0,1,object_09,1,1136,0,8,3,restaurant_5,2,memory-2step-stake-s,610,1839453,0.0-19.0-0.0-0.113,A2KQ1VCW1B8QJP,3SD15I2WE5AO7614M34OSYMJOYM362,3PJUZCGDJAW0C572MT7YS9HJOXM988,7,8
114,4,object_04,object_07,915.0,7,1,-1.0,0.0,1,object_09,5,1136,0,6,5,restaurant_4,2,memory-2step-stake-s,611,1848043,0.0-19.0-0.0-0.114,A2KQ1VCW1B8QJP,3SD15I2WE5AO7614M34OSYMJOYM362,3PJUZCGDJAW0C572MT7YS9HJOXM988,7,8
115,1,object_02,object_05,392.0,1,2,172.0,0.6666666666666666,1,object_09,5,1166,0,6,7,desert_4,2,memory-2step-stake-s,612,1856152,0.0-19.0-0.0-0.115,A2KQ1VCW1B8QJP,3SD15I2WE5AO7614M34OSYMJOYM362,3PJUZCGDJAW0C572MT7YS9HJOXM988,2,1
116,1,object_05,object_02,352.0,2,2,975.0,0.8888888888888888,2,object_01,5,1206,0,4,8,desert_1,2,memory-2step-stake-s,613,1865303,0.0-19.0-0.0-0.116,A2KQ1VCW1B8QJP,3SD15I2WE5AO7614M34OSYMJOYM362,3PJUZCGDJAW0C572MT7YS9HJOXM988,1,2
117,3,object_08,object_03,652.0,6,1,756.0,0.6666666666666666,2,object_01,1,1212,0,2,6,library_6,2,memory-2step-stake-s,614,1873963,0.0-19.0-0.0-0.117,A2KQ1VCW1B8QJP,3SD15I2WE5AO7614M34OSYMJOYM362,3PJUZCGDJAW0C572MT7YS9HJOXM988,6,5
118,4,object_07,object_04,736.0,7,2,358.0,0.3333333333333333,1,object_09,1,1215,0,3,6,restaurant_2,2,memory-2step-stake-s,615,1881922,0.0-19.0-0.0-0.118,A2KQ1VCW1B8QJP,3SD15I2WE5AO7614M34OSYMJOYM362,3PJUZCGDJAW0C572MT7YS9HJOXM988,8,7
119,2,object_10,object_06,925.0,3,2,-1.0,0.0,1,object_09,5,1215,0,2,9,forest_5,2,memory-2step-stake-s,616,1890503,0.0-19.0-0.0-0.119,A2KQ1VCW1B8QJP,3SD15I2WE5AO7614M34OSYMJOYM362,3PJUZCGDJAW0C572MT7YS9HJOXM988,4,3
120,3,object_03,object_08,435.0,6,2,230.0,1.0,2,object_01,5,1260,0,2,9,library_7,2,memory-2step-stake-s,617,1898933,0.0-19.0-0.0-0.120,A2KQ1VCW1B8QJP,3SD15I2WE5AO7614M34OSYMJOYM362,3PJUZCGDJAW0C572MT7YS9HJOXM988,5,6
121,4,object_07,object_04,321.0,8,1,434.0,0.6666666666666666,2,object_01,1,1266,0,3,6,restaurant_5,2,memory-2step-stake-s,618,1907293,0.0-19.0-0.0-0.121,A2KQ1VCW1B8QJP,3SD15I2WE5AO7614M34OSYMJOYM362,3PJUZCGDJAW0C572MT7YS9HJOXM988,8,7
122,4,object_04,object_07,361.0,7,1,799.0,0.5555555555555556,1,object_09,1,1271,0,5,5,restaurant_4,2,memory-2step-stake-s,619,1915863,0.0-19.0-0.0-0.122,A2KQ1VCW1B8QJP,3SD15I2WE5AO7614M34OSYMJOYM362,3PJUZCGDJAW0C572MT7YS9HJOXM988,7,8
123,4,object_04,object_07,309.0,8,2,525.0,0.2222222222222222,2,object_01,5,1281,0,6,2,restaurant_2,2,memory-2step-stake-s,620,1923880,0.0-19.0-0.0-0.123,A2KQ1VCW1B8QJP,3SD15I2WE5AO7614M34OSYMJOYM362,3PJUZCGDJAW0C572MT7YS9HJOXM988,7,8
124,1,object_05,object_02,423.0,1,1,670.0,0.6666666666666666,1,object_09,5,1311,0,6,2,desert_5,2,memory-2step-stake-s,621,1932473,0.0-19.0-0.0-0.124,A2KQ1VCW1B8QJP,3SD15I2WE5AO7614M34OSYMJOYM362,3PJUZCGDJAW0C572MT7YS9HJOXM988,1,2
125,4,object_04,object_07,513.0,8,2,477.0,0.4444444444444444,2,object_01,1,1315,0,4,4,restaurant_8,2,memory-2step-stake-s,622,1940683,0.0-19.0-0.0-0.125,A2KQ1VCW1B8QJP,3SD15I2WE5AO7614M34OSYMJOYM362,3PJUZCGDJAW0C572MT7YS9HJOXM988,7,8
126,4,object_04,object_07,535.0,8,2,390.0,0.2222222222222222,2,object_01,1,1317,0,4,2,restaurant_8,2,memory-2step-stake-s,623,1948563,0.0-19.0-0.0-0.126,A2KQ1VCW1B8QJP,3SD15I2WE5AO7614M34OSYMJOYM362,3PJUZCGDJAW0C572MT7YS9HJOXM988,7,8
127,3,object_08,object_03,911.0,5,2,370.0,0.4444444444444444,1,object_09,5,1337,0,4,3,library_7,2,memory-2step-stake-s,624,1956623,0.0-19.0-0.0-0.127,A2KQ1VCW1B8QJP,3SD15I2WE5AO7614M34OSYMJOYM362,3PJUZCGDJAW0C572MT7YS9HJOXM988,6,5
128,3,object_03,object_08,-1.0,-1,-1,-1.0,0.0,-,0,1,1337,0,4,6,library_3,2,memory-2step-stake-s,626,2031393,0.0-19.0-0.1-0.128,A2KQ1VCW1B8QJP,3SD15I2WE5AO7614M34OSYMJOYM362,3PJUZCGDJAW0C572MT7YS9HJOXM988,5,6
129,1,object_05,object_02,314.0,2,2,365.0,0.6666666666666666,2,object_01,5,1367,0,2,6,desert_5,2,memory-2step-stake-s,627,2039653,0.0-19.0-0.1-0.129,A2KQ1VCW1B8QJP,3SD15I2WE5AO7614M34OSYMJOYM362,3PJUZCGDJAW0C572MT7YS9HJOXM988,1,2
130,1,object_05,object_02,402.0,2,2,343.0,0.7777777777777778,2,object_01,5,1402,0,2,7,desert_1,2,memory-2step-stake-s,628,2048024,0.0-19.0-0.1-0.130,A2KQ1VCW1B8QJP,3SD15I2WE5AO7614M34OSYMJOYM362,3PJUZCGDJAW0C572MT7YS9HJOXM988,1,2
131,1,object_02,object_05,477.0,2,1,385.0,1.0,2,object_01,5,1447,0,1,9,desert_4,2,memory-2step-stake-s,629,2056693,0.0-19.0-0.1-0.131,A2KQ1VCW1B8QJP,3SD15I2WE5AO7614M34OSYMJOYM362,3PJUZCGDJAW0C572MT7YS9HJOXM988,2,1
132,4,object_04,object_07,639.0,8,2,382.0,0.8888888888888888,2,object_01,5,1487,0,1,8,restaurant_5,2,memory-2step-stake-s,630,2065213,0.0-19.0-0.1-0.132,A2KQ1VCW1B8QJP,3SD15I2WE5AO7614M34OSYMJOYM362,3PJUZCGDJAW0C572MT7YS9HJOXM988,7,8
133,3,object_08,object_03,724.0,5,2,448.0,0.1111111111111111,1,object_09,1,1488,0,1,6,library_3,2,memory-2step-stake-s,631,2073034,0.0-19.0-0.1-0.133,A2KQ1VCW1B8QJP,3SD15I2WE5AO7614M34OSYMJOYM362,3PJUZCGDJAW0C572MT7YS9HJOXM988,6,5
134,4,object_07,object_04,608.0,8,1,323.0,0.6666666666666666,2,object_01,1,1494,0,2,6,restaurant_8,2,memory-2step-stake-s,632,2081324,0.0-19.0-0.1-0.134,A2KQ1VCW1B8QJP,3SD15I2WE5AO7614M34OSYMJOYM362,3PJUZCGDJAW0C572MT7YS9HJOXM988,8,7
135,4,object_04,object_07,503.0,8,2,501.0,0.6666666666666666,2,object_01,1,1500,0,1,6,restaurant_8,2,memory-2step-stake-s,633,2089773,0.0-19.0-0.1-0.135,A2KQ1VCW1B8QJP,3SD15I2WE5AO7614M34OSYMJOYM362,3PJUZCGDJAW0C572MT7YS9HJOXM988,7,8
136,3,object_03,object_08,658.0,6,2,383.0,0.7777777777777778,2,object_01,1,1507,0,1,7,library_7,2,memory-2step-stake-s,634,2098153,0.0-19.0-0.1-0.136,A2KQ1VCW1B8QJP,3SD15I2WE5AO7614M34OSYMJOYM362,3PJUZCGDJAW0C572MT7YS9HJOXM988,5,6
137,3,object_08,object_03,655.0,6,1,428.0,0.8888888888888888,2,object_01,5,1547,0,5,8,library_3,2,memory-2step-stake-s,635,2106734,0.0-19.0-0.1-0.137,A2KQ1VCW1B8QJP,3SD15I2WE5AO7614M34OSYMJOYM362,3PJUZCGDJAW0C572MT7YS9HJOXM988,6,5
138,2,object_06,object_10,528.0,4,2,262.0,0.8888888888888888,2,object_01,5,1587,0,1,8,forest_2,2,memory-2step-stake-s,636,2115138,0.0-19.0-0.1-0.138,A2KQ1VCW1B8QJP,3SD15I2WE5AO7614M34OSYMJOYM362,3PJUZCGDJAW0C572MT7YS9HJOXM988,3,4
139,1,object_02,object_05,609.0,2,1,510.0,0.7777777777777778,2,object_01,5,1622,0,1,7,desert_5,2,memory-2step-stake-s,637,2123669,0.0-19.0-0.1-0.139,A2KQ1VCW1B8QJP,3SD15I2WE5AO7614M34OSYMJOYM362,3PJUZCGDJAW0C572MT7YS9HJOXM988,2,1
140,1,object_05,object_02,580.0,2,2,512.0,0.8888888888888888,2,object_01,1,1630,0,1,8,desert_5,2,memory-2step-stake-s,638,2132363,0.0-19.0-0.1-0.140,A2KQ1VCW1B8QJP,3SD15I2WE5AO7614M34OSYMJOYM362,3PJUZCGDJAW0C572MT7YS9HJOXM988,1,2
141,2,object_06,object_10,704.0,4,2,581.0,1.0,2,object_01,1,1639,0,0,9,forest_5,2,memory-2step-stake-s,639,2141184,0.0-19.0-0.1-0.141,A2KQ1VCW1B8QJP,3SD15I2WE5AO7614M34OSYMJOYM362,3PJUZCGDJAW0C572MT7YS9HJOXM988,3,4
142,2,object_06,object_10,678.0,3,1,481.0,0.1111111111111111,1,object_09,5,1644,0,1,9,forest_5,2,memory-2step-stake-s,640,2149060,0.0-19.0-0.1-0.142,A2KQ1VCW1B8QJP,3SD15I2WE5AO7614M34OSYMJOYM362,3PJUZCGDJAW0C572MT7YS9HJOXM988,3,4
143,1,object_05,object_02,450.0,2,2,481.0,0.5555555555555556,2,object_01,1,1649,0,1,5,desert_5,2,memory-2step-stake-s,641,2157374,0.0-19.0-0.1-0.143,A2KQ1VCW1B8QJP,3SD15I2WE5AO7614M34OSYMJOYM362,3PJUZCGDJAW0C572MT7YS9HJOXM988,1,2
144,4,object_07,object_04,415.0,7,2,374.0,0.1111111111111111,1,object_09,1,1650,0,1,3,restaurant_4,2,memory-2step-stake-s,642,2165104,0.0-19.0-0.1-0.144,A2KQ1VCW1B8QJP,3SD15I2WE5AO7614M34OSYMJOYM362,3PJUZCGDJAW0C572MT7YS9HJOXM988,8,7
145,4,object_04,object_07,608.0,8,2,596.0,0.1111111111111111,2,object_01,5,1655,0,2,1,restaurant_4,2,memory-2step-stake-s,643,2173114,0.0-19.0-0.1-0.145,A2KQ1VCW1B8QJP,3SD15I2WE5AO7614M34OSYMJOYM362,3PJUZCGDJAW0C572MT7YS9HJOXM988,7,8
146,3,object_08,object_03,551.0,5,2,476.0,0.2222222222222222,1,object_09,1,1657,0,2,4,library_6,2,memory-2step-stake-s,644,2181094,0.0-19.0-0.1-0.146,A2KQ1VCW1B8QJP,3SD15I2WE5AO7614M34OSYMJOYM362,3PJUZCGDJAW0C572MT7YS9HJOXM988,6,5
147,2,object_10,object_06,479.0,4,1,403.0,0.3333333333333333,2,object_01,1,1660,0,0,3,forest_7,2,memory-2step-stake-s,645,2189084,0.0-19.0-0.1-0.147,A2KQ1VCW1B8QJP,3SD15I2WE5AO7614M34OSYMJOYM362,3PJUZCGDJAW0C572MT7YS9HJOXM988,4,3
148,4,object_04,object_07,371.0,8,2,373.0,0.1111111111111111,2,object_01,1,1661,0,1,1,restaurant_4,2,memory-2step-stake-s,646,2196834,0.0-19.0-0.1-0.148,A2KQ1VCW1B8QJP,3SD15I2WE5AO7614M34OSYMJOYM362,3PJUZCGDJAW0C572MT7YS9HJOXM988,7,8
149,2,object_06,object_10,408.0,4,2,323.0,0.2222222222222222,2,object_01,5,1671,0,1,2,forest_7,2,memory-2step-stake-s,647,2204674,0.0-19.0-0.1-0.149,A2KQ1VCW1B8QJP,3SD15I2WE5AO7614M34OSYMJOYM362,3PJUZCGDJAW0C572MT7YS9HJOXM988,3,4
150,4,object_04,object_07,454.0,8,2,509.0,0.3333333333333333,2,object_01,1,1674,0,4,3,restaurant_4,2,memory-2step-stake-s,648,2212864,0.0-19.0-0.1-0.150,A2KQ1VCW1B8QJP,3SD15I2WE5AO7614M34OSYMJOYM362,3PJUZCGDJAW0C572MT7YS9HJOXM988,7,8
151,3,object_08,object_03,580.0,6,1,496.0,0.2222222222222222,2,object_01,1,1676,0,4,2,library_7,2,memory-2step-stake-s,649,2220844,0.0-19.0-0.1-0.151,A2KQ1VCW1B8QJP,3SD15I2WE5AO7614M34OSYMJOYM362,3PJUZCGDJAW0C572MT7YS9HJOXM988,6,5
152,2,object_06,object_10,700.0,3,1,384.0,0.4444444444444444,1,object_09,5,1696,0,4,5,forest_5,2,memory-2step-stake-s,650,2228995,0.0-19.0-0.1-0.152,A2KQ1VCW1B8QJP,3SD15I2WE5AO7614M34OSYMJOYM362,3PJUZCGDJAW0C572MT7YS9HJOXM988,3,4
153,4,object_07,object_04,574.0,7,2,474.0,0.1111111111111111,1,object_09,1,1697,0,1,7,restaurant_8,2,memory-2step-stake-s,651,2236874,0.0-19.0-0.1-0.153,A2KQ1VCW1B8QJP,3SD15I2WE5AO7614M34OSYMJOYM362,3PJUZCGDJAW0C572MT7YS9HJOXM988,8,7
154,1,object_02,object_05,576.0,2,1,596.0,1.0,2,object_01,5,1742,0,1,9,desert_8,2,memory-2step-stake-s,652,2245775,0.0-19.0-0.1-0.154,A2KQ1VCW1B8QJP,3SD15I2WE5AO7614M34OSYMJOYM362,3PJUZCGDJAW0C572MT7YS9HJOXM988,2,1
155,3,object_03,object_08,644.0,6,2,424.0,1.0,2,object_01,1,1751,0,0,9,library_1,2,memory-2step-stake-s,653,2254444,0.0-19.0-0.1-0.155,A2KQ1VCW1B8QJP,3SD15I2WE5AO7614M34OSYMJOYM362,3PJUZCGDJAW0C572MT7YS9HJOXM988,5,6
156,2,object_10,object_06,731.0,3,2,668.0,0.1111111111111111,1,object_09,5,1756,0,1,8,forest_5,2,memory-2step-stake-s,654,2262514,0.0-19.0-0.1-0.156,A2KQ1VCW1B8QJP,3SD15I2WE5AO7614M34OSYMJOYM362,3PJUZCGDJAW0C572MT7YS9HJOXM988,4,3
157,3,object_08,object_03,426.0,6,1,841.0,0.6666666666666666,2,object_01,1,1762,0,1,6,library_7,2,memory-2step-stake-s,655,2271304,0.0-19.0-0.1-0.157,A2KQ1VCW1B8QJP,3SD15I2WE5AO7614M34OSYMJOYM362,3PJUZCGDJAW0C572MT7YS9HJOXM988,6,5
158,4,object_07,object_04,692.0,8,1,512.0,0.7777777777777778,2,object_01,1,1769,0,1,7,restaurant_4,2,memory-2step-stake-s,656,2279904,0.0-19.0-0.1-0.158,A2KQ1VCW1B8QJP,3SD15I2WE5AO7614M34OSYMJOYM362,3PJUZCGDJAW0C572MT7YS9HJOXM988,8,7
159,2,object_10,object_06,769.0,4,1,262.0,0.4444444444444444,2,object_01,1,1773,0,2,4,forest_6,2,memory-2step-stake-s,657,2287915,0.0-19.0-0.1-0.159,A2KQ1VCW1B8QJP,3SD15I2WE5AO7614M34OSYMJOYM362,3PJUZCGDJAW0C572MT7YS9HJOXM988,4,3
160,3,object_03,object_08,576.0,6,2,309.0,0.5555555555555556,2,object_01,5,1798,0,2,5,library_6,2,memory-2step-stake-s,658,2296034,0.0-19.0-0.1-0.160,A2KQ1VCW1B8QJP,3SD15I2WE5AO7614M34OSYMJOYM362,3PJUZCGDJAW0C572MT7YS9HJOXM988,5,6
161,3,object_03,object_08,491.0,5,1,335.0,0.0,1,object_09,1,1798,0,0,4,library_1,2,memory-2step-stake-s,659,2303655,0.0-19.0-0.1-0.161,A2KQ1VCW1B8QJP,3SD15I2WE5AO7614M34OSYMJOYM362,3PJUZCGDJAW0C572MT7YS9HJOXM988,5,6
162,3,object_08,object_03,441.0,6,1,345.0,0.0,2,object_01,1,1798,0,1,0,library_1,2,memory-2step-stake-s,660,2311285,0.0-19.0-0.1-0.162,A2KQ1VCW1B8QJP,3SD15I2WE5AO7614M34OSYMJOYM362,3PJUZCGDJAW0C572MT7YS9HJOXM988,6,5
163,2,object_10,object_06,790.0,3,2,268.0,0.0,1,object_09,5,1798,0,0,1,forest_7,2,memory-2step-stake-s,661,2318815,0.0-19.0-0.1-0.163,A2KQ1VCW1B8QJP,3SD15I2WE5AO7614M34OSYMJOYM362,3PJUZCGDJAW0C572MT7YS9HJOXM988,4,3
164,2,object_06,object_10,531.0,3,1,87.0,0.4444444444444444,1,object_09,5,1818,0,4,1,forest_2,2,memory-2step-stake-s,662,2326564,0.0-19.0-0.1-0.164,A2KQ1VCW1B8QJP,3SD15I2WE5AO7614M34OSYMJOYM362,3PJUZCGDJAW0C572MT7YS9HJOXM988,3,4
165,3,object_08,object_03,578.0,5,2,497.0,0.5555555555555556,1,object_09,1,1823,0,5,1,library_1,2,memory-2step-stake-s,663,2334865,0.0-19.0-0.1-0.165,A2KQ1VCW1B8QJP,3SD15I2WE5AO7614M34OSYMJOYM362,3PJUZCGDJAW0C572MT7YS9HJOXM988,6,5
166,2,object_10,object_06,420.0,4,1,409.0,0.2222222222222222,2,object_01,5,1833,0,6,2,forest_7,2,memory-2step-stake-s,664,2342755,0.0-19.0-0.1-0.166,A2KQ1VCW1B8QJP,3SD15I2WE5AO7614M34OSYMJOYM362,3PJUZCGDJAW0C572MT7YS9HJOXM988,4,3
167,2,object_06,object_10,581.0,4,2,352.0,0.0,2,object_01,1,1833,0,9,0,forest_7,2,memory-2step-stake-s,665,2350395,0.0-19.0-0.1-0.167,A2KQ1VCW1B8QJP,3SD15I2WE5AO7614M34OSYMJOYM362,3PJUZCGDJAW0C572MT7YS9HJOXM988,3,4
168,1,object_05,object_02,608.0,2,2,414.0,0.1111111111111111,2,object_01,5,1838,0,8,1,desert_5,2,memory-2step-stake-s,666,2358205,0.0-19.0-0.1-0.168,A2KQ1VCW1B8QJP,3SD15I2WE5AO7614M34OSYMJOYM362,3PJUZCGDJAW0C572MT7YS9HJOXM988,1,2
169,2,object_06,object_10,569.0,4,2,335.0,0.3333333333333333,2,object_01,5,1853,0,6,3,forest_7,2,memory-2step-stake-s,667,2366145,0.0-19.0-0.1-0.169,A2KQ1VCW1B8QJP,3SD15I2WE5AO7614M34OSYMJOYM362,3PJUZCGDJAW0C572MT7YS9HJOXM988,3,4
170,3,object_08,object_03,642.0,6,1,353.0,0.4444444444444444,2,object_01,1,1857,0,4,4,library_3,2,memory-2step-stake-s,668,2374225,0.0-19.0-0.1-0.170,A2KQ1VCW1B8QJP,3SD15I2WE5AO7614M34OSYMJOYM362,3PJUZCGDJAW0C572MT7YS9HJOXM988,6,5
171,1,object_05,object_02,560.0,2,2,461.0,0.3333333333333333,2,object_01,5,1872,0,2,3,desert_8,2,memory-2step-stake-s,669,2382346,0.0-19.0-0.1-0.171,A2KQ1VCW1B8QJP,3SD15I2WE5AO7614M34OSYMJOYM362,3PJUZCGDJAW0C572MT7YS9HJOXM988,1,2
172,3,object_08,object_03,721.0,6,1,511.0,0.2222222222222222,2,object_01,1,1874,0,4,2,library_1,2,memory-2step-stake-s,670,2390345,0.0-19.0-0.1-0.172,A2KQ1VCW1B8QJP,3SD15I2WE5AO7614M34OSYMJOYM362,3PJUZCGDJAW0C572MT7YS9HJOXM988,6,5
173,4,object_04,object_07,940.0,8,2,422.0,0.2222222222222222,2,object_01,1,1876,0,0,2,restaurant_4,2,memory-2step-stake-s,671,2398255,0.0-19.0-0.1-0.173,A2KQ1VCW1B8QJP,3SD15I2WE5AO7614M34OSYMJOYM362,3PJUZCGDJAW0C572MT7YS9HJOXM988,7,8
174,3,object_08,object_03,612.0,6,1,320.0,0.2222222222222222,2,object_01,5,1886,0,0,2,library_6,2,memory-2step-stake-s,672,2406074,0.0-19.0-0.1-0.174,A2KQ1VCW1B8QJP,3SD15I2WE5AO7614M34OSYMJOYM362,3PJUZCGDJAW0C572MT7YS9HJOXM988,6,5
175,1,object_02,object_05,612.0,2,1,663.0,0.3333333333333333,2,object_01,1,1889,0,3,3,desert_4,2,memory-2step-stake-s,673,2414335,0.0-19.0-0.1-0.175,A2KQ1VCW1B8QJP,3SD15I2WE5AO7614M34OSYMJOYM362,3PJUZCGDJAW0C572MT7YS9HJOXM988,2,1
176,4,object_04,object_07,626.0,8,2,510.0,0.1111111111111111,2,object_01,1,1890,0,4,1,restaurant_2,2,memory-2step-stake-s,674,2422235,0.0-19.0-0.1-0.176,A2KQ1VCW1B8QJP,3SD15I2WE5AO7614M34OSYMJOYM362,3PJUZCGDJAW0C572MT7YS9HJOXM988,7,8
177,4,object_04,object_07,721.0,8,2,355.0,0.0,2,object_01,1,1890,0,4,0,restaurant_2,2,memory-2step-stake-s,675,2429865,0.0-19.0-0.1-0.177,A2KQ1VCW1B8QJP,3SD15I2WE5AO7614M34OSYMJOYM362,3PJUZCGDJAW0C572MT7YS9HJOXM988,7,8
178,2,object_06,object_10,720.0,4,2,359.0,0.3333333333333333,2,object_01,5,1905,0,3,3,forest_6,2,memory-2step-stake-s,676,2437835,0.0-19.0-0.1-0.178,A2KQ1VCW1B8QJP,3SD15I2WE5AO7614M34OSYMJOYM362,3PJUZCGDJAW0C572MT7YS9HJOXM988,3,4
179,3,object_08,object_03,607.0,6,1,597.0,0.0,2,object_01,1,1905,0,3,0,library_1,2,memory-2step-stake-s,677,2445686,0.0-19.0-0.1-0.179,A2KQ1VCW1B8QJP,3SD15I2WE5AO7614M34OSYMJOYM362,3PJUZCGDJAW0C572MT7YS9HJOXM988,6,5
180,4,object_07,object_04,588.0,8,1,431.0,0.3333333333333333,2,object_01,1,1908,0,4,3,restaurant_8,2,memory-2step-stake-s,678,2453745,0.0-19.0-0.1-0.180,A2KQ1VCW1B8QJP,3SD15I2WE5AO7614M34OSYMJOYM362,3PJUZCGDJAW0C572MT7YS9HJOXM988,8,7
181,2,object_10,object_06,891.0,4,1,431.0,0.6666666666666666,2,object_01,5,1938,0,2,6,forest_7,2,memory-2step-stake-s,679,2462086,0.0-19.0-0.1-0.181,A2KQ1VCW1B8QJP,3SD15I2WE5AO7614M34OSYMJOYM362,3PJUZCGDJAW0C572MT7YS9HJOXM988,4,3
182,1,object_02,object_05,632.0,2,1,323.0,0.6666666666666666,2,object_01,5,1968,0,1,6,desert_1,2,memory-2step-stake-s,680,2470356,0.0-19.0-0.1-0.182,A2KQ1VCW1B8QJP,3SD15I2WE5AO7614M34OSYMJOYM362,3PJUZCGDJAW0C572MT7YS9HJOXM988,2,1
183,2,object_10,object_06,685.0,4,1,577.0,0.8888888888888888,2,object_01,1,1976,0,2,8,forest_6,2,memory-2step-stake-s,681,2479106,0.0-19.0-0.1-0.183,A2KQ1VCW1B8QJP,3SD15I2WE5AO7614M34OSYMJOYM362,3PJUZCGDJAW0C572MT7YS9HJOXM988,4,3
184,4,object_07,object_04,601.0,8,1,541.0,1.0,2,object_01,1,1985,0,1,9,restaurant_4,2,memory-2step-stake-s,682,2487936,0.0-19.0-0.1-0.184,A2KQ1VCW1B8QJP,3SD15I2WE5AO7614M34OSYMJOYM362,3PJUZCGDJAW0C572MT7YS9HJOXM988,8,7
185,3,object_08,object_03,534.0,6,1,545.0,0.8888888888888888,2,object_01,5,2025,0,3,8,library_3,2,memory-2step-stake-s,683,2496662,0.0-19.0-0.1-0.185,A2KQ1VCW1B8QJP,3SD15I2WE5AO7614M34OSYMJOYM362,3PJUZCGDJAW0C572MT7YS9HJOXM988,6,5
186,2,object_10,object_06,784.0,4,1,321.0,0.8888888888888888,2,object_01,5,2065,0,3,8,forest_2,2,memory-2step-stake-s,684,2505095,0.0-19.0-0.1-0.186,A2KQ1VCW1B8QJP,3SD15I2WE5AO7614M34OSYMJOYM362,3PJUZCGDJAW0C572MT7YS9HJOXM988,4,3
187,2,object_10,object_06,628.0,4,1,585.0,0.6666666666666666,2,object_01,5,2095,0,3,6,forest_7,2,memory-2step-stake-s,685,2513575,0.0-19.0-0.1-0.187,A2KQ1VCW1B8QJP,3SD15I2WE5AO7614M34OSYMJOYM362,3PJUZCGDJAW0C572MT7YS9HJOXM988,4,3
188,1,object_02,object_05,680.0,2,1,356.0,1.0,2,object_01,5,2140,0,7,9,desert_5,2,memory-2step-stake-s,686,2522215,0.0-19.0-0.1-0.188,A2KQ1VCW1B8QJP,3SD15I2WE5AO7614M34OSYMJOYM362,3PJUZCGDJAW0C572MT7YS9HJOXM988,2,1
189,1,object_05,object_02,645.0,2,2,381.0,0.8888888888888888,2,object_01,5,2180,0,6,8,desert_5,2,memory-2step-stake-s,687,2530756,0.0-19.0-0.1-0.189,A2KQ1VCW1B8QJP,3SD15I2WE5AO7614M34OSYMJOYM362,3PJUZCGDJAW0C572MT7YS9HJOXM988,1,2
190,2,object_06,object_10,686.0,3,1,386.0,0.4444444444444444,1,object_09,5,2200,0,4,7,forest_7,2,memory-2step-stake-s,688,2538836,0.0-19.0-0.1-0.190,A2KQ1VCW1B8QJP,3SD15I2WE5AO7614M34OSYMJOYM362,3PJUZCGDJAW0C572MT7YS9HJOXM988,3,4
191,3,object_03,object_08,704.0,6,2,190.0,0.6666666666666666,2,object_01,5,2230,0,3,6,library_1,2,memory-2step-stake-s,689,2546945,0.0-19.0-0.1-0.191,A2KQ1VCW1B8QJP,3SD15I2WE5AO7614M34OSYMJOYM362,3PJUZCGDJAW0C572MT7YS9HJOXM988,5,6
192,3,object_03,object_08,598.0,6,2,563.0,1.0,2,object_01,1,2239,0,2,9,library_7,2,memory-2step-stake-s,690,2555745,0.0-19.0-0.1-0.192,A2KQ1VCW1B8QJP,3SD15I2WE5AO7614M34OSYMJOYM362,3PJUZCGDJAW0C572MT7YS9HJOXM988,5,6
193,3,object_03,object_08,491.0,6,2,401.0,0.7777777777777778,2,object_01,1,2246,0,3,7,library_6,2,memory-2step-stake-s,691,2564175,0.0-19.0-0.1-0.193,A2KQ1VCW1B8QJP,3SD15I2WE5AO7614M34OSYMJOYM362,3PJUZCGDJAW0C572MT7YS9HJOXM988,5,6
194,4,object_07,object_04,696.0,8,1,428.0,0.5555555555555556,2,object_01,1,2251,0,5,5,restaurant_5,2,memory-2step-stake-s,692,2572396,0.0-19.0-0.1-0.194,A2KQ1VCW1B8QJP,3SD15I2WE5AO7614M34OSYMJOYM362,3PJUZCGDJAW0C572MT7YS9HJOXM988,8,7
195,2,object_06,object_10,671.0,4,2,389.0,0.6666666666666666,2,object_01,1,2257,0,5,6,forest_6,2,memory-2step-stake-s,693,2580707,0.0-19.0-0.1-0.195,A2KQ1VCW1B8QJP,3SD15I2WE5AO7614M34OSYMJOYM362,3PJUZCGDJAW0C572MT7YS9HJOXM988,3,4
196,3,object_08,object_03,696.0,6,1,444.0,0.8888888888888888,2,object_01,1,2265,0,4,8,library_6,2,memory-2step-stake-s,694,2589336,0.0-19.0-0.1-0.196,A2KQ1VCW1B8QJP,3SD15I2WE5AO7614M34OSYMJOYM362,3PJUZCGDJAW0C572MT7YS9HJOXM988,6,5
197,3,object_03,object_08,621.0,6,2,461.0,1.0,2,object_01,5,2310,0,1,9,library_1,2,memory-2step-stake-s,695,2598046,0.0-19.0-0.1-0.197,A2KQ1VCW1B8QJP,3SD15I2WE5AO7614M34OSYMJOYM362,3PJUZCGDJAW0C572MT7YS9HJOXM988,5,6
198,1,object_02,object_05,536.0,2,1,531.0,0.5555555555555556,2,object_01,1,2315,0,3,5,desert_8,2,memory-2step-stake-s,696,2606396,0.0-19.0-0.1-0.198,A2KQ1VCW1B8QJP,3SD15I2WE5AO7614M34OSYMJOYM362,3PJUZCGDJAW0C572MT7YS9HJOXM988,2,1
199,2,object_10,object_06,408.0,4,1,295.0,0.5555555555555556,2,object_01,5,2340,0,7,5,forest_5,2,memory-2step-stake-s,697,2614506,0.0-19.0-0.1-0.199,A2KQ1VCW1B8QJP,3SD15I2WE5AO7614M34OSYMJOYM362,3PJUZCGDJAW0C572MT7YS9HJOXM988,4,3
200,3,object_03,object_08,648.0,6,2,438.0,0.4444444444444444,2,object_01,1,2344,0,9,4,library_3,2,memory-2step-stake-s,698,2622706,0.0-19.0-0.1-0.200,A2KQ1VCW1B8QJP,3SD15I2WE5AO7614M34OSYMJOYM362,3PJUZCGDJAW0C572MT7YS9HJOXM988,5,6
201,2,object_06,object_10,476.0,4,2,354.0,0.4444444444444444,2,object_01,5,2364,0,7,4,forest_7,2,memory-2step-stake-s,699,2630746,0.0-19.0-0.1-0.201,A2KQ1VCW1B8QJP,3SD15I2WE5AO7614M34OSYMJOYM362,3PJUZCGDJAW0C572MT7YS9HJOXM988,3,4
202,4,object_04,object_07,729.0,8,2,353.0,0.4444444444444444,2,object_01,1,2368,0,8,4,restaurant_8,2,memory-2step-stake-s,700,2638827,0.0-19.0-0.1-0.202,A2KQ1VCW1B8QJP,3SD15I2WE5AO7614M34OSYMJOYM362,3PJUZCGDJAW0C572MT7YS9HJOXM988,7,8
203,2,object_10,object_06,655.0,4,1,502.0,0.4444444444444444,2,object_01,5,2388,0,9,4,forest_5,2,memory-2step-stake-s,701,2647076,0.0-19.0-0.1-0.203,A2KQ1VCW1B8QJP,3SD15I2WE5AO7614M34OSYMJOYM362,3PJUZCGDJAW0C572MT7YS9HJOXM988,4,3
204,4,object_07,object_04,706.0,8,1,400.0,0.1111111111111111,2,object_01,1,2389,0,8,1,restaurant_2,2,memory-2step-stake-s,702,2654886,0.0-19.0-0.1-0.204,A2KQ1VCW1B8QJP,3SD15I2WE5AO7614M34OSYMJOYM362,3PJUZCGDJAW0C572MT7YS9HJOXM988,8,7
205,3,object_03,object_08,530.0,6,2,477.0,0.1111111111111111,2,object_01,1,2390,0,4,1,library_7,2,memory-2step-stake-s,703,2662716,0.0-19.0-0.1-0.205,A2KQ1VCW1B8QJP,3SD15I2WE5AO7614M34OSYMJOYM362,3PJUZCGDJAW0C572MT7YS9HJOXM988,5,6
206,3,object_03,object_08,542.0,6,2,404.0,0.1111111111111111,2,object_01,1,2391,0,7,1,library_6,2,memory-2step-stake-s,704,2670546,0.0-19.0-0.1-0.206,A2KQ1VCW1B8QJP,3SD15I2WE5AO7614M34OSYMJOYM362,3PJUZCGDJAW0C572MT7YS9HJOXM988,5,6
207,3,object_03,object_08,498.0,6,2,544.0,0.0,2,object_01,1,2391,0,8,0,library_3,2,memory-2step-stake-s,705,2678376,0.0-19.0-0.1-0.207,A2KQ1VCW1B8QJP,3SD15I2WE5AO7614M34OSYMJOYM362,3PJUZCGDJAW0C572MT7YS9HJOXM988,5,6
208,2,object_06,object_10,756.0,4,2,456.0,0.3333333333333333,2,object_01,5,2406,0,9,3,forest_6,2,memory-2step-stake-s,706,2686475,0.0-19.0-0.1-0.208,A2KQ1VCW1B8QJP,3SD15I2WE5AO7614M34OSYMJOYM362,3PJUZCGDJAW0C572MT7YS9HJOXM988,3,4
209,4,object_07,object_04,786.0,8,1,584.0,0.3333333333333333,2,object_01,1,2409,0,8,3,restaurant_8,2,memory-2step-stake-s,707,2694697,0.0-19.0-0.1-0.209,A2KQ1VCW1B8QJP,3SD15I2WE5AO7614M34OSYMJOYM362,3PJUZCGDJAW0C572MT7YS9HJOXM988,8,7
210,4,object_04,object_07,508.0,8,2,418.0,0.1111111111111111,2,object_01,1,2410,0,8,1,restaurant_4,2,memory-2step-stake-s,708,2702487,0.0-19.0-0.1-0.210,A2KQ1VCW1B8QJP,3SD15I2WE5AO7614M34OSYMJOYM362,3PJUZCGDJAW0C572MT7YS9HJOXM988,7,8
211,1,object_05,object_02,602.0,2,2,423.0,0.2222222222222222,2,object_01,1,2412,0,5,2,desert_1,2,memory-2step-stake-s,709,2710387,0.0-19.0-0.1-0.211,A2KQ1VCW1B8QJP,3SD15I2WE5AO7614M34OSYMJOYM362,3PJUZCGDJAW0C572MT7YS9HJOXM988,1,2
212,3,object_08,object_03,781.0,6,1,371.0,0.2222222222222222,2,object_01,1,2414,0,6,2,library_7,2,memory-2step-stake-s,710,2718237,0.0-19.0-0.1-0.212,A2KQ1VCW1B8QJP,3SD15I2WE5AO7614M34OSYMJOYM362,3PJUZCGDJAW0C572MT7YS9HJOXM988,6,5
213,2,object_06,object_10,488.0,3,1,532.0,0.6666666666666666,1,object_09,5,2444,0,6,1,forest_2,2,memory-2step-stake-s,711,2726747,0.0-19.0-0.1-0.213,A2KQ1VCW1B8QJP,3SD15I2WE5AO7614M34OSYMJOYM362,3PJUZCGDJAW0C572MT7YS9HJOXM988,3,4
214,4,object_04,object_07,733.0,7,1,332.0,0.8888888888888888,1,object_09,5,2484,0,8,0,restaurant_8,2,memory-2step-stake-s,712,2735227,0.0-19.0-0.1-0.214,A2KQ1VCW1B8QJP,3SD15I2WE5AO7614M34OSYMJOYM362,3PJUZCGDJAW0C572MT7YS9HJOXM988,7,8
215,1,object_05,object_02,609.0,1,1,447.0,0.7777777777777778,1,object_09,5,2519,0,7,0,desert_8,2,memory-2step-stake-s,713,2743706,0.0-19.0-0.1-0.215,A2KQ1VCW1B8QJP,3SD15I2WE5AO7614M34OSYMJOYM362,3PJUZCGDJAW0C572MT7YS9HJOXM988,1,2
216,1,object_02,object_05,470.0,1,2,467.0,0.7777777777777778,1,object_09,5,2554,0,7,0,desert_8,2,memory-2step-stake-s,714,2752166,0.0-19.0-0.1-0.216,A2KQ1VCW1B8QJP,3SD15I2WE5AO7614M34OSYMJOYM362,3PJUZCGDJAW0C572MT7YS9HJOXM988,2,1
217,2,object_10,object_06,464.0,3,2,399.0,0.7777777777777778,1,object_09,5,2589,0,7,2,forest_2,2,memory-2step-stake-s,715,2760597,0.0-19.0-0.1-0.217,A2KQ1VCW1B8QJP,3SD15I2WE5AO7614M34OSYMJOYM362,3PJUZCGDJAW0C572MT7YS9HJOXM988,4,3
218,3,object_03,object_08,456.0,5,1,435.0,0.6666666666666666,1,object_09,1,2595,0,6,4,library_1,2,memory-2step-stake-s,716,2768996,0.0-19.0-0.1-0.218,A2KQ1VCW1B8QJP,3SD15I2WE5AO7614M34OSYMJOYM362,3PJUZCGDJAW0C572MT7YS9HJOXM988,5,6
219,1,object_05,object_02,568.0,1,1,466.0,0.6666666666666666,1,object_09,5,2625,0,6,5,desert_1,2,memory-2step-stake-s,717,2777377,0.0-19.0-0.1-0.219,A2KQ1VCW1B8QJP,3SD15I2WE5AO7614M34OSYMJOYM362,3PJUZCGDJAW0C572MT7YS9HJOXM988,1,2
220,4,object_04,object_07,477.0,7,1,356.0,0.5555555555555556,1,object_09,1,2630,0,5,6,restaurant_5,2,memory-2step-stake-s,718,2785527,0.0-19.0-0.1-0.220,A2KQ1VCW1B8QJP,3SD15I2WE5AO7614M34OSYMJOYM362,3PJUZCGDJAW0C572MT7YS9HJOXM988,7,8
221,4,object_04,object_07,492.0,7,1,508.0,0.6666666666666666,1,object_09,1,2636,0,6,9,restaurant_5,2,memory-2step-stake-s,719,2793977,0.0-19.0-0.1-0.221,A2KQ1VCW1B8QJP,3SD15I2WE5AO7614M34OSYMJOYM362,3PJUZCGDJAW0C572MT7YS9HJOXM988,7,8
222,2,object_06,object_10,778.0,3,1,278.0,0.5555555555555556,1,object_09,5,2661,0,5,8,forest_7,2,memory-2step-stake-s,720,2802077,0.0-19.0-0.1-0.222,A2KQ1VCW1B8QJP,3SD15I2WE5AO7614M34OSYMJOYM362,3PJUZCGDJAW0C572MT7YS9HJOXM988,3,4
223,1,object_02,object_05,656.0,1,2,460.0,0.3333333333333333,1,object_09,5,2676,0,3,7,desert_1,2,memory-2step-stake-s,721,2810197,0.0-19.0-0.1-0.223,A2KQ1VCW1B8QJP,3SD15I2WE5AO7614M34OSYMJOYM362,3PJUZCGDJAW0C572MT7YS9HJOXM988,2,1
224,3,object_08,object_03,442.0,5,2,296.0,0.2222222222222222,1,object_09,1,2678,0,2,6,library_1,2,memory-2step-stake-s,722,2817977,0.0-19.0-0.1-0.224,A2KQ1VCW1B8QJP,3SD15I2WE5AO7614M34OSYMJOYM362,3PJUZCGDJAW0C572MT7YS9HJOXM988,6,5
225,3,object_03,object_08,481.0,6,2,318.0,1.0,2,object_01,1,2687,0,5,9,library_7,2,memory-2step-stake-s,723,2826547,0.0-19.0-0.1-0.225,A2KQ1VCW1B8QJP,3SD15I2WE5AO7614M34OSYMJOYM362,3PJUZCGDJAW0C572MT7YS9HJOXM988,5,6
226,4,object_04,object_07,602.0,8,2,372.0,0.4444444444444444,2,object_01,1,2691,0,1,4,restaurant_2,2,memory-2step-stake-s,724,2834617,0.0-19.0-0.1-0.226,A2KQ1VCW1B8QJP,3SD15I2WE5AO7614M34OSYMJOYM362,3PJUZCGDJAW0C572MT7YS9HJOXM988,7,8
227,2,object_10,object_06,438.0,4,1,464.0,0.4444444444444444,2,object_01,5,2711,0,1,4,forest_2,2,memory-2step-stake-s,725,2842757,0.0-19.0-0.1-0.227,A2KQ1VCW1B8QJP,3SD15I2WE5AO7614M34OSYMJOYM362,3PJUZCGDJAW0C572MT7YS9HJOXM988,4,3
228,4,object_04,object_07,431.0,8,2,340.0,0.2222222222222222,2,object_01,1,2713,0,0,2,restaurant_8,2,memory-2step-stake-s,726,2850607,0.0-19.0-0.1-0.228,A2KQ1VCW1B8QJP,3SD15I2WE5AO7614M34OSYMJOYM362,3PJUZCGDJAW0C572MT7YS9HJOXM988,7,8
229,4,object_04,object_07,490.0,8,2,520.0,0.0,2,object_01,1,2713,0,1,0,restaurant_4,2,memory-2step-stake-s,727,2858382,0.0-19.0-0.1-0.229,A2KQ1VCW1B8QJP,3SD15I2WE5AO7614M34OSYMJOYM362,3PJUZCGDJAW0C572MT7YS9HJOXM988,7,8
230,1,object_02,object_05,447.0,1,2,670.0,0.2222222222222222,1,object_09,1,2715,0,2,2,desert_8,2,memory-2step-stake-s,728,2866527,0.0-19.0-0.1-0.230,A2KQ1VCW1B8QJP,3SD15I2WE5AO7614M34OSYMJOYM362,3PJUZCGDJAW0C572MT7YS9HJOXM988,2,1
231,4,object_07,object_04,634.0,8,1,454.0,0.3333333333333333,2,object_01,1,2718,0,3,3,restaurant_4,2,memory-2step-stake-s,729,2874627,0.0-19.0-0.1-0.231,A2KQ1VCW1B8QJP,3SD15I2WE5AO7614M34OSYMJOYM362,3PJUZCGDJAW0C572MT7YS9HJOXM988,8,7
232,4,object_04,object_07,491.0,7,1,297.0,0.1111111111111111,1,object_09,1,2719,0,1,0,restaurant_2,2,memory-2step-stake-s,730,2882277,0.0-19.0-0.1-0.232,A2KQ1VCW1B8QJP,3SD15I2WE5AO7614M34OSYMJOYM362,3PJUZCGDJAW0C572MT7YS9HJOXM988,7,8
233,4,object_04,object_07,414.0,8,2,1026.0,0.1111111111111111,2,object_01,1,2720,0,5,1,restaurant_8,2,memory-2step-stake-s,731,2890697,0.0-19.0-0.1-0.233,A2KQ1VCW1B8QJP,3SD15I2WE5AO7614M34OSYMJOYM362,3PJUZCGDJAW0C572MT7YS9HJOXM988,7,8
234,2,object_06,object_10,1023.0,3,1,221.0,0.7777777777777778,1,object_09,5,2755,0,7,0,forest_6,2,memory-2step-stake-s,732,2898917,0.0-19.0-0.1-0.234,A2KQ1VCW1B8QJP,3SD15I2WE5AO7614M34OSYMJOYM362,3PJUZCGDJAW0C572MT7YS9HJOXM988,3,4
235,1,object_02,object_05,479.0,1,2,234.0,0.7777777777777778,1,object_09,1,2762,0,7,2,desert_5,2,memory-2step-stake-s,733,2907217,0.0-19.0-0.1-0.235,A2KQ1VCW1B8QJP,3SD15I2WE5AO7614M34OSYMJOYM362,3PJUZCGDJAW0C572MT7YS9HJOXM988,2,1
236,1,object_05,object_02,563.0,1,1,344.0,0.6666666666666666,1,object_09,5,2792,0,6,5,desert_4,2,memory-2step-stake-s,734,2915557,0.0-19.0-0.1-0.236,A2KQ1VCW1B8QJP,3SD15I2WE5AO7614M34OSYMJOYM362,3PJUZCGDJAW0C572MT7YS9HJOXM988,1,2
237,2,object_10,object_06,698.0,3,2,374.0,1.0,1,object_09,5,2837,0,9,5,forest_5,2,memory-2step-stake-s,735,2924187,0.0-19.0-0.1-0.237,A2KQ1VCW1B8QJP,3SD15I2WE5AO7614M34OSYMJOYM362,3PJUZCGDJAW0C572MT7YS9HJOXM988,4,3
238,1,object_02,object_05,420.0,1,2,337.0,0.8888888888888888,1,object_09,5,2877,0,8,6,desert_1,2,memory-2step-stake-s,736,2932637,0.0-19.0-0.1-0.238,A2KQ1VCW1B8QJP,3SD15I2WE5AO7614M34OSYMJOYM362,3PJUZCGDJAW0C572MT7YS9HJOXM988,2,1
239,1,object_02,object_05,442.0,1,2,605.0,0.8888888888888888,1,object_09,5,2917,0,8,8,desert_5,2,memory-2step-stake-s,737,2941368,0.0-19.0-0.1-0.239,A2KQ1VCW1B8QJP,3SD15I2WE5AO7614M34OSYMJOYM362,3PJUZCGDJAW0C572MT7YS9HJOXM988,2,1
240,4,object_07,object_04,758.0,7,2,363.0,1.0,1,object_09,1,2926,0,9,8,restaurant_5,2,memory-2step-stake-s,738,2949997,0.0-19.0-0.1-0.240,A2KQ1VCW1B8QJP,3SD15I2WE5AO7614M34OSYMJOYM362,3PJUZCGDJAW0C572MT7YS9HJOXM988,8,7
241,4,object_04,object_07,489.0,7,1,397.0,1.0,1,object_09,1,2935,0,9,8,restaurant_8,2,memory-2step-stake-s,739,2958587,0.0-19.0-0.1-0.241,A2KQ1VCW1B8QJP,3SD15I2WE5AO7614M34OSYMJOYM362,3PJUZCGDJAW0C572MT7YS9HJOXM988,7,8
242,3,object_08,object_03,900.0,5,2,282.0,1.0,1,object_09,1,2944,0,9,7,library_6,2,memory-2step-stake-s,740,2967107,0.0-19.0-0.1-0.242,A2KQ1VCW1B8QJP,3SD15I2WE5AO7614M34OSYMJOYM362,3PJUZCGDJAW0C572MT7YS9HJOXM988,6,5
243,2,object_06,object_10,679.0,3,1,389.0,0.6666666666666666,1,object_09,1,2950,0,6,9,forest_5,2,memory-2step-stake-s,741,2975398,0.0-19.0-0.1-0.243,A2KQ1VCW1B8QJP,3SD15I2WE5AO7614M34OSYMJOYM362,3PJUZCGDJAW0C572MT7YS9HJOXM988,3,4
244,4,object_07,object_04,481.0,7,2,322.0,0.4444444444444444,1,object_09,1,2954,0,4,7,restaurant_2,2,memory-2step-stake-s,742,2983378,0.0-19.0-0.1-0.244,A2KQ1VCW1B8QJP,3SD15I2WE5AO7614M34OSYMJOYM362,3PJUZCGDJAW0C572MT7YS9HJOXM988,8,7
245,1,object_05,object_02,490.0,2,2,281.0,1.0,2,object_01,5,2999,0,2,9,desert_1,2,memory-2step-stake-s,743,2991908,0.0-19.0-0.1-0.245,A2KQ1VCW1B8QJP,3SD15I2WE5AO7614M34OSYMJOYM362,3PJUZCGDJAW0C572MT7YS9HJOXM988,1,2
246,2,object_06,object_10,802.0,4,2,306.0,1.0,2,object_01,5,3044,0,3,9,forest_6,2,memory-2step-stake-s,744,3000457,0.0-19.0-0.1-0.246,A2KQ1VCW1B8QJP,3SD15I2WE5AO7614M34OSYMJOYM362,3PJUZCGDJAW0C572MT7YS9HJOXM988,3,4
247,2,object_10,object_06,450.0,4,1,272.0,1.0,2,object_01,5,3089,0,4,9,forest_6,2,memory-2step-stake-s,745,3009028,0.0-19.0-0.1-0.247,A2KQ1VCW1B8QJP,3SD15I2WE5AO7614M34OSYMJOYM362,3PJUZCGDJAW0C572MT7YS9HJOXM988,4,3
248,4,object_07,object_04,475.0,7,2,312.0,0.5555555555555556,1,object_09,1,3094,0,5,9,restaurant_8,2,memory-2step-stake-s,746,3017158,0.0-19.0-0.1-0.248,A2KQ1VCW1B8QJP,3SD15I2WE5AO7614M34OSYMJOYM362,3PJUZCGDJAW0C572MT7YS9HJOXM988,8,7
249,4,object_07,object_04,473.0,7,2,317.0,0.5555555555555556,1,object_09,1,3099,0,5,7,restaurant_5,2,memory-2step-stake-s,747,3025288,0.0-19.0-0.1-0.249,A2KQ1VCW1B8QJP,3SD15I2WE5AO7614M34OSYMJOYM362,3PJUZCGDJAW0C572MT7YS9HJOXM988,8,7
250,3,object_03,object_08,514.0,5,1,325.0,0.6666666666666666,1,object_09,1,3105,0,6,8,library_3,2,memory-2step-stake-s,748,3033538,0.0-19.0-0.1-0.250,A2KQ1VCW1B8QJP,3SD15I2WE5AO7614M34OSYMJOYM362,3PJUZCGDJAW0C572MT7YS9HJOXM988,5,6
251,1,object_05,object_02,725.0,1,1,266.0,0.5555555555555556,1,object_09,5,3130,0,5,7,desert_8,2,memory-2step-stake-s,749,3041608,0.0-19.0-0.1-0.251,A2KQ1VCW1B8QJP,3SD15I2WE5AO7614M34OSYMJOYM362,3PJUZCGDJAW0C572MT7YS9HJOXM988,1,2
252,3,object_08,object_03,598.0,6,1,460.0,0.5555555555555556,2,object_01,1,3135,0,9,5,library_1,2,memory-2step-stake-s,750,3049898,0.0-19.0-0.1-0.252,A2KQ1VCW1B8QJP,3SD15I2WE5AO7614M34OSYMJOYM362,3PJUZCGDJAW0C572MT7YS9HJOXM988,6,5
253,1,object_02,object_05,838.0,2,1,474.0,0.3333333333333333,2,object_01,5,3150,0,8,3,desert_8,2,memory-2step-stake-s,751,3057988,0.0-19.0-0.1-0.253,A2KQ1VCW1B8QJP,3SD15I2WE5AO7614M34OSYMJOYM362,3PJUZCGDJAW0C572MT7YS9HJOXM988,2,1
254,4,object_07,object_04,714.0,8,1,495.0,0.5555555555555556,2,object_01,5,3175,0,7,5,restaurant_2,2,memory-2step-stake-s,752,3066298,0.0-19.0-0.1-0.254,A2KQ1VCW1B8QJP,3SD15I2WE5AO7614M34OSYMJOYM362,3PJUZCGDJAW0C572MT7YS9HJOXM988,8,7
255,4,object_07,object_04,665.0,8,1,600.0,0.4444444444444444,2,object_01,1,3179,0,6,4,restaurant_2,2,memory-2step-stake-s,753,3074638,0.0-19.0-0.1-0.255,A2KQ1VCW1B8QJP,3SD15I2WE5AO7614M34OSYMJOYM362,3PJUZCGDJAW0C572MT7YS9HJOXM988,8,7
