,state1,stim_left,stim_right,rt_1,choice1,response1,rt_2,points,state2,stim_state2,stake,score,practice,rews1,rews2,background,high_arm,trial_type,trial_index,time_elapsed,internal_node_id,subid,hitid,assignmentid,stim_left_num,stim_right_num
0,4,object_01,object_02,941.10000002384,8,2,628.89999997616,0.1111111111111111,2,object_05,5,5,0,2,1,restaurant_6,1,memory-2step-stake-s,500,799427,0.0-19.0-0.0-0.0,A25W2HZYMZVCM1,31KPKEKW5DTYWQJ2Z73D1GA4ZNDB00,30BXRYBRP8D4HCL3I8BWJ6ITPH0WH3,7,8
1,2,object_06,object_04,980.80000007153,3,1,1241.4000000954,0.2222222222222222,1,object_03,1,7,0,2,0,forest_7,1,memory-2step-stake-s,501,808138,0.0-19.0-0.0-0.1,A25W2HZYMZVCM1,31KPKEKW5DTYWQJ2Z73D1GA4ZNDB00,30BXRYBRP8D4HCL3I8BWJ6ITPH0WH3,3,4
2,3,object_08,object_10,1090.2000000477,6,1,458.5,0.1111111111111111,2,object_05,5,12,0,1,1,library_1,1,memory-2step-stake-s,502,815966,0.0-19.0-0.0-0.2,A25W2HZYMZVCM1,31KPKEKW5DTYWQJ2Z73D1GA4ZNDB00,30BXRYBRP8D4HCL3I8BWJ6ITPH0WH3,6,5
3,2,object_06,object_04,563.70000004768,4,2,662.10000002384,0.2222222222222222,2,object_05,1,14,0,3,2,forest_2,1,memory-2step-stake-s,503,824081,0.0-19.0-0.0-0.3,A25W2HZYMZVCM1,31KPKEKW5DTYWQJ2Z73D1GA4ZNDB00,30BXRYBRP8D4HCL3I8BWJ6ITPH0WH3,3,4
4,2,object_04,object_06,958.0,4,1,456.89999997616,0.1111111111111111,2,object_05,1,15,0,1,1,forest_2,1,memory-2step-stake-s,504,831891,0.0-19.0-0.0-0.4,A25W2HZYMZVCM1,31KPKEKW5DTYWQJ2Z73D1GA4ZNDB00,30BXRYBRP8D4HCL3I8BWJ6ITPH0WH3,4,3
5,2,object_04,object_06,1410.0,4,1,585.69999992847,0.0,2,object_05,1,15,0,6,0,forest_6,1,memory-2step-stake-s,505,839759,0.0-19.0-0.0-0.5,A25W2HZYMZVCM1,31KPKEKW5DTYWQJ2Z73D1GA4ZNDB00,30BXRYBRP8D4HCL3I8BWJ6ITPH0WH3,4,3
6,3,object_08,object_10,1055.8999999762,6,1,580.19999992847,0.1111111111111111,2,object_05,5,20,0,6,1,library_1,1,memory-2step-stake-s,506,847706,0.0-19.0-0.0-0.6,A25W2HZYMZVCM1,31KPKEKW5DTYWQJ2Z73D1GA4ZNDB00,30BXRYBRP8D4HCL3I8BWJ6ITPH0WH3,6,5
7,4,object_02,object_01,-1.0,-1,-1,-1.0,0.0,-,0,1,20,0,5,2,restaurant_6,1,memory-2step-stake-s,507,854237,0.0-19.0-0.0-0.7,A25W2HZYMZVCM1,31KPKEKW5DTYWQJ2Z73D1GA4ZNDB00,30BXRYBRP8D4HCL3I8BWJ6ITPH0WH3,8,7
8,3,object_10,object_08,1152.7000000477,5,1,515.09999990463,0.2222222222222222,1,object_03,5,30,0,2,1,library_7,1,memory-2step-stake-s,508,862224,0.0-19.0-0.0-0.8,A25W2HZYMZVCM1,31KPKEKW5DTYWQJ2Z73D1GA4ZNDB00,30BXRYBRP8D4HCL3I8BWJ6ITPH0WH3,5,6
9,3,object_08,object_10,848.29999995232,5,2,544.10000002384,0.4444444444444444,1,object_03,1,34,0,4,6,library_5,1,memory-2step-stake-s,509,870448,0.0-19.0-0.0-0.9,A25W2HZYMZVCM1,31KPKEKW5DTYWQJ2Z73D1GA4ZNDB00,30BXRYBRP8D4HCL3I8BWJ6ITPH0WH3,6,5
10,2,object_04,object_06,979.0,3,2,401.5,0.5555555555555556,1,object_03,1,39,0,5,6,forest_7,1,memory-2step-stake-s,510,878646,0.0-19.0-0.0-0.10,A25W2HZYMZVCM1,31KPKEKW5DTYWQJ2Z73D1GA4ZNDB00,30BXRYBRP8D4HCL3I8BWJ6ITPH0WH3,4,3
11,4,object_02,object_01,1079.3999999762,8,1,477.19999992847,0.5555555555555556,2,object_05,5,64,0,3,5,restaurant_6,1,memory-2step-stake-s,511,886904,0.0-19.0-0.0-0.11,A25W2HZYMZVCM1,31KPKEKW5DTYWQJ2Z73D1GA4ZNDB00,30BXRYBRP8D4HCL3I8BWJ6ITPH0WH3,8,7
12,2,object_04,object_06,901.39999997616,3,2,328.80000007153,0.1111111111111111,1,object_03,5,69,0,1,8,forest_2,1,memory-2step-stake-s,512,894619,0.0-19.0-0.0-0.12,A25W2HZYMZVCM1,31KPKEKW5DTYWQJ2Z73D1GA4ZNDB00,30BXRYBRP8D4HCL3I8BWJ6ITPH0WH3,4,3
13,1,object_09,object_07,1080.1000000238,2,1,471.5,0.8888888888888888,2,object_05,1,77,0,0,8,desert_8,1,memory-2step-stake-s,513,903166,0.0-19.0-0.0-0.13,A25W2HZYMZVCM1,31KPKEKW5DTYWQJ2Z73D1GA4ZNDB00,30BXRYBRP8D4HCL3I8BWJ6ITPH0WH3,2,1
14,1,object_09,object_07,979.79999995232,2,1,481.39999997616,0.6666666666666666,2,object_05,5,107,0,2,6,desert_8,1,memory-2step-stake-s,514,911539,0.0-19.0-0.0-0.14,A25W2HZYMZVCM1,31KPKEKW5DTYWQJ2Z73D1GA4ZNDB00,30BXRYBRP8D4HCL3I8BWJ6ITPH0WH3,2,1
15,3,object_10,object_08,1413.8999999762,5,1,428.39999997616,0.2222222222222222,1,object_03,1,109,0,2,4,library_1,1,memory-2step-stake-s,515,919433,0.0-19.0-0.0-0.15,A25W2HZYMZVCM1,31KPKEKW5DTYWQJ2Z73D1GA4ZNDB00,30BXRYBRP8D4HCL3I8BWJ6ITPH0WH3,5,6
16,4,object_02,object_01,917.39999997616,8,1,368.89999997616,0.5555555555555556,2,object_05,1,114,0,4,5,restaurant_5,1,memory-2step-stake-s,516,927591,0.0-19.0-0.0-0.16,A25W2HZYMZVCM1,31KPKEKW5DTYWQJ2Z73D1GA4ZNDB00,30BXRYBRP8D4HCL3I8BWJ6ITPH0WH3,8,7
17,3,object_08,object_10,1052.7000000477,5,2,304.39999997616,0.2222222222222222,1,object_03,5,124,0,2,6,library_1,1,memory-2step-stake-s,517,935351,0.0-19.0-0.0-0.17,A25W2HZYMZVCM1,31KPKEKW5DTYWQJ2Z73D1GA4ZNDB00,30BXRYBRP8D4HCL3I8BWJ6ITPH0WH3,6,5
18,3,object_08,object_10,913.89999997616,5,2,276.60000002384,0.1111111111111111,1,object_03,1,125,0,1,5,library_7,1,memory-2step-stake-s,518,942989,0.0-19.0-0.0-0.18,A25W2HZYMZVCM1,31KPKEKW5DTYWQJ2Z73D1GA4ZNDB00,30BXRYBRP8D4HCL3I8BWJ6ITPH0WH3,6,5
19,1,object_09,object_07,1034.8999999762,2,1,332.89999997616,0.6666666666666666,2,object_05,1,131,0,1,6,desert_5,1,memory-2step-stake-s,519,951221,0.0-19.0-0.0-0.19,A25W2HZYMZVCM1,31KPKEKW5DTYWQJ2Z73D1GA4ZNDB00,30BXRYBRP8D4HCL3I8BWJ6ITPH0WH3,2,1
20,1,object_07,object_09,821.0,2,2,307.10000002384,0.7777777777777778,2,object_05,1,138,0,2,7,desert_3,1,memory-2step-stake-s,520,959538,0.0-19.0-0.0-0.20,A25W2HZYMZVCM1,31KPKEKW5DTYWQJ2Z73D1GA4ZNDB00,30BXRYBRP8D4HCL3I8BWJ6ITPH0WH3,1,2
21,4,object_02,object_01,666.29999995232,8,1,305.19999992847,0.5555555555555556,2,object_05,5,163,0,1,5,restaurant_6,1,memory-2step-stake-s,521,967622,0.0-19.0-0.0-0.21,A25W2HZYMZVCM1,31KPKEKW5DTYWQJ2Z73D1GA4ZNDB00,30BXRYBRP8D4HCL3I8BWJ6ITPH0WH3,8,7
22,4,object_02,object_01,656.39999997616,7,2,272.10000002384,0.3333333333333333,1,object_03,1,166,0,3,6,restaurant_5,1,memory-2step-stake-s,522,975451,0.0-19.0-0.0-0.22,A25W2HZYMZVCM1,31KPKEKW5DTYWQJ2Z73D1GA4ZNDB00,30BXRYBRP8D4HCL3I8BWJ6ITPH0WH3,8,7
23,2,object_04,object_06,926.5,3,2,455.0,0.4444444444444444,1,object_03,1,170,0,4,8,forest_6,1,memory-2step-stake-s,523,983575,0.0-19.0-0.0-0.23,A25W2HZYMZVCM1,31KPKEKW5DTYWQJ2Z73D1GA4ZNDB00,30BXRYBRP8D4HCL3I8BWJ6ITPH0WH3,4,3
24,4,object_02,object_01,1440.1000000238,7,2,1069.5999999046,0.5555555555555556,1,object_03,1,175,0,5,9,restaurant_7,1,memory-2step-stake-s,524,992438,0.0-19.0-0.0-0.24,A25W2HZYMZVCM1,31KPKEKW5DTYWQJ2Z73D1GA4ZNDB00,30BXRYBRP8D4HCL3I8BWJ6ITPH0WH3,8,7
25,2,object_04,object_06,1064.1000000238,3,2,593.19999992847,0.2222222222222222,1,object_03,1,177,0,2,7,forest_2,1,memory-2step-stake-s,525,1000498,0.0-19.0-0.0-0.25,A25W2HZYMZVCM1,31KPKEKW5DTYWQJ2Z73D1GA4ZNDB00,30BXRYBRP8D4HCL3I8BWJ6ITPH0WH3,4,3
26,3,object_08,object_10,1494.6000000238,6,1,501.70000004768,0.3333333333333333,2,object_05,5,192,0,3,3,library_1,1,memory-2step-stake-s,526,1008583,0.0-19.0-0.0-0.26,A25W2HZYMZVCM1,31KPKEKW5DTYWQJ2Z73D1GA4ZNDB00,30BXRYBRP8D4HCL3I8BWJ6ITPH0WH3,6,5
27,4,object_01,object_02,909.10000002384,7,1,678.29999995232,0.6666666666666666,1,object_03,5,222,0,6,1,restaurant_7,1,memory-2step-stake-s,527,1017136,0.0-19.0-0.0-0.27,A25W2HZYMZVCM1,31KPKEKW5DTYWQJ2Z73D1GA4ZNDB00,30BXRYBRP8D4HCL3I8BWJ6ITPH0WH3,7,8
28,1,object_09,object_07,1017.5,2,1,1014.8999999762,0.1111111111111111,2,object_05,5,227,0,8,1,desert_8,1,memory-2step-stake-s,528,1025518,0.0-19.0-0.0-0.28,A25W2HZYMZVCM1,31KPKEKW5DTYWQJ2Z73D1GA4ZNDB00,30BXRYBRP8D4HCL3I8BWJ6ITPH0WH3,2,1
29,3,object_08,object_10,672.5,5,2,1039.5,0.8888888888888888,1,object_03,5,267,0,8,4,library_1,1,memory-2step-stake-s,529,1034693,0.0-19.0-0.0-0.29,A25W2HZYMZVCM1,31KPKEKW5DTYWQJ2Z73D1GA4ZNDB00,30BXRYBRP8D4HCL3I8BWJ6ITPH0WH3,6,5
30,4,object_02,object_01,26.799999952316,8,1,506.30000007153,0.3333333333333333,2,object_05,5,282,0,5,3,restaurant_5,1,memory-2step-stake-s,530,1042781,0.0-19.0-0.0-0.30,A25W2HZYMZVCM1,31KPKEKW5DTYWQJ2Z73D1GA4ZNDB00,30BXRYBRP8D4HCL3I8BWJ6ITPH0WH3,8,7
31,2,object_06,object_04,647.5,4,2,606.0,0.2222222222222222,2,object_05,1,284,0,1,2,forest_6,1,memory-2step-stake-s,531,1050840,0.0-19.0-0.0-0.31,A25W2HZYMZVCM1,31KPKEKW5DTYWQJ2Z73D1GA4ZNDB00,30BXRYBRP8D4HCL3I8BWJ6ITPH0WH3,3,4
32,3,object_08,object_10,304.60000002384,6,1,699.59999990463,0.0,2,object_05,5,284,0,2,0,library_5,1,memory-2step-stake-s,532,1058781,0.0-19.0-0.0-0.32,A25W2HZYMZVCM1,31KPKEKW5DTYWQJ2Z73D1GA4ZNDB00,30BXRYBRP8D4HCL3I8BWJ6ITPH0WH3,6,5
33,4,object_02,object_01,804.10000002384,7,2,352.30000007153,0.1111111111111111,1,object_03,5,289,0,1,0,restaurant_7,1,memory-2step-stake-s,533,1066507,0.0-19.0-0.0-0.33,A25W2HZYMZVCM1,31KPKEKW5DTYWQJ2Z73D1GA4ZNDB00,30BXRYBRP8D4HCL3I8BWJ6ITPH0WH3,8,7
34,2,object_06,object_04,891.59999990463,4,2,345.19999992847,0.3333333333333333,2,object_05,1,292,0,2,3,forest_7,1,memory-2step-stake-s,534,1074420,0.0-19.0-0.0-0.34,A25W2HZYMZVCM1,31KPKEKW5DTYWQJ2Z73D1GA4ZNDB00,30BXRYBRP8D4HCL3I8BWJ6ITPH0WH3,3,4
35,3,object_10,object_08,1002.1000000238,6,2,370.90000009537,0.1111111111111111,2,object_05,5,297,0,1,1,library_5,1,memory-2step-stake-s,535,1082165,0.0-19.0-0.0-0.35,A25W2HZYMZVCM1,31KPKEKW5DTYWQJ2Z73D1GA4ZNDB00,30BXRYBRP8D4HCL3I8BWJ6ITPH0WH3,5,6
36,4,object_01,object_02,350.39999997616,7,1,454.39999997616,0.4444444444444444,1,object_03,1,301,0,4,3,restaurant_5,1,memory-2step-stake-s,536,1090317,0.0-19.0-0.0-0.36,A25W2HZYMZVCM1,31KPKEKW5DTYWQJ2Z73D1GA4ZNDB00,30BXRYBRP8D4HCL3I8BWJ6ITPH0WH3,7,8
37,3,object_10,object_08,381.80000007153,6,2,635.60000002384,0.3333333333333333,2,object_05,5,316,0,3,3,library_7,1,memory-2step-stake-s,537,1098561,0.0-19.0-0.0-0.37,A25W2HZYMZVCM1,31KPKEKW5DTYWQJ2Z73D1GA4ZNDB00,30BXRYBRP8D4HCL3I8BWJ6ITPH0WH3,5,6
38,2,object_06,object_04,488.39999997616,3,1,543.0,0.8888888888888888,1,object_03,1,324,0,8,4,forest_3,1,memory-2step-stake-s,538,1107189,0.0-19.0-0.0-0.38,A25W2HZYMZVCM1,31KPKEKW5DTYWQJ2Z73D1GA4ZNDB00,30BXRYBRP8D4HCL3I8BWJ6ITPH0WH3,3,4
39,1,object_07,object_09,429.40000009537,2,2,652.70000004768,0.6666666666666666,2,object_05,1,330,0,8,6,desert_3,1,memory-2step-stake-s,539,1115735,0.0-19.0-0.0-0.39,A25W2HZYMZVCM1,31KPKEKW5DTYWQJ2Z73D1GA4ZNDB00,30BXRYBRP8D4HCL3I8BWJ6ITPH0WH3,1,2
40,1,object_07,object_09,345.29999995232,1,1,313.79999995232,0.6666666666666666,1,object_03,1,336,0,6,6,desert_6,1,memory-2step-stake-s,540,1123935,0.0-19.0-0.0-0.40,A25W2HZYMZVCM1,31KPKEKW5DTYWQJ2Z73D1GA4ZNDB00,30BXRYBRP8D4HCL3I8BWJ6ITPH0WH3,1,2
41,4,object_02,object_01,342.60000002384,8,1,283.89999997616,0.6666666666666666,2,object_05,5,366,0,6,6,restaurant_6,1,memory-2step-stake-s,541,1132101,0.0-19.0-0.0-0.41,A25W2HZYMZVCM1,31KPKEKW5DTYWQJ2Z73D1GA4ZNDB00,30BXRYBRP8D4HCL3I8BWJ6ITPH0WH3,8,7
42,1,object_09,object_07,339.70000004768,1,2,484.89999997616,0.7777777777777778,1,object_03,5,401,0,7,8,desert_5,1,memory-2step-stake-s,542,1140579,0.0-19.0-0.0-0.42,A25W2HZYMZVCM1,31KPKEKW5DTYWQJ2Z73D1GA4ZNDB00,30BXRYBRP8D4HCL3I8BWJ6ITPH0WH3,2,1
43,4,object_01,object_02,476.89999997616,8,2,794.39999997616,0.8888888888888888,2,object_05,5,441,0,7,8,restaurant_5,1,memory-2step-stake-s,543,1149485,0.0-19.0-0.0-0.43,A25W2HZYMZVCM1,31KPKEKW5DTYWQJ2Z73D1GA4ZNDB00,30BXRYBRP8D4HCL3I8BWJ6ITPH0WH3,7,8
44,2,object_06,object_04,416.89999997616,3,1,820.60000002384,0.6666666666666666,1,object_03,1,447,0,6,6,forest_6,1,memory-2step-stake-s,544,1158227,0.0-19.0-0.0-0.44,A25W2HZYMZVCM1,31KPKEKW5DTYWQJ2Z73D1GA4ZNDB00,30BXRYBRP8D4HCL3I8BWJ6ITPH0WH3,3,4
45,2,object_04,object_06,1301.7000000477,3,2,-1.0,0.0,1,object_03,1,447,0,5,6,forest_6,1,memory-2step-stake-s,545,1166783,0.0-19.0-0.0-0.45,A25W2HZYMZVCM1,31KPKEKW5DTYWQJ2Z73D1GA4ZNDB00,30BXRYBRP8D4HCL3I8BWJ6ITPH0WH3,4,3
46,3,object_10,object_08,286.70000004768,5,1,859.89999997616,0.1111111111111111,1,object_03,1,448,0,1,8,library_7,1,memory-2step-stake-s,546,1175001,0.0-19.0-0.0-0.46,A25W2HZYMZVCM1,31KPKEKW5DTYWQJ2Z73D1GA4ZNDB00,30BXRYBRP8D4HCL3I8BWJ6ITPH0WH3,5,6
47,4,object_02,object_01,760.89999997616,7,2,850.5,0.1111111111111111,1,object_03,5,453,0,1,6,restaurant_3,1,memory-2step-stake-s,547,1183205,0.0-19.0-0.0-0.47,A25W2HZYMZVCM1,31KPKEKW5DTYWQJ2Z73D1GA4ZNDB00,30BXRYBRP8D4HCL3I8BWJ6ITPH0WH3,8,7
48,1,object_07,object_09,551.39999997616,1,1,723.89999997616,0.0,1,object_03,1,453,0,0,7,desert_8,1,memory-2step-stake-s,548,1191192,0.0-19.0-0.0-0.48,A25W2HZYMZVCM1,31KPKEKW5DTYWQJ2Z73D1GA4ZNDB00,30BXRYBRP8D4HCL3I8BWJ6ITPH0WH3,1,2
49,2,object_04,object_06,553.10000002384,3,2,703.89999997616,0.2222222222222222,1,object_03,1,455,0,2,4,forest_7,1,memory-2step-stake-s,549,1199382,0.0-19.0-0.0-0.49,A25W2HZYMZVCM1,31KPKEKW5DTYWQJ2Z73D1GA4ZNDB00,30BXRYBRP8D4HCL3I8BWJ6ITPH0WH3,4,3
50,3,object_10,object_08,574.89999997616,5,1,565.80000007153,0.2222222222222222,1,object_03,5,465,0,2,4,library_7,1,memory-2step-stake-s,550,1207417,0.0-19.0-0.0-0.50,A25W2HZYMZVCM1,31KPKEKW5DTYWQJ2Z73D1GA4ZNDB00,30BXRYBRP8D4HCL3I8BWJ6ITPH0WH3,5,6
51,4,object_01,object_02,478.60000002384,8,2,682.29999995232,0.4444444444444444,2,object_05,5,485,0,4,4,restaurant_3,1,memory-2step-stake-s,551,1215786,0.0-19.0-0.0-0.51,A25W2HZYMZVCM1,31KPKEKW5DTYWQJ2Z73D1GA4ZNDB00,30BXRYBRP8D4HCL3I8BWJ6ITPH0WH3,7,8
52,4,object_01,object_02,550.10000002384,7,1,583.5,0.4444444444444444,1,object_03,1,489,0,4,1,restaurant_7,1,memory-2step-stake-s,552,1224068,0.0-19.0-0.0-0.52,A25W2HZYMZVCM1,31KPKEKW5DTYWQJ2Z73D1GA4ZNDB00,30BXRYBRP8D4HCL3I8BWJ6ITPH0WH3,7,8
53,2,object_04,object_06,288.29999995232,3,2,621.89999997616,0.6666666666666666,1,object_03,5,519,0,6,4,forest_7,1,memory-2step-stake-s,553,1232588,0.0-19.0-0.0-0.53,A25W2HZYMZVCM1,31KPKEKW5DTYWQJ2Z73D1GA4ZNDB00,30BXRYBRP8D4HCL3I8BWJ6ITPH0WH3,4,3
54,2,object_04,object_06,65.200000047684,4,1,535.79999995232,0.5555555555555556,2,object_05,1,524,0,1,5,forest_6,1,memory-2step-stake-s,554,1240890,0.0-19.0-0.0-0.54,A25W2HZYMZVCM1,31KPKEKW5DTYWQJ2Z73D1GA4ZNDB00,30BXRYBRP8D4HCL3I8BWJ6ITPH0WH3,4,3
55,3,object_08,object_10,728.5,6,1,501.10000002384,0.5555555555555556,2,object_05,1,529,0,0,5,library_1,1,memory-2step-stake-s,555,1249206,0.0-19.0-0.0-0.55,A25W2HZYMZVCM1,31KPKEKW5DTYWQJ2Z73D1GA4ZNDB00,30BXRYBRP8D4HCL3I8BWJ6ITPH0WH3,6,5
56,3,object_10,object_08,666.5,6,2,535.29999995232,0.5555555555555556,2,object_05,1,534,0,2,5,library_4,1,memory-2step-stake-s,556,1257550,0.0-19.0-0.0-0.56,A25W2HZYMZVCM1,31KPKEKW5DTYWQJ2Z73D1GA4ZNDB00,30BXRYBRP8D4HCL3I8BWJ6ITPH0WH3,5,6
57,3,object_10,object_08,543.90000009537,5,1,972.80000007153,0.2222222222222222,1,object_03,5,544,0,2,7,library_4,1,memory-2step-stake-s,557,1265999,0.0-19.0-0.0-0.57,A25W2HZYMZVCM1,31KPKEKW5DTYWQJ2Z73D1GA4ZNDB00,30BXRYBRP8D4HCL3I8BWJ6ITPH0WH3,5,6
58,1,object_07,object_09,402.59999990463,2,2,472.60000002384,0.5555555555555556,2,object_05,1,549,0,1,5,desert_6,1,memory-2step-stake-s,558,1274222,0.0-19.0-0.0-0.58,A25W2HZYMZVCM1,31KPKEKW5DTYWQJ2Z73D1GA4ZNDB00,30BXRYBRP8D4HCL3I8BWJ6ITPH0WH3,1,2
59,3,object_10,object_08,293.10000002384,5,1,523.40000009537,0.1111111111111111,1,object_03,5,554,0,1,4,library_1,1,memory-2step-stake-s,559,1282113,0.0-19.0-0.0-0.59,A25W2HZYMZVCM1,31KPKEKW5DTYWQJ2Z73D1GA4ZNDB00,30BXRYBRP8D4HCL3I8BWJ6ITPH0WH3,5,6
60,2,object_06,object_04,307.39999997616,4,2,433.39999997616,0.0,2,object_05,1,554,0,3,0,forest_2,1,memory-2step-stake-s,560,1289827,0.0-19.0-0.0-0.60,A25W2HZYMZVCM1,31KPKEKW5DTYWQJ2Z73D1GA4ZNDB00,30BXRYBRP8D4HCL3I8BWJ6ITPH0WH3,3,4
61,1,object_07,object_09,493.80000007153,1,1,702.89999997616,0.3333333333333333,1,object_03,1,557,0,3,0,desert_6,1,memory-2step-stake-s,561,1298097,0.0-19.0-0.0-0.61,A25W2HZYMZVCM1,31KPKEKW5DTYWQJ2Z73D1GA4ZNDB00,30BXRYBRP8D4HCL3I8BWJ6ITPH0WH3,1,2
62,4,object_02,object_01,520.20000004768,7,2,534.70000004768,0.3333333333333333,1,object_03,5,572,0,3,1,restaurant_6,1,memory-2step-stake-s,562,1306198,0.0-19.0-0.0-0.62,A25W2HZYMZVCM1,31KPKEKW5DTYWQJ2Z73D1GA4ZNDB00,30BXRYBRP8D4HCL3I8BWJ6ITPH0WH3,8,7
63,4,object_02,object_01,337.29999995232,8,1,575.10000002384,0.3333333333333333,2,object_05,5,587,0,2,3,restaurant_5,1,memory-2step-stake-s,563,1314335,0.0-19.0-0.0-0.63,A25W2HZYMZVCM1,31KPKEKW5DTYWQJ2Z73D1GA4ZNDB00,30BXRYBRP8D4HCL3I8BWJ6ITPH0WH3,8,7
64,1,object_07,object_09,745.29999995232,2,2,277.5,0.1111111111111111,2,object_05,1,588,0,4,1,desert_3,1,memory-2step-stake-s,564,1321981,0.0-19.0-0.0-0.64,A25W2HZYMZVCM1,31KPKEKW5DTYWQJ2Z73D1GA4ZNDB00,30BXRYBRP8D4HCL3I8BWJ6ITPH0WH3,1,2
65,2,object_04,object_06,579.89999997616,4,1,683.60000002384,0.1111111111111111,2,object_05,1,589,0,3,1,forest_2,1,memory-2step-stake-s,565,1330036,0.0-19.0-0.0-0.65,A25W2HZYMZVCM1,31KPKEKW5DTYWQJ2Z73D1GA4ZNDB00,30BXRYBRP8D4HCL3I8BWJ6ITPH0WH3,4,3
66,1,object_09,object_07,111.5,1,2,719.79999995232,0.0,1,object_03,1,589,0,0,3,desert_6,1,memory-2step-stake-s,566,1338034,0.0-19.0-0.0-0.66,A25W2HZYMZVCM1,31KPKEKW5DTYWQJ2Z73D1GA4ZNDB00,30BXRYBRP8D4HCL3I8BWJ6ITPH0WH3,2,1
67,2,object_06,object_04,912.59999990463,3,1,250.60000002384,0.0,1,object_03,1,589,0,0,3,forest_2,1,memory-2step-stake-s,567,1345570,0.0-19.0-0.0-0.67,A25W2HZYMZVCM1,31KPKEKW5DTYWQJ2Z73D1GA4ZNDB00,30BXRYBRP8D4HCL3I8BWJ6ITPH0WH3,3,4
68,4,object_01,object_02,706.89999997616,8,2,467.60000002384,0.5555555555555556,2,object_05,5,614,0,2,5,restaurant_3,1,memory-2step-stake-s,568,1353856,0.0-19.0-0.0-0.68,A25W2HZYMZVCM1,31KPKEKW5DTYWQJ2Z73D1GA4ZNDB00,30BXRYBRP8D4HCL3I8BWJ6ITPH0WH3,7,8
69,1,object_09,object_07,625.70000004768,2,1,309.60000002384,0.8888888888888888,2,object_05,1,622,0,3,8,desert_3,1,memory-2step-stake-s,569,1362274,0.0-19.0-0.0-0.69,A25W2HZYMZVCM1,31KPKEKW5DTYWQJ2Z73D1GA4ZNDB00,30BXRYBRP8D4HCL3I8BWJ6ITPH0WH3,2,1
70,2,object_06,object_04,569.60000002384,3,1,500.70000004768,0.8888888888888888,1,object_03,1,630,0,8,9,forest_3,1,memory-2step-stake-s,570,1370876,0.0-19.0-0.0-0.70,A25W2HZYMZVCM1,31KPKEKW5DTYWQJ2Z73D1GA4ZNDB00,30BXRYBRP8D4HCL3I8BWJ6ITPH0WH3,3,4
71,3,object_08,object_10,441.89999997616,5,2,595.70000004768,1.0,1,object_03,5,675,0,9,7,library_4,1,memory-2step-stake-s,571,1379700,0.0-19.0-0.0-0.71,A25W2HZYMZVCM1,31KPKEKW5DTYWQJ2Z73D1GA4ZNDB00,30BXRYBRP8D4HCL3I8BWJ6ITPH0WH3,6,5
72,4,object_01,object_02,309.5,7,1,364.5,1.0,1,object_03,5,720,0,9,8,restaurant_3,1,memory-2step-stake-s,572,1388282,0.0-19.0-0.0-0.72,A25W2HZYMZVCM1,31KPKEKW5DTYWQJ2Z73D1GA4ZNDB00,30BXRYBRP8D4HCL3I8BWJ6ITPH0WH3,7,8
73,3,object_08,object_10,247.5,5,2,635.19999992847,0.4444444444444444,1,object_03,5,740,0,4,5,library_7,1,memory-2step-stake-s,573,1396568,0.0-19.0-0.0-0.73,A25W2HZYMZVCM1,31KPKEKW5DTYWQJ2Z73D1GA4ZNDB00,30BXRYBRP8D4HCL3I8BWJ6ITPH0WH3,6,5
74,2,object_06,object_04,680.30000007153,4,2,962.39999997616,0.3333333333333333,2,object_05,1,743,0,6,3,forest_2,1,memory-2step-stake-s,574,1405113,0.0-19.0-0.0-0.74,A25W2HZYMZVCM1,31KPKEKW5DTYWQJ2Z73D1GA4ZNDB00,30BXRYBRP8D4HCL3I8BWJ6ITPH0WH3,3,4
75,4,object_01,object_02,1026.3999999762,7,1,445.10000002384,0.8888888888888888,1,object_03,5,783,0,8,6,restaurant_7,1,memory-2step-stake-s,575,1413651,0.0-19.0-0.0-0.75,A25W2HZYMZVCM1,31KPKEKW5DTYWQJ2Z73D1GA4ZNDB00,30BXRYBRP8D4HCL3I8BWJ6ITPH0WH3,7,8
76,4,object_02,object_01,425.80000007153,7,2,1329.7000000477,0.7777777777777778,1,object_03,1,790,0,7,8,restaurant_3,1,memory-2step-stake-s,576,1422982,0.0-19.0-0.0-0.76,A25W2HZYMZVCM1,31KPKEKW5DTYWQJ2Z73D1GA4ZNDB00,30BXRYBRP8D4HCL3I8BWJ6ITPH0WH3,8,7
77,4,object_01,object_02,305.0,7,1,397.80000007153,0.8888888888888888,1,object_03,5,830,0,8,9,restaurant_6,1,memory-2step-stake-s,577,1431473,0.0-19.0-0.0-0.77,A25W2HZYMZVCM1,31KPKEKW5DTYWQJ2Z73D1GA4ZNDB00,30BXRYBRP8D4HCL3I8BWJ6ITPH0WH3,7,8
78,1,object_09,object_07,18.699999928474,1,2,271.90000009537,1.0,1,object_03,1,839,0,9,6,desert_6,1,memory-2step-stake-s,578,1439932,0.0-19.0-0.0-0.78,A25W2HZYMZVCM1,31KPKEKW5DTYWQJ2Z73D1GA4ZNDB00,30BXRYBRP8D4HCL3I8BWJ6ITPH0WH3,2,1
79,3,object_08,object_10,337.70000004768,6,1,503.0,0.4444444444444444,2,object_05,5,859,0,8,4,library_1,1,memory-2step-stake-s,579,1448108,0.0-19.0-0.0-0.79,A25W2HZYMZVCM1,31KPKEKW5DTYWQJ2Z73D1GA4ZNDB00,30BXRYBRP8D4HCL3I8BWJ6ITPH0WH3,6,5
80,4,object_02,object_01,592.29999995232,7,2,330.40000009537,1.0,1,object_03,5,904,0,9,6,restaurant_3,1,memory-2step-stake-s,580,1456641,0.0-19.0-0.0-0.80,A25W2HZYMZVCM1,31KPKEKW5DTYWQJ2Z73D1GA4ZNDB00,30BXRYBRP8D4HCL3I8BWJ6ITPH0WH3,8,7
81,2,object_06,object_04,290.69999992847,3,1,606.29999995232,1.0,1,object_03,1,913,0,9,5,forest_6,1,memory-2step-stake-s,581,1465428,0.0-19.0-0.0-0.81,A25W2HZYMZVCM1,31KPKEKW5DTYWQJ2Z73D1GA4ZNDB00,30BXRYBRP8D4HCL3I8BWJ6ITPH0WH3,3,4
82,4,object_01,object_02,750.29999995232,8,2,627.69999992847,0.8888888888888888,2,object_05,5,953,0,6,8,restaurant_6,1,memory-2step-stake-s,582,1474179,0.0-19.0-0.0-0.82,A25W2HZYMZVCM1,31KPKEKW5DTYWQJ2Z73D1GA4ZNDB00,30BXRYBRP8D4HCL3I8BWJ6ITPH0WH3,7,8
83,3,object_10,object_08,671.80000007153,6,2,379.90000009537,0.4444444444444444,2,object_05,5,973,0,8,4,library_1,1,memory-2step-stake-s,583,1482261,0.0-19.0-0.0-0.83,A25W2HZYMZVCM1,31KPKEKW5DTYWQJ2Z73D1GA4ZNDB00,30BXRYBRP8D4HCL3I8BWJ6ITPH0WH3,5,6
84,1,object_09,object_07,286.40000009537,2,1,664.90000009537,0.4444444444444444,2,object_05,1,977,0,7,4,desert_6,1,memory-2step-stake-s,584,1490611,0.0-19.0-0.0-0.84,A25W2HZYMZVCM1,31KPKEKW5DTYWQJ2Z73D1GA4ZNDB00,30BXRYBRP8D4HCL3I8BWJ6ITPH0WH3,2,1
85,2,object_06,object_04,1013.5,4,2,230.0,0.4444444444444444,2,object_05,1,981,0,5,4,forest_7,1,memory-2step-stake-s,585,1498523,0.0-19.0-0.0-0.85,A25W2HZYMZVCM1,31KPKEKW5DTYWQJ2Z73D1GA4ZNDB00,30BXRYBRP8D4HCL3I8BWJ6ITPH0WH3,3,4
86,3,object_08,object_10,528.10000002384,6,1,394.10000002384,0.3333333333333333,2,object_05,1,984,0,4,3,library_4,1,memory-2step-stake-s,586,1506517,0.0-19.0-0.0-0.86,A25W2HZYMZVCM1,31KPKEKW5DTYWQJ2Z73D1GA4ZNDB00,30BXRYBRP8D4HCL3I8BWJ6ITPH0WH3,6,5
87,4,object_01,object_02,771.89999997616,7,1,378.89999997616,0.5555555555555556,1,object_03,5,1009,0,5,3,restaurant_3,1,memory-2step-stake-s,587,1514720,0.0-19.0-0.0-0.87,A25W2HZYMZVCM1,31KPKEKW5DTYWQJ2Z73D1GA4ZNDB00,30BXRYBRP8D4HCL3I8BWJ6ITPH0WH3,7,8
88,4,object_01,object_02,572.0,8,2,593.09999990463,0.4444444444444444,2,object_05,5,1029,0,7,4,restaurant_3,1,memory-2step-stake-s,588,1522986,0.0-19.0-0.0-0.88,A25W2HZYMZVCM1,31KPKEKW5DTYWQJ2Z73D1GA4ZNDB00,30BXRYBRP8D4HCL3I8BWJ6ITPH0WH3,7,8
89,3,object_10,object_08,465.39999997616,5,1,595.90000009537,1.0,1,object_03,1,1038,0,9,6,library_4,1,memory-2step-stake-s,589,1531779,0.0-19.0-0.0-0.89,A25W2HZYMZVCM1,31KPKEKW5DTYWQJ2Z73D1GA4ZNDB00,30BXRYBRP8D4HCL3I8BWJ6ITPH0WH3,5,6
90,4,object_02,object_01,802.69999992847,7,2,555.39999997616,0.7777777777777778,1,object_03,5,1073,0,7,7,restaurant_6,1,memory-2step-stake-s,590,1540313,0.0-19.0-0.0-0.90,A25W2HZYMZVCM1,31KPKEKW5DTYWQJ2Z73D1GA4ZNDB00,30BXRYBRP8D4HCL3I8BWJ6ITPH0WH3,8,7
91,4,object_01,object_02,431.5,8,2,450.70000004768,0.7777777777777778,2,object_05,5,1108,0,6,7,restaurant_6,1,memory-2step-stake-s,591,1548745,0.0-19.0-0.0-0.91,A25W2HZYMZVCM1,31KPKEKW5DTYWQJ2Z73D1GA4ZNDB00,30BXRYBRP8D4HCL3I8BWJ6ITPH0WH3,7,8
92,3,object_10,object_08,22.199999928474,5,1,949.10000002384,0.4444444444444444,1,object_03,5,1128,0,4,9,library_5,1,memory-2step-stake-s,592,1557392,0.0-19.0-0.0-0.92,A25W2HZYMZVCM1,31KPKEKW5DTYWQJ2Z73D1GA4ZNDB00,30BXRYBRP8D4HCL3I8BWJ6ITPH0WH3,5,6
93,4,object_01,object_02,-1.0,-1,-1,-1.0,0.0,-,0,5,1128,0,4,9,restaurant_5,1,memory-2step-stake-s,593,1563943,0.0-19.0-0.0-0.93,A25W2HZYMZVCM1,31KPKEKW5DTYWQJ2Z73D1GA4ZNDB00,30BXRYBRP8D4HCL3I8BWJ6ITPH0WH3,7,8
94,4,object_01,object_02,346.40000009537,8,2,466.29999995232,0.8888888888888888,2,object_05,5,1168,0,3,8,restaurant_7,1,memory-2step-stake-s,594,1572493,0.0-19.0-0.0-0.94,A25W2HZYMZVCM1,31KPKEKW5DTYWQJ2Z73D1GA4ZNDB00,30BXRYBRP8D4HCL3I8BWJ6ITPH0WH3,7,8
95,2,object_04,object_06,493.39999997616,3,2,126.10000002384,0.2222222222222222,1,object_03,1,1170,0,2,3,forest_6,1,memory-2step-stake-s,595,1580124,0.0-19.0-0.0-0.95,A25W2HZYMZVCM1,31KPKEKW5DTYWQJ2Z73D1GA4ZNDB00,30BXRYBRP8D4HCL3I8BWJ6ITPH0WH3,4,3
96,4,object_02,object_01,970.79999995232,8,1,424.20000004768,0.2222222222222222,2,object_05,5,1180,0,1,2,restaurant_6,1,memory-2step-stake-s,596,1588020,0.0-19.0-0.0-0.96,A25W2HZYMZVCM1,31KPKEKW5DTYWQJ2Z73D1GA4ZNDB00,30BXRYBRP8D4HCL3I8BWJ6ITPH0WH3,8,7
97,2,object_06,object_04,274.60000002384,4,2,664.89999997616,0.0,2,object_05,1,1180,0,5,0,forest_6,1,memory-2step-stake-s,597,1595965,0.0-19.0-0.0-0.97,A25W2HZYMZVCM1,31KPKEKW5DTYWQJ2Z73D1GA4ZNDB00,30BXRYBRP8D4HCL3I8BWJ6ITPH0WH3,3,4
98,2,object_06,object_04,270.60000002384,3,1,400.39999997616,0.5555555555555556,1,object_03,1,1185,0,5,1,forest_3,1,memory-2step-stake-s,598,1604131,0.0-19.0-0.0-0.98,A25W2HZYMZVCM1,31KPKEKW5DTYWQJ2Z73D1GA4ZNDB00,30BXRYBRP8D4HCL3I8BWJ6ITPH0WH3,3,4
99,2,object_04,object_06,352.20000004768,3,2,492.60000002384,0.3333333333333333,1,object_03,1,1188,0,3,1,forest_6,1,memory-2step-stake-s,599,1612217,0.0-19.0-0.0-0.99,A25W2HZYMZVCM1,31KPKEKW5DTYWQJ2Z73D1GA4ZNDB00,30BXRYBRP8D4HCL3I8BWJ6ITPH0WH3,4,3
100,3,object_10,object_08,295.69999992847,5,1,432.69999992847,0.3333333333333333,1,object_03,1,1191,0,3,0,library_4,1,memory-2step-stake-s,600,1620207,0.0-19.0-0.0-0.100,A25W2HZYMZVCM1,31KPKEKW5DTYWQJ2Z73D1GA4ZNDB00,30BXRYBRP8D4HCL3I8BWJ6ITPH0WH3,5,6
101,4,object_01,object_02,755.10000002384,8,2,384.79999995232,0.1111111111111111,2,object_05,5,1196,0,5,1,restaurant_7,1,memory-2step-stake-s,601,1627920,0.0-19.0-0.0-0.101,A25W2HZYMZVCM1,31KPKEKW5DTYWQJ2Z73D1GA4ZNDB00,30BXRYBRP8D4HCL3I8BWJ6ITPH0WH3,7,8
102,4,object_01,object_02,293.69999992847,7,1,377.89999997616,0.6666666666666666,1,object_03,5,1226,0,6,1,restaurant_3,1,memory-2step-stake-s,602,1636149,0.0-19.0-0.0-0.102,A25W2HZYMZVCM1,31KPKEKW5DTYWQJ2Z73D1GA4ZNDB00,30BXRYBRP8D4HCL3I8BWJ6ITPH0WH3,7,8
103,4,object_02,object_01,1282.5,7,2,677.5,0.7777777777777778,1,object_03,1,1233,0,7,2,restaurant_3,1,memory-2step-stake-s,603,1644801,0.0-19.0-0.0-0.103,A25W2HZYMZVCM1,31KPKEKW5DTYWQJ2Z73D1GA4ZNDB00,30BXRYBRP8D4HCL3I8BWJ6ITPH0WH3,8,7
104,3,object_08,object_10,955.29999995232,6,1,1326.7999999523,0.1111111111111111,2,object_05,5,1238,0,7,1,library_4,1,memory-2step-stake-s,604,1653484,0.0-19.0-0.0-0.104,A25W2HZYMZVCM1,31KPKEKW5DTYWQJ2Z73D1GA4ZNDB00,30BXRYBRP8D4HCL3I8BWJ6ITPH0WH3,6,5
105,3,object_10,object_08,264.89999997616,6,2,399.10000002384,0.2222222222222222,2,object_05,5,1248,0,6,2,library_4,1,memory-2step-stake-s,605,1661376,0.0-19.0-0.0-0.105,A25W2HZYMZVCM1,31KPKEKW5DTYWQJ2Z73D1GA4ZNDB00,30BXRYBRP8D4HCL3I8BWJ6ITPH0WH3,5,6
106,3,object_10,object_08,351.89999997616,5,1,234.5,0.4444444444444444,1,object_03,5,1268,0,4,4,library_5,1,memory-2step-stake-s,606,1669296,0.0-19.0-0.0-0.106,A25W2HZYMZVCM1,31KPKEKW5DTYWQJ2Z73D1GA4ZNDB00,30BXRYBRP8D4HCL3I8BWJ6ITPH0WH3,5,6
107,2,object_06,object_04,133.39999997616,4,2,363.0,0.3333333333333333,2,object_05,1,1271,0,4,3,forest_7,1,memory-2step-stake-s,607,1677246,0.0-19.0-0.0-0.107,A25W2HZYMZVCM1,31KPKEKW5DTYWQJ2Z73D1GA4ZNDB00,30BXRYBRP8D4HCL3I8BWJ6ITPH0WH3,3,4
108,1,object_07,object_09,525.80000007153,1,1,685.5,0.2222222222222222,1,object_03,1,1273,0,2,0,desert_5,1,memory-2step-stake-s,608,1685401,0.0-19.0-0.0-0.108,A25W2HZYMZVCM1,31KPKEKW5DTYWQJ2Z73D1GA4ZNDB00,30BXRYBRP8D4HCL3I8BWJ6ITPH0WH3,1,2
109,1,object_09,object_07,406.60000002384,2,1,600.0,0.2222222222222222,2,object_05,1,1275,0,1,2,desert_5,1,memory-2step-stake-s,609,1693486,0.0-19.0-0.0-0.109,A25W2HZYMZVCM1,31KPKEKW5DTYWQJ2Z73D1GA4ZNDB00,30BXRYBRP8D4HCL3I8BWJ6ITPH0WH3,2,1
110,4,object_01,object_02,930.10000002384,8,2,376.10000002384,0.4444444444444444,2,object_05,5,1295,0,2,4,restaurant_7,1,memory-2step-stake-s,610,1701532,0.0-19.0-0.0-0.110,A25W2HZYMZVCM1,31KPKEKW5DTYWQJ2Z73D1GA4ZNDB00,30BXRYBRP8D4HCL3I8BWJ6ITPH0WH3,7,8
111,1,object_09,object_07,458.29999995232,2,1,427.0,0.3333333333333333,2,object_05,1,1298,0,2,3,desert_3,1,memory-2step-stake-s,611,1709536,0.0-19.0-0.0-0.111,A25W2HZYMZVCM1,31KPKEKW5DTYWQJ2Z73D1GA4ZNDB00,30BXRYBRP8D4HCL3I8BWJ6ITPH0WH3,2,1
112,4,object_02,object_01,421.20000004768,7,2,447.60000002384,0.1111111111111111,1,object_03,5,1303,0,1,5,restaurant_3,1,memory-2step-stake-s,612,1717344,0.0-19.0-0.0-0.112,A25W2HZYMZVCM1,31KPKEKW5DTYWQJ2Z73D1GA4ZNDB00,30BXRYBRP8D4HCL3I8BWJ6ITPH0WH3,8,7
113,1,object_09,object_07,361.30000007153,2,1,258.60000002384,0.5555555555555556,2,object_05,1,1308,0,0,5,desert_5,1,memory-2step-stake-s,613,1725385,0.0-19.0-0.0-0.113,A25W2HZYMZVCM1,31KPKEKW5DTYWQJ2Z73D1GA4ZNDB00,30BXRYBRP8D4HCL3I8BWJ6ITPH0WH3,2,1
114,4,object_01,object_02,258.69999992847,7,1,766.20000004768,0.3333333333333333,1,object_03,5,1323,0,3,7,restaurant_5,1,memory-2step-stake-s,614,1733730,0.0-19.0-0.0-0.114,A25W2HZYMZVCM1,31KPKEKW5DTYWQJ2Z73D1GA4ZNDB00,30BXRYBRP8D4HCL3I8BWJ6ITPH0WH3,7,8
115,1,object_07,object_09,616.89999997616,1,1,651.90000009537,0.5555555555555556,1,object_03,5,1348,0,5,9,desert_6,1,memory-2step-stake-s,615,1742157,0.0-19.0-0.0-0.115,A25W2HZYMZVCM1,31KPKEKW5DTYWQJ2Z73D1GA4ZNDB00,30BXRYBRP8D4HCL3I8BWJ6ITPH0WH3,1,2
116,1,object_07,object_09,591.20000004768,2,2,1121.0,0.7777777777777778,2,object_05,1,1355,0,9,7,desert_6,1,memory-2step-stake-s,616,1751258,0.0-19.0-0.0-0.116,A25W2HZYMZVCM1,31KPKEKW5DTYWQJ2Z73D1GA4ZNDB00,30BXRYBRP8D4HCL3I8BWJ6ITPH0WH3,1,2
117,2,object_06,object_04,1045.5,3,1,-1.0,0.0,1,object_03,1,1355,0,9,4,forest_7,1,memory-2step-stake-s,617,1759849,0.0-19.0-0.0-0.117,A25W2HZYMZVCM1,31KPKEKW5DTYWQJ2Z73D1GA4ZNDB00,30BXRYBRP8D4HCL3I8BWJ6ITPH0WH3,3,4
118,2,object_04,object_06,204.60000002384,3,2,434.79999995232,0.7777777777777778,1,object_03,1,1362,0,7,3,forest_3,1,memory-2step-stake-s,618,1768277,0.0-19.0-0.0-0.118,A25W2HZYMZVCM1,31KPKEKW5DTYWQJ2Z73D1GA4ZNDB00,30BXRYBRP8D4HCL3I8BWJ6ITPH0WH3,4,3
119,4,object_01,object_02,330.5,7,1,358.29999995232,1.0,1,object_03,1,1371,0,9,1,restaurant_7,1,memory-2step-stake-s,619,1776835,0.0-19.0-0.0-0.119,A25W2HZYMZVCM1,31KPKEKW5DTYWQJ2Z73D1GA4ZNDB00,30BXRYBRP8D4HCL3I8BWJ6ITPH0WH3,7,8
120,2,object_06,object_04,307.5,4,2,299.5,0.5555555555555556,2,object_05,5,1396,0,9,5,forest_6,1,memory-2step-stake-s,620,1784923,0.0-19.0-0.0-0.120,A25W2HZYMZVCM1,31KPKEKW5DTYWQJ2Z73D1GA4ZNDB00,30BXRYBRP8D4HCL3I8BWJ6ITPH0WH3,3,4
121,3,object_10,object_08,340.90000009537,5,1,562.80000007153,0.6666666666666666,1,object_03,5,1426,0,6,7,library_4,1,memory-2step-stake-s,621,1793361,0.0-19.0-0.0-0.121,A25W2HZYMZVCM1,31KPKEKW5DTYWQJ2Z73D1GA4ZNDB00,30BXRYBRP8D4HCL3I8BWJ6ITPH0WH3,5,6
122,3,object_08,object_10,274.30000007153,5,2,435.30000007153,0.6666666666666666,1,object_03,1,1432,0,6,5,library_7,1,memory-2step-stake-s,622,1801705,0.0-19.0-0.0-0.122,A25W2HZYMZVCM1,31KPKEKW5DTYWQJ2Z73D1GA4ZNDB00,30BXRYBRP8D4HCL3I8BWJ6ITPH0WH3,6,5
123,1,object_07,object_09,347.5,2,2,345.0,0.3333333333333333,2,object_05,1,1435,0,8,3,desert_3,1,memory-2step-stake-s,623,1809639,0.0-19.0-0.0-0.123,A25W2HZYMZVCM1,31KPKEKW5DTYWQJ2Z73D1GA4ZNDB00,30BXRYBRP8D4HCL3I8BWJ6ITPH0WH3,1,2
124,3,object_10,object_08,358.39999997616,5,1,366.5,0.7777777777777778,1,object_03,5,1470,0,7,1,library_7,1,memory-2step-stake-s,624,1817988,0.0-19.0-0.0-0.124,A25W2HZYMZVCM1,31KPKEKW5DTYWQJ2Z73D1GA4ZNDB00,30BXRYBRP8D4HCL3I8BWJ6ITPH0WH3,5,6
125,4,object_01,object_02,698.10000002384,8,2,507.80000007153,0.5555555555555556,2,object_05,5,1495,0,6,5,restaurant_6,1,memory-2step-stake-s,625,1826278,0.0-19.0-0.0-0.125,A25W2HZYMZVCM1,31KPKEKW5DTYWQJ2Z73D1GA4ZNDB00,30BXRYBRP8D4HCL3I8BWJ6ITPH0WH3,7,8
126,4,object_02,object_01,353.29999995232,8,1,324.0,0.7777777777777778,2,object_05,1,1502,0,8,7,restaurant_7,1,memory-2step-stake-s,626,1834590,0.0-19.0-0.0-0.126,A25W2HZYMZVCM1,31KPKEKW5DTYWQJ2Z73D1GA4ZNDB00,30BXRYBRP8D4HCL3I8BWJ6ITPH0WH3,8,7
127,4,object_02,object_01,352.79999995232,7,2,481.70000004768,0.7777777777777778,1,object_03,5,1537,0,7,9,restaurant_5,1,memory-2step-stake-s,627,1843057,0.0-19.0-0.0-0.127,A25W2HZYMZVCM1,31KPKEKW5DTYWQJ2Z73D1GA4ZNDB00,30BXRYBRP8D4HCL3I8BWJ6ITPH0WH3,8,7
128,1,object_09,object_07,303.5,1,2,195.89999997616,0.8888888888888888,1,object_03,1,1545,0,8,8,desert_8,1,memory-2step-stake-s,629,1886046,0.0-19.0-0.1-0.128,A25W2HZYMZVCM1,31KPKEKW5DTYWQJ2Z73D1GA4ZNDB00,30BXRYBRP8D4HCL3I8BWJ6ITPH0WH3,2,1
129,1,object_07,object_09,278.39999997616,1,1,359.5,1.0,1,object_03,1,1554,0,9,8,desert_6,1,memory-2step-stake-s,630,1894606,0.0-19.0-0.1-0.129,A25W2HZYMZVCM1,31KPKEKW5DTYWQJ2Z73D1GA4ZNDB00,30BXRYBRP8D4HCL3I8BWJ6ITPH0WH3,1,2
130,3,object_10,object_08,759.59999990463,6,2,307.39999997616,0.7777777777777778,2,object_05,5,1589,0,8,7,library_1,1,memory-2step-stake-s,631,1902899,0.0-19.0-0.1-0.130,A25W2HZYMZVCM1,31KPKEKW5DTYWQJ2Z73D1GA4ZNDB00,30BXRYBRP8D4HCL3I8BWJ6ITPH0WH3,5,6
131,3,object_08,object_10,257.5,6,1,277.79999995232,1.0,2,object_05,5,1634,0,7,9,library_7,1,memory-2step-stake-s,632,1911351,0.0-19.0-0.1-0.131,A25W2HZYMZVCM1,31KPKEKW5DTYWQJ2Z73D1GA4ZNDB00,30BXRYBRP8D4HCL3I8BWJ6ITPH0WH3,6,5
132,2,object_04,object_06,323.0,3,2,423.79999995232,0.8888888888888888,1,object_03,1,1642,0,8,6,forest_2,1,memory-2step-stake-s,633,1919887,0.0-19.0-0.1-0.132,A25W2HZYMZVCM1,31KPKEKW5DTYWQJ2Z73D1GA4ZNDB00,30BXRYBRP8D4HCL3I8BWJ6ITPH0WH3,4,3
133,1,object_07,object_09,35.699999928474,1,1,371.5,0.5555555555555556,1,object_03,5,1667,0,5,3,desert_3,1,memory-2step-stake-s,634,1928050,0.0-19.0-0.1-0.133,A25W2HZYMZVCM1,31KPKEKW5DTYWQJ2Z73D1GA4ZNDB00,30BXRYBRP8D4HCL3I8BWJ6ITPH0WH3,1,2
134,4,object_02,object_01,293.39999997616,7,2,318.0,0.4444444444444444,1,object_03,5,1687,0,4,3,restaurant_7,1,memory-2step-stake-s,635,1936038,0.0-19.0-0.1-0.134,A25W2HZYMZVCM1,31KPKEKW5DTYWQJ2Z73D1GA4ZNDB00,30BXRYBRP8D4HCL3I8BWJ6ITPH0WH3,8,7
135,1,object_07,object_09,301.89999997616,1,1,303.5,0.7777777777777778,1,object_03,1,1694,0,7,2,desert_8,1,memory-2step-stake-s,636,1944350,0.0-19.0-0.1-0.135,A25W2HZYMZVCM1,31KPKEKW5DTYWQJ2Z73D1GA4ZNDB00,30BXRYBRP8D4HCL3I8BWJ6ITPH0WH3,1,2
136,2,object_04,object_06,477.89999997616,3,2,355.29999995232,0.5555555555555556,1,object_03,5,1719,0,5,3,forest_6,1,memory-2step-stake-s,637,1952497,0.0-19.0-0.1-0.136,A25W2HZYMZVCM1,31KPKEKW5DTYWQJ2Z73D1GA4ZNDB00,30BXRYBRP8D4HCL3I8BWJ6ITPH0WH3,4,3
137,3,object_10,object_08,444.0,5,1,464.29999995232,0.6666666666666666,1,object_03,5,1749,0,6,4,library_7,1,memory-2step-stake-s,638,1960855,0.0-19.0-0.1-0.137,A25W2HZYMZVCM1,31KPKEKW5DTYWQJ2Z73D1GA4ZNDB00,30BXRYBRP8D4HCL3I8BWJ6ITPH0WH3,5,6
138,3,object_08,object_10,291.5,5,2,470.5,0.3333333333333333,1,object_03,5,1764,0,3,2,library_4,1,memory-2step-stake-s,639,1968925,0.0-19.0-0.1-0.138,A25W2HZYMZVCM1,31KPKEKW5DTYWQJ2Z73D1GA4ZNDB00,30BXRYBRP8D4HCL3I8BWJ6ITPH0WH3,6,5
139,2,object_04,object_06,99.699999928474,4,1,258.39999997616,0.3333333333333333,2,object_05,1,1767,0,2,3,forest_7,1,memory-2step-stake-s,640,1976767,0.0-19.0-0.1-0.139,A25W2HZYMZVCM1,31KPKEKW5DTYWQJ2Z73D1GA4ZNDB00,30BXRYBRP8D4HCL3I8BWJ6ITPH0WH3,4,3
140,3,object_08,object_10,291.5,5,2,77.899999976158,0.1111111111111111,1,object_03,1,1768,0,1,4,library_5,1,memory-2step-stake-s,641,1984217,0.0-19.0-0.1-0.140,A25W2HZYMZVCM1,31KPKEKW5DTYWQJ2Z73D1GA4ZNDB00,30BXRYBRP8D4HCL3I8BWJ6ITPH0WH3,6,5
141,2,object_06,object_04,447.70000004768,3,1,757.69999992847,0.2222222222222222,1,object_03,1,1770,0,2,3,forest_7,1,memory-2step-stake-s,642,1992422,0.0-19.0-0.1-0.141,A25W2HZYMZVCM1,31KPKEKW5DTYWQJ2Z73D1GA4ZNDB00,30BXRYBRP8D4HCL3I8BWJ6ITPH0WH3,3,4
142,1,object_09,object_07,472.39999997616,1,2,543.5,0.5555555555555556,1,object_03,1,1775,0,5,5,desert_5,1,memory-2step-stake-s,643,2000761,0.0-19.0-0.1-0.142,A25W2HZYMZVCM1,31KPKEKW5DTYWQJ2Z73D1GA4ZNDB00,30BXRYBRP8D4HCL3I8BWJ6ITPH0WH3,2,1
143,2,object_04,object_06,281.29999995232,4,1,1120.0,0.2222222222222222,2,object_05,1,1777,0,1,2,forest_3,1,memory-2step-stake-s,644,2009346,0.0-19.0-0.1-0.143,A25W2HZYMZVCM1,31KPKEKW5DTYWQJ2Z73D1GA4ZNDB00,30BXRYBRP8D4HCL3I8BWJ6ITPH0WH3,4,3
144,1,object_07,object_09,1339.2000000477,2,2,1224.8999999762,0.4444444444444444,2,object_05,1,1781,0,0,4,desert_3,1,memory-2step-stake-s,645,2018283,0.0-19.0-0.1-0.144,A25W2HZYMZVCM1,31KPKEKW5DTYWQJ2Z73D1GA4ZNDB00,30BXRYBRP8D4HCL3I8BWJ6ITPH0WH3,1,2
145,3,object_10,object_08,555.10000002384,6,2,595.79999995232,0.1111111111111111,2,object_05,1,1782,0,0,1,library_5,1,memory-2step-stake-s,646,2026265,0.0-19.0-0.1-0.145,A25W2HZYMZVCM1,31KPKEKW5DTYWQJ2Z73D1GA4ZNDB00,30BXRYBRP8D4HCL3I8BWJ6ITPH0WH3,5,6
146,3,object_10,object_08,714.0,5,1,394.19999992847,0.2222222222222222,1,object_03,5,1792,0,2,3,library_4,1,memory-2step-stake-s,647,2034117,0.0-19.0-0.1-0.146,A25W2HZYMZVCM1,31KPKEKW5DTYWQJ2Z73D1GA4ZNDB00,30BXRYBRP8D4HCL3I8BWJ6ITPH0WH3,5,6
147,1,object_09,object_07,364.60000002384,1,2,344.60000002384,0.1111111111111111,1,object_03,1,1793,0,1,1,desert_6,1,memory-2step-stake-s,648,2041819,0.0-19.0-0.1-0.147,A25W2HZYMZVCM1,31KPKEKW5DTYWQJ2Z73D1GA4ZNDB00,30BXRYBRP8D4HCL3I8BWJ6ITPH0WH3,2,1
148,3,object_10,object_08,524.89999997616,5,1,496.10000002384,0.2222222222222222,1,object_03,5,1803,0,2,0,library_4,1,memory-2step-stake-s,649,2049784,0.0-19.0-0.1-0.148,A25W2HZYMZVCM1,31KPKEKW5DTYWQJ2Z73D1GA4ZNDB00,30BXRYBRP8D4HCL3I8BWJ6ITPH0WH3,5,6
149,2,object_06,object_04,231.89999997616,4,2,859.69999992847,0.3333333333333333,2,object_05,1,1806,0,2,3,forest_3,1,memory-2step-stake-s,650,2058221,0.0-19.0-0.1-0.149,A25W2HZYMZVCM1,31KPKEKW5DTYWQJ2Z73D1GA4ZNDB00,30BXRYBRP8D4HCL3I8BWJ6ITPH0WH3,3,4
150,1,object_07,object_09,491.60000002384,1,1,467.0,0.0,1,object_03,5,1806,0,0,2,desert_3,1,memory-2step-stake-s,651,2065957,0.0-19.0-0.1-0.150,A25W2HZYMZVCM1,31KPKEKW5DTYWQJ2Z73D1GA4ZNDB00,30BXRYBRP8D4HCL3I8BWJ6ITPH0WH3,1,2
151,2,object_04,object_06,394.30000007153,3,2,520.79999995232,0.4444444444444444,1,object_03,1,1810,0,4,0,forest_3,1,memory-2step-stake-s,652,2074168,0.0-19.0-0.1-0.151,A25W2HZYMZVCM1,31KPKEKW5DTYWQJ2Z73D1GA4ZNDB00,30BXRYBRP8D4HCL3I8BWJ6ITPH0WH3,4,3
152,1,object_07,object_09,871.39999997616,2,2,652.5,0.3333333333333333,2,object_05,1,1813,0,5,3,desert_8,1,memory-2step-stake-s,653,2082435,0.0-19.0-0.1-0.152,A25W2HZYMZVCM1,31KPKEKW5DTYWQJ2Z73D1GA4ZNDB00,30BXRYBRP8D4HCL3I8BWJ6ITPH0WH3,1,2
153,2,object_06,object_04,410.20000004768,3,1,619.39999997616,0.3333333333333333,1,object_03,1,1816,0,3,5,forest_7,1,memory-2step-stake-s,654,2090612,0.0-19.0-0.1-0.153,A25W2HZYMZVCM1,31KPKEKW5DTYWQJ2Z73D1GA4ZNDB00,30BXRYBRP8D4HCL3I8BWJ6ITPH0WH3,3,4
154,1,object_09,object_07,588.10000002384,1,2,359.89999997616,0.4444444444444444,1,object_03,5,1836,0,4,6,desert_5,1,memory-2step-stake-s,655,2098701,0.0-19.0-0.1-0.154,A25W2HZYMZVCM1,31KPKEKW5DTYWQJ2Z73D1GA4ZNDB00,30BXRYBRP8D4HCL3I8BWJ6ITPH0WH3,2,1
155,3,object_10,object_08,660.19999992847,5,1,-1.0,0.0,1,object_03,5,1836,0,4,8,library_4,1,memory-2step-stake-s,656,2107280,0.0-19.0-0.1-0.155,A25W2HZYMZVCM1,31KPKEKW5DTYWQJ2Z73D1GA4ZNDB00,30BXRYBRP8D4HCL3I8BWJ6ITPH0WH3,5,6
156,2,object_04,object_06,-1.0,-1,-1,-1.0,0.0,-,0,1,1836,0,5,8,forest_2,1,memory-2step-stake-s,657,2113831,0.0-19.0-0.1-0.156,A25W2HZYMZVCM1,31KPKEKW5DTYWQJ2Z73D1GA4ZNDB00,30BXRYBRP8D4HCL3I8BWJ6ITPH0WH3,4,3
157,3,object_10,object_08,717.5,6,2,730.29999995232,0.7777777777777778,2,object_05,5,1871,0,3,7,library_4,1,memory-2step-stake-s,658,2122571,0.0-19.0-0.1-0.157,A25W2HZYMZVCM1,31KPKEKW5DTYWQJ2Z73D1GA4ZNDB00,30BXRYBRP8D4HCL3I8BWJ6ITPH0WH3,5,6
158,3,object_10,object_08,709.0,6,2,331.69999992847,0.4444444444444444,2,object_05,5,1891,0,3,4,library_5,1,memory-2step-stake-s,659,2130615,0.0-19.0-0.1-0.158,A25W2HZYMZVCM1,31KPKEKW5DTYWQJ2Z73D1GA4ZNDB00,30BXRYBRP8D4HCL3I8BWJ6ITPH0WH3,5,6
159,2,object_04,object_06,271.39999997616,4,1,350.39999997616,0.7777777777777778,2,object_05,1,1898,0,4,7,forest_3,1,memory-2step-stake-s,660,2138975,0.0-19.0-0.1-0.159,A25W2HZYMZVCM1,31KPKEKW5DTYWQJ2Z73D1GA4ZNDB00,30BXRYBRP8D4HCL3I8BWJ6ITPH0WH3,4,3
160,3,object_08,object_10,291.60000002384,5,2,717.10000002384,0.5555555555555556,1,object_03,1,1903,0,5,6,library_1,1,memory-2step-stake-s,661,2147454,0.0-19.0-0.1-0.160,A25W2HZYMZVCM1,31KPKEKW5DTYWQJ2Z73D1GA4ZNDB00,30BXRYBRP8D4HCL3I8BWJ6ITPH0WH3,6,5
161,1,object_09,object_07,428.60000002384,2,1,765.0,0.4444444444444444,2,object_05,1,1907,0,5,4,desert_8,1,memory-2step-stake-s,662,2155933,0.0-19.0-0.1-0.161,A25W2HZYMZVCM1,31KPKEKW5DTYWQJ2Z73D1GA4ZNDB00,30BXRYBRP8D4HCL3I8BWJ6ITPH0WH3,2,1
162,2,object_06,object_04,402.60000002384,4,2,808.70000004768,0.3333333333333333,2,object_05,5,1922,0,3,3,forest_6,1,memory-2step-stake-s,663,2164294,0.0-19.0-0.1-0.162,A25W2HZYMZVCM1,31KPKEKW5DTYWQJ2Z73D1GA4ZNDB00,30BXRYBRP8D4HCL3I8BWJ6ITPH0WH3,3,4
163,2,object_04,object_06,784.0,3,2,504.30000007153,0.5555555555555556,1,object_03,5,1947,0,5,3,forest_7,1,memory-2step-stake-s,664,2172583,0.0-19.0-0.1-0.163,A25W2HZYMZVCM1,31KPKEKW5DTYWQJ2Z73D1GA4ZNDB00,30BXRYBRP8D4HCL3I8BWJ6ITPH0WH3,4,3
164,4,object_02,object_01,-1.0,-1,-1,-1.0,0.0,-,0,1,1947,0,7,1,restaurant_5,1,memory-2step-stake-s,665,2179155,0.0-19.0-0.1-0.164,A25W2HZYMZVCM1,31KPKEKW5DTYWQJ2Z73D1GA4ZNDB00,30BXRYBRP8D4HCL3I8BWJ6ITPH0WH3,8,7
165,1,object_07,object_09,725.80000007153,2,2,705.69999992847,0.3333333333333333,2,object_05,1,1950,0,6,3,desert_3,1,memory-2step-stake-s,666,2187425,0.0-19.0-0.1-0.165,A25W2HZYMZVCM1,31KPKEKW5DTYWQJ2Z73D1GA4ZNDB00,30BXRYBRP8D4HCL3I8BWJ6ITPH0WH3,1,2
166,1,object_09,object_07,609.60000002384,2,1,450.60000002384,0.2222222222222222,2,object_05,1,1952,0,2,2,desert_8,1,memory-2step-stake-s,667,2195317,0.0-19.0-0.1-0.166,A25W2HZYMZVCM1,31KPKEKW5DTYWQJ2Z73D1GA4ZNDB00,30BXRYBRP8D4HCL3I8BWJ6ITPH0WH3,2,1
167,1,object_09,object_07,281.5,1,2,607.20000004768,0.2222222222222222,1,object_03,1,1954,0,2,0,desert_8,1,memory-2step-stake-s,668,2203415,0.0-19.0-0.1-0.167,A25W2HZYMZVCM1,31KPKEKW5DTYWQJ2Z73D1GA4ZNDB00,30BXRYBRP8D4HCL3I8BWJ6ITPH0WH3,2,1
168,2,object_06,object_04,680.0,3,1,652.30000007153,0.2222222222222222,1,object_03,1,1956,0,2,1,forest_3,1,memory-2step-stake-s,669,2211561,0.0-19.0-0.1-0.168,A25W2HZYMZVCM1,31KPKEKW5DTYWQJ2Z73D1GA4ZNDB00,30BXRYBRP8D4HCL3I8BWJ6ITPH0WH3,3,4
169,3,object_10,object_08,625.79999995232,6,2,597.09999990463,0.1111111111111111,2,object_05,5,1961,0,0,1,library_1,1,memory-2step-stake-s,670,2219543,0.0-19.0-0.1-0.169,A25W2HZYMZVCM1,31KPKEKW5DTYWQJ2Z73D1GA4ZNDB00,30BXRYBRP8D4HCL3I8BWJ6ITPH0WH3,5,6
170,1,object_09,object_07,453.79999995232,2,1,410.29999995232,0.4444444444444444,2,object_05,1,1965,0,0,4,desert_3,1,memory-2step-stake-s,671,2227629,0.0-19.0-0.1-0.170,A25W2HZYMZVCM1,31KPKEKW5DTYWQJ2Z73D1GA4ZNDB00,30BXRYBRP8D4HCL3I8BWJ6ITPH0WH3,2,1
171,2,object_04,object_06,455.0,3,2,544.80000007153,0.1111111111111111,1,object_03,1,1966,0,1,5,forest_2,1,memory-2step-stake-s,672,2235560,0.0-19.0-0.1-0.171,A25W2HZYMZVCM1,31KPKEKW5DTYWQJ2Z73D1GA4ZNDB00,30BXRYBRP8D4HCL3I8BWJ6ITPH0WH3,4,3
172,3,object_08,object_10,418.69999992847,6,1,491.40000009537,0.7777777777777778,2,object_05,5,2001,0,3,7,library_4,1,memory-2step-stake-s,673,2244063,0.0-19.0-0.1-0.172,A25W2HZYMZVCM1,31KPKEKW5DTYWQJ2Z73D1GA4ZNDB00,30BXRYBRP8D4HCL3I8BWJ6ITPH0WH3,6,5
173,3,object_10,object_08,483.69999992847,6,2,929.10000002384,0.6666666666666666,2,object_05,1,2007,0,0,6,library_1,1,memory-2step-stake-s,674,2252926,0.0-19.0-0.1-0.173,A25W2HZYMZVCM1,31KPKEKW5DTYWQJ2Z73D1GA4ZNDB00,30BXRYBRP8D4HCL3I8BWJ6ITPH0WH3,5,6
174,4,object_02,object_01,379.20000004768,8,1,624.0,0.8888888888888888,2,object_05,5,2047,0,1,8,restaurant_3,1,memory-2step-stake-s,675,2261665,0.0-19.0-0.1-0.174,A25W2HZYMZVCM1,31KPKEKW5DTYWQJ2Z73D1GA4ZNDB00,30BXRYBRP8D4HCL3I8BWJ6ITPH0WH3,8,7
175,1,object_09,object_07,383.0,1,2,560.39999997616,0.2222222222222222,1,object_03,1,2049,0,2,7,desert_3,1,memory-2step-stake-s,676,2269716,0.0-19.0-0.1-0.175,A25W2HZYMZVCM1,31KPKEKW5DTYWQJ2Z73D1GA4ZNDB00,30BXRYBRP8D4HCL3I8BWJ6ITPH0WH3,2,1
176,2,object_04,object_06,935.10000002384,4,1,650.60000002384,0.4444444444444444,2,object_05,5,2069,0,1,4,forest_2,1,memory-2step-stake-s,677,2278029,0.0-19.0-0.1-0.176,A25W2HZYMZVCM1,31KPKEKW5DTYWQJ2Z73D1GA4ZNDB00,30BXRYBRP8D4HCL3I8BWJ6ITPH0WH3,4,3
177,4,object_02,object_01,668.10000002384,7,2,705.5,0.2222222222222222,1,object_03,1,2071,0,2,1,restaurant_5,1,memory-2step-stake-s,678,2286224,0.0-19.0-0.1-0.177,A25W2HZYMZVCM1,31KPKEKW5DTYWQJ2Z73D1GA4ZNDB00,30BXRYBRP8D4HCL3I8BWJ6ITPH0WH3,8,7
178,1,object_07,object_09,1044.5,1,1,698.79999995232,0.4444444444444444,1,object_03,5,2091,0,4,1,desert_5,1,memory-2step-stake-s,679,2294634,0.0-19.0-0.1-0.178,A25W2HZYMZVCM1,31KPKEKW5DTYWQJ2Z73D1GA4ZNDB00,30BXRYBRP8D4HCL3I8BWJ6ITPH0WH3,1,2
179,2,object_06,object_04,456.0,4,2,845.0,0.3333333333333333,2,object_05,1,2094,0,5,3,forest_7,1,memory-2step-stake-s,680,2303037,0.0-19.0-0.1-0.179,A25W2HZYMZVCM1,31KPKEKW5DTYWQJ2Z73D1GA4ZNDB00,30BXRYBRP8D4HCL3I8BWJ6ITPH0WH3,3,4
180,2,object_04,object_06,672.10000002384,3,2,405.69999992847,0.6666666666666666,1,object_03,1,2100,0,6,4,forest_6,1,memory-2step-stake-s,681,2311321,0.0-19.0-0.1-0.180,A25W2HZYMZVCM1,31KPKEKW5DTYWQJ2Z73D1GA4ZNDB00,30BXRYBRP8D4HCL3I8BWJ6ITPH0WH3,4,3
181,2,object_04,object_06,756.79999995232,4,1,1275.5,0.7777777777777778,2,object_05,1,2107,0,6,7,forest_7,1,memory-2step-stake-s,682,2320589,0.0-19.0-0.1-0.181,A25W2HZYMZVCM1,31KPKEKW5DTYWQJ2Z73D1GA4ZNDB00,30BXRYBRP8D4HCL3I8BWJ6ITPH0WH3,4,3
182,2,object_06,object_04,500.39999997616,4,2,448.09999990463,0.7777777777777778,2,object_05,5,2142,0,5,7,forest_2,1,memory-2step-stake-s,683,2329031,0.0-19.0-0.1-0.182,A25W2HZYMZVCM1,31KPKEKW5DTYWQJ2Z73D1GA4ZNDB00,30BXRYBRP8D4HCL3I8BWJ6ITPH0WH3,3,4
183,2,object_04,object_06,712.19999992847,4,1,496.0,0.8888888888888888,2,object_05,5,2182,0,4,8,forest_3,1,memory-2step-stake-s,684,2337604,0.0-19.0-0.1-0.183,A25W2HZYMZVCM1,31KPKEKW5DTYWQJ2Z73D1GA4ZNDB00,30BXRYBRP8D4HCL3I8BWJ6ITPH0WH3,4,3
184,4,object_01,object_02,-1.0,-1,-1,-1.0,0.0,-,0,1,2182,0,5,8,restaurant_3,1,memory-2step-stake-s,685,2344156,0.0-19.0-0.1-0.184,A25W2HZYMZVCM1,31KPKEKW5DTYWQJ2Z73D1GA4ZNDB00,30BXRYBRP8D4HCL3I8BWJ6ITPH0WH3,7,8
185,1,object_07,object_09,849.60000002384,2,2,600.0,0.6666666666666666,2,object_05,1,2188,0,3,6,desert_6,1,memory-2step-stake-s,686,2352639,0.0-19.0-0.1-0.185,A25W2HZYMZVCM1,31KPKEKW5DTYWQJ2Z73D1GA4ZNDB00,30BXRYBRP8D4HCL3I8BWJ6ITPH0WH3,1,2
186,1,object_07,object_09,290.59999990463,1,1,505.29999995232,0.3333333333333333,1,object_03,1,2191,0,3,8,desert_5,1,memory-2step-stake-s,687,2360726,0.0-19.0-0.1-0.186,A25W2HZYMZVCM1,31KPKEKW5DTYWQJ2Z73D1GA4ZNDB00,30BXRYBRP8D4HCL3I8BWJ6ITPH0WH3,1,2
187,1,object_09,object_07,330.79999995232,1,2,564.5,0.3333333333333333,1,object_03,1,2194,0,3,7,desert_3,1,memory-2step-stake-s,688,2368862,0.0-19.0-0.1-0.187,A25W2HZYMZVCM1,31KPKEKW5DTYWQJ2Z73D1GA4ZNDB00,30BXRYBRP8D4HCL3I8BWJ6ITPH0WH3,2,1
188,2,object_06,object_04,596.10000002384,4,2,542.79999995232,0.6666666666666666,2,object_05,1,2200,0,2,6,forest_7,1,memory-2step-stake-s,689,2377317,0.0-19.0-0.1-0.188,A25W2HZYMZVCM1,31KPKEKW5DTYWQJ2Z73D1GA4ZNDB00,30BXRYBRP8D4HCL3I8BWJ6ITPH0WH3,3,4
189,4,object_02,object_01,591.10000002384,8,1,378.90000009537,0.8888888888888888,2,object_05,5,2240,0,4,8,restaurant_5,1,memory-2step-stake-s,690,2385798,0.0-19.0-0.1-0.189,A25W2HZYMZVCM1,31KPKEKW5DTYWQJ2Z73D1GA4ZNDB00,30BXRYBRP8D4HCL3I8BWJ6ITPH0WH3,8,7
190,2,object_06,object_04,342.5,4,2,626.10000002384,0.5555555555555556,2,object_05,1,2245,0,3,5,forest_2,1,memory-2step-stake-s,691,2394234,0.0-19.0-0.1-0.190,A25W2HZYMZVCM1,31KPKEKW5DTYWQJ2Z73D1GA4ZNDB00,30BXRYBRP8D4HCL3I8BWJ6ITPH0WH3,3,4
191,1,object_09,object_07,263.70000004768,2,1,667.10000002384,0.7777777777777778,2,object_05,1,2252,0,1,7,desert_5,1,memory-2step-stake-s,692,2402906,0.0-19.0-0.1-0.191,A25W2HZYMZVCM1,31KPKEKW5DTYWQJ2Z73D1GA4ZNDB00,30BXRYBRP8D4HCL3I8BWJ6ITPH0WH3,2,1
192,3,object_08,object_10,554.79999995232,5,2,798.30000007153,0.3333333333333333,1,object_03,5,2267,0,3,6,library_7,1,memory-2step-stake-s,693,2411294,0.0-19.0-0.1-0.192,A25W2HZYMZVCM1,31KPKEKW5DTYWQJ2Z73D1GA4ZNDB00,30BXRYBRP8D4HCL3I8BWJ6ITPH0WH3,6,5
193,1,object_09,object_07,129.60000002384,2,1,285.5,1.0,2,object_05,1,2276,0,0,9,desert_3,1,memory-2step-stake-s,694,2419794,0.0-19.0-0.1-0.193,A25W2HZYMZVCM1,31KPKEKW5DTYWQJ2Z73D1GA4ZNDB00,30BXRYBRP8D4HCL3I8BWJ6ITPH0WH3,2,1
194,3,object_10,object_08,621.79999995232,6,2,523.70000004768,0.5555555555555556,2,object_05,5,2301,0,1,5,library_5,1,memory-2step-stake-s,695,2428121,0.0-19.0-0.1-0.194,A25W2HZYMZVCM1,31KPKEKW5DTYWQJ2Z73D1GA4ZNDB00,30BXRYBRP8D4HCL3I8BWJ6ITPH0WH3,5,6
195,1,object_09,object_07,431.39999997616,1,2,533.20000004768,0.1111111111111111,1,object_03,1,2302,0,1,3,desert_3,1,memory-2step-stake-s,696,2436034,0.0-19.0-0.1-0.195,A25W2HZYMZVCM1,31KPKEKW5DTYWQJ2Z73D1GA4ZNDB00,30BXRYBRP8D4HCL3I8BWJ6ITPH0WH3,2,1
196,4,object_02,object_01,759.0,8,1,745.79999995232,0.2222222222222222,2,object_05,5,2312,0,0,2,restaurant_7,1,memory-2step-stake-s,697,2444277,0.0-19.0-0.1-0.196,A25W2HZYMZVCM1,31KPKEKW5DTYWQJ2Z73D1GA4ZNDB00,30BXRYBRP8D4HCL3I8BWJ6ITPH0WH3,8,7
197,4,object_02,object_01,692.0,7,2,434.59999990463,0.3333333333333333,1,object_03,5,2327,0,3,2,restaurant_7,1,memory-2step-stake-s,698,2452300,0.0-19.0-0.1-0.197,A25W2HZYMZVCM1,31KPKEKW5DTYWQJ2Z73D1GA4ZNDB00,30BXRYBRP8D4HCL3I8BWJ6ITPH0WH3,8,7
198,1,object_09,object_07,583.40000009537,2,1,1090.3000000715,0.4444444444444444,2,object_05,5,2347,0,1,4,desert_5,1,memory-2step-stake-s,699,2461056,0.0-19.0-0.1-0.198,A25W2HZYMZVCM1,31KPKEKW5DTYWQJ2Z73D1GA4ZNDB00,30BXRYBRP8D4HCL3I8BWJ6ITPH0WH3,2,1
199,2,object_06,object_04,797.69999992847,4,2,480.5,0.1111111111111111,2,object_05,1,2348,0,0,1,forest_3,1,memory-2step-stake-s,700,2468931,0.0-19.0-0.1-0.199,A25W2HZYMZVCM1,31KPKEKW5DTYWQJ2Z73D1GA4ZNDB00,30BXRYBRP8D4HCL3I8BWJ6ITPH0WH3,3,4
200,4,object_01,object_02,465.89999997616,7,1,703.39999997616,0.1111111111111111,1,object_03,1,2349,0,1,2,restaurant_6,1,memory-2step-stake-s,701,2477008,0.0-19.0-0.1-0.200,A25W2HZYMZVCM1,31KPKEKW5DTYWQJ2Z73D1GA4ZNDB00,30BXRYBRP8D4HCL3I8BWJ6ITPH0WH3,7,8
201,3,object_10,object_08,653.5,6,2,296.10000002384,0.4444444444444444,2,object_05,5,2369,0,1,4,library_5,1,memory-2step-stake-s,702,2484973,0.0-19.0-0.1-0.201,A25W2HZYMZVCM1,31KPKEKW5DTYWQJ2Z73D1GA4ZNDB00,30BXRYBRP8D4HCL3I8BWJ6ITPH0WH3,5,6
202,1,object_09,object_07,428.80000007153,2,1,494.89999997616,0.2222222222222222,2,object_05,1,2371,0,0,2,desert_8,1,memory-2step-stake-s,703,2492919,0.0-19.0-0.1-0.202,A25W2HZYMZVCM1,31KPKEKW5DTYWQJ2Z73D1GA4ZNDB00,30BXRYBRP8D4HCL3I8BWJ6ITPH0WH3,2,1
203,4,object_02,object_01,660.10000002384,8,1,355.70000004768,0.2222222222222222,2,object_05,1,2373,0,0,2,restaurant_5,1,memory-2step-stake-s,704,2500727,0.0-19.0-0.1-0.203,A25W2HZYMZVCM1,31KPKEKW5DTYWQJ2Z73D1GA4ZNDB00,30BXRYBRP8D4HCL3I8BWJ6ITPH0WH3,8,7
204,3,object_10,object_08,1012.5,6,2,559.79999995232,0.2222222222222222,2,object_05,5,2383,0,1,2,library_5,1,memory-2step-stake-s,705,2508759,0.0-19.0-0.1-0.204,A25W2HZYMZVCM1,31KPKEKW5DTYWQJ2Z73D1GA4ZNDB00,30BXRYBRP8D4HCL3I8BWJ6ITPH0WH3,5,6
205,4,object_01,object_02,620.60000002384,8,2,544.0,0.2222222222222222,2,object_05,1,2385,0,5,2,restaurant_7,1,memory-2step-stake-s,706,2516767,0.0-19.0-0.1-0.205,A25W2HZYMZVCM1,31KPKEKW5DTYWQJ2Z73D1GA4ZNDB00,30BXRYBRP8D4HCL3I8BWJ6ITPH0WH3,7,8
206,3,object_08,object_10,706.70000004768,6,1,1004.7999999523,0.5555555555555556,2,object_05,1,2390,0,7,5,library_7,1,memory-2step-stake-s,707,2525552,0.0-19.0-0.1-0.206,A25W2HZYMZVCM1,31KPKEKW5DTYWQJ2Z73D1GA4ZNDB00,30BXRYBRP8D4HCL3I8BWJ6ITPH0WH3,6,5
207,4,object_02,object_01,548.29999995232,7,2,590.59999990463,1.0,1,object_03,5,2435,0,9,6,restaurant_3,1,memory-2step-stake-s,708,2534332,0.0-19.0-0.1-0.207,A25W2HZYMZVCM1,31KPKEKW5DTYWQJ2Z73D1GA4ZNDB00,30BXRYBRP8D4HCL3I8BWJ6ITPH0WH3,8,7
208,3,object_08,object_10,667.0,6,1,535.40000009537,0.7777777777777778,2,object_05,1,2442,0,9,7,library_1,1,memory-2step-stake-s,709,2542839,0.0-19.0-0.1-0.208,A25W2HZYMZVCM1,31KPKEKW5DTYWQJ2Z73D1GA4ZNDB00,30BXRYBRP8D4HCL3I8BWJ6ITPH0WH3,6,5
209,3,object_10,object_08,718.60000002384,6,2,382.0,0.6666666666666666,2,object_05,5,2472,0,8,6,library_5,1,memory-2step-stake-s,710,2551104,0.0-19.0-0.1-0.209,A25W2HZYMZVCM1,31KPKEKW5DTYWQJ2Z73D1GA4ZNDB00,30BXRYBRP8D4HCL3I8BWJ6ITPH0WH3,5,6
210,1,object_09,object_07,688.5,2,1,-1.0,0.0,2,object_05,1,2472,0,6,5,desert_8,1,memory-2step-stake-s,711,2559695,0.0-19.0-0.1-0.210,A25W2HZYMZVCM1,31KPKEKW5DTYWQJ2Z73D1GA4ZNDB00,30BXRYBRP8D4HCL3I8BWJ6ITPH0WH3,2,1
211,4,object_01,object_02,1375.7000000477,8,2,-1.0,0.0,2,object_05,1,2472,0,5,4,restaurant_6,1,memory-2step-stake-s,712,2568254,0.0-19.0-0.1-0.211,A25W2HZYMZVCM1,31KPKEKW5DTYWQJ2Z73D1GA4ZNDB00,30BXRYBRP8D4HCL3I8BWJ6ITPH0WH3,7,8
212,3,object_10,object_08,654.20000004768,6,2,442.70000004768,0.4444444444444444,2,object_05,5,2492,0,4,4,library_5,1,memory-2step-stake-s,713,2576384,0.0-19.0-0.1-0.212,A25W2HZYMZVCM1,31KPKEKW5DTYWQJ2Z73D1GA4ZNDB00,30BXRYBRP8D4HCL3I8BWJ6ITPH0WH3,5,6
213,1,object_07,object_09,745.79999995232,2,2,352.5,0.1111111111111111,2,object_05,1,2493,0,5,1,desert_8,1,memory-2step-stake-s,714,2584101,0.0-19.0-0.1-0.213,A25W2HZYMZVCM1,31KPKEKW5DTYWQJ2Z73D1GA4ZNDB00,30BXRYBRP8D4HCL3I8BWJ6ITPH0WH3,1,2
214,3,object_10,object_08,323.30000007153,5,1,562.79999995232,0.0,1,object_03,5,2493,0,0,2,library_7,1,memory-2step-stake-s,715,2591953,0.0-19.0-0.1-0.214,A25W2HZYMZVCM1,31KPKEKW5DTYWQJ2Z73D1GA4ZNDB00,30BXRYBRP8D4HCL3I8BWJ6ITPH0WH3,5,6
215,1,object_07,object_09,330.80000007153,2,2,367.0,0.3333333333333333,2,object_05,1,2496,0,0,3,desert_3,1,memory-2step-stake-s,716,2599912,0.0-19.0-0.1-0.215,A25W2HZYMZVCM1,31KPKEKW5DTYWQJ2Z73D1GA4ZNDB00,30BXRYBRP8D4HCL3I8BWJ6ITPH0WH3,1,2
216,1,object_07,object_09,450.60000002384,1,1,339.69999992847,0.1111111111111111,1,object_03,1,2497,0,1,4,desert_6,1,memory-2step-stake-s,717,2607616,0.0-19.0-0.1-0.216,A25W2HZYMZVCM1,31KPKEKW5DTYWQJ2Z73D1GA4ZNDB00,30BXRYBRP8D4HCL3I8BWJ6ITPH0WH3,1,2
217,3,object_08,object_10,283.40000009537,5,2,274.30000007153,0.3333333333333333,1,object_03,5,2512,0,3,3,library_4,1,memory-2step-stake-s,718,2615459,0.0-19.0-0.1-0.217,A25W2HZYMZVCM1,31KPKEKW5DTYWQJ2Z73D1GA4ZNDB00,30BXRYBRP8D4HCL3I8BWJ6ITPH0WH3,6,5
218,1,object_07,object_09,693.10000002384,1,1,439.0,0.4444444444444444,1,object_03,1,2516,0,4,1,desert_5,1,memory-2step-stake-s,719,2623586,0.0-19.0-0.1-0.218,A25W2HZYMZVCM1,31KPKEKW5DTYWQJ2Z73D1GA4ZNDB00,30BXRYBRP8D4HCL3I8BWJ6ITPH0WH3,1,2
219,3,object_08,object_10,543.39999997616,5,2,364.5,0.4444444444444444,1,object_03,5,2536,0,4,3,library_5,1,memory-2step-stake-s,720,2631639,0.0-19.0-0.1-0.219,A25W2HZYMZVCM1,31KPKEKW5DTYWQJ2Z73D1GA4ZNDB00,30BXRYBRP8D4HCL3I8BWJ6ITPH0WH3,6,5
220,3,object_10,object_08,282.19999992847,5,1,609.20000004768,0.5555555555555556,1,object_03,1,2541,0,5,3,library_7,1,memory-2step-stake-s,721,2640037,0.0-19.0-0.1-0.220,A25W2HZYMZVCM1,31KPKEKW5DTYWQJ2Z73D1GA4ZNDB00,30BXRYBRP8D4HCL3I8BWJ6ITPH0WH3,5,6
221,3,object_10,object_08,836.60000002384,6,2,461.0,0.2222222222222222,2,object_05,5,2551,0,7,2,library_7,1,memory-2step-stake-s,722,2647942,0.0-19.0-0.1-0.221,A25W2HZYMZVCM1,31KPKEKW5DTYWQJ2Z73D1GA4ZNDB00,30BXRYBRP8D4HCL3I8BWJ6ITPH0WH3,5,6
222,4,object_01,object_02,471.10000002384,7,1,444.20000004768,0.8888888888888888,1,object_03,1,2559,0,8,3,restaurant_7,1,memory-2step-stake-s,723,2656495,0.0-19.0-0.1-0.222,A25W2HZYMZVCM1,31KPKEKW5DTYWQJ2Z73D1GA4ZNDB00,30BXRYBRP8D4HCL3I8BWJ6ITPH0WH3,7,8
223,2,object_06,object_04,557.0,4,2,673.89999997616,0.2222222222222222,2,object_05,1,2561,0,8,2,forest_3,1,memory-2step-stake-s,724,2664648,0.0-19.0-0.1-0.223,A25W2HZYMZVCM1,31KPKEKW5DTYWQJ2Z73D1GA4ZNDB00,30BXRYBRP8D4HCL3I8BWJ6ITPH0WH3,3,4
224,2,object_04,object_06,297.5,4,1,484.0,0.2222222222222222,2,object_05,1,2563,0,7,2,forest_2,1,memory-2step-stake-s,725,2672631,0.0-19.0-0.1-0.224,A25W2HZYMZVCM1,31KPKEKW5DTYWQJ2Z73D1GA4ZNDB00,30BXRYBRP8D4HCL3I8BWJ6ITPH0WH3,4,3
225,4,object_02,object_01,454.20000004768,7,2,522.19999992847,0.4444444444444444,1,object_03,5,2583,0,4,5,restaurant_3,1,memory-2step-stake-s,726,2680821,0.0-19.0-0.1-0.225,A25W2HZYMZVCM1,31KPKEKW5DTYWQJ2Z73D1GA4ZNDB00,30BXRYBRP8D4HCL3I8BWJ6ITPH0WH3,8,7
226,1,object_07,object_09,350.30000007153,1,1,469.59999990463,0.4444444444444444,1,object_03,1,2587,0,4,6,desert_8,1,memory-2step-stake-s,727,2688996,0.0-19.0-0.1-0.226,A25W2HZYMZVCM1,31KPKEKW5DTYWQJ2Z73D1GA4ZNDB00,30BXRYBRP8D4HCL3I8BWJ6ITPH0WH3,1,2
227,1,object_07,object_09,324.5,2,2,517.89999997616,0.6666666666666666,2,object_05,5,2617,0,1,6,desert_6,1,memory-2step-stake-s,728,2697431,0.0-19.0-0.1-0.227,A25W2HZYMZVCM1,31KPKEKW5DTYWQJ2Z73D1GA4ZNDB00,30BXRYBRP8D4HCL3I8BWJ6ITPH0WH3,1,2
228,4,object_02,object_01,-1.0,-1,-1,-1.0,0.0,-,0,5,2617,0,0,9,restaurant_3,1,memory-2step-stake-s,729,2703990,0.0-19.0-0.1-0.228,A25W2HZYMZVCM1,31KPKEKW5DTYWQJ2Z73D1GA4ZNDB00,30BXRYBRP8D4HCL3I8BWJ6ITPH0WH3,8,7
229,1,object_07,object_09,614.79999995232,1,1,632.39999997616,0.0,1,object_03,5,2617,0,0,6,desert_5,1,memory-2step-stake-s,730,2711881,0.0-19.0-0.1-0.229,A25W2HZYMZVCM1,31KPKEKW5DTYWQJ2Z73D1GA4ZNDB00,30BXRYBRP8D4HCL3I8BWJ6ITPH0WH3,1,2
230,2,object_06,object_04,318.30000007153,4,2,381.40000009537,0.8888888888888888,2,object_05,1,2625,0,3,8,forest_7,1,memory-2step-stake-s,731,2720308,0.0-19.0-0.1-0.230,A25W2HZYMZVCM1,31KPKEKW5DTYWQJ2Z73D1GA4ZNDB00,30BXRYBRP8D4HCL3I8BWJ6ITPH0WH3,3,4
231,1,object_09,object_07,3.2999999523163,1,2,554.59999990463,0.2222222222222222,1,object_03,1,2627,0,2,9,desert_5,1,memory-2step-stake-s,732,2728342,0.0-19.0-0.1-0.231,A25W2HZYMZVCM1,31KPKEKW5DTYWQJ2Z73D1GA4ZNDB00,30BXRYBRP8D4HCL3I8BWJ6ITPH0WH3,2,1
232,4,object_02,object_01,330.89999997616,8,1,308.29999995232,0.7777777777777778,2,object_05,5,2662,0,5,7,restaurant_5,1,memory-2step-stake-s,733,2736671,0.0-19.0-0.1-0.232,A25W2HZYMZVCM1,31KPKEKW5DTYWQJ2Z73D1GA4ZNDB00,30BXRYBRP8D4HCL3I8BWJ6ITPH0WH3,8,7
233,2,object_06,object_04,318.0,4,2,443.0,0.6666666666666666,2,object_05,1,2668,0,7,6,forest_3,1,memory-2step-stake-s,734,2745027,0.0-19.0-0.1-0.233,A25W2HZYMZVCM1,31KPKEKW5DTYWQJ2Z73D1GA4ZNDB00,30BXRYBRP8D4HCL3I8BWJ6ITPH0WH3,3,4
234,4,object_02,object_01,560.89999997616,8,1,515.10000002384,0.5555555555555556,2,object_05,5,2693,0,6,5,restaurant_6,1,memory-2step-stake-s,735,2753318,0.0-19.0-0.1-0.234,A25W2HZYMZVCM1,31KPKEKW5DTYWQJ2Z73D1GA4ZNDB00,30BXRYBRP8D4HCL3I8BWJ6ITPH0WH3,8,7
235,3,object_10,object_08,403.0,6,2,399.79999995232,0.3333333333333333,2,object_05,5,2708,0,8,3,library_5,1,memory-2step-stake-s,736,2761285,0.0-19.0-0.1-0.235,A25W2HZYMZVCM1,31KPKEKW5DTYWQJ2Z73D1GA4ZNDB00,30BXRYBRP8D4HCL3I8BWJ6ITPH0WH3,5,6
236,1,object_07,object_09,360.69999992847,1,1,402.19999992847,0.7777777777777778,1,object_03,1,2715,0,7,6,desert_6,1,memory-2step-stake-s,737,2769688,0.0-19.0-0.1-0.236,A25W2HZYMZVCM1,31KPKEKW5DTYWQJ2Z73D1GA4ZNDB00,30BXRYBRP8D4HCL3I8BWJ6ITPH0WH3,1,2
237,4,object_02,object_01,355.0,7,2,467.10000002384,0.8888888888888888,1,object_03,1,2723,0,8,7,restaurant_6,1,memory-2step-stake-s,738,2778272,0.0-19.0-0.1-0.237,A25W2HZYMZVCM1,31KPKEKW5DTYWQJ2Z73D1GA4ZNDB00,30BXRYBRP8D4HCL3I8BWJ6ITPH0WH3,8,7
238,1,object_07,object_09,341.20000004768,1,1,475.10000002384,0.6666666666666666,1,object_03,1,2729,0,6,7,desert_5,1,memory-2step-stake-s,739,2786657,0.0-19.0-0.1-0.238,A25W2HZYMZVCM1,31KPKEKW5DTYWQJ2Z73D1GA4ZNDB00,30BXRYBRP8D4HCL3I8BWJ6ITPH0WH3,1,2
239,2,object_04,object_06,639.0,3,2,418.60000002384,1.0,1,object_03,1,2738,0,9,5,forest_6,1,memory-2step-stake-s,740,2795277,0.0-19.0-0.1-0.239,A25W2HZYMZVCM1,31KPKEKW5DTYWQJ2Z73D1GA4ZNDB00,30BXRYBRP8D4HCL3I8BWJ6ITPH0WH3,4,3
240,1,object_09,object_07,284.40000009537,2,1,363.0,0.4444444444444444,2,object_05,1,2742,0,8,4,desert_8,1,memory-2step-stake-s,741,2803328,0.0-19.0-0.1-0.240,A25W2HZYMZVCM1,31KPKEKW5DTYWQJ2Z73D1GA4ZNDB00,30BXRYBRP8D4HCL3I8BWJ6ITPH0WH3,2,1
241,4,object_01,object_02,384.0,8,2,267.5,0.0,2,object_05,5,2742,0,9,0,restaurant_7,1,memory-2step-stake-s,742,2810844,0.0-19.0-0.1-0.241,A25W2HZYMZVCM1,31KPKEKW5DTYWQJ2Z73D1GA4ZNDB00,30BXRYBRP8D4HCL3I8BWJ6ITPH0WH3,7,8
242,1,object_07,object_09,903.20000004768,2,2,451.79999995232,0.3333333333333333,2,object_05,1,2745,0,7,3,desert_6,1,memory-2step-stake-s,743,2818854,0.0-19.0-0.1-0.242,A25W2HZYMZVCM1,31KPKEKW5DTYWQJ2Z73D1GA4ZNDB00,30BXRYBRP8D4HCL3I8BWJ6ITPH0WH3,1,2
243,2,object_06,object_04,341.0,3,1,344.79999995232,0.6666666666666666,1,object_03,5,2775,0,6,0,forest_3,1,memory-2step-stake-s,744,2827097,0.0-19.0-0.1-0.243,A25W2HZYMZVCM1,31KPKEKW5DTYWQJ2Z73D1GA4ZNDB00,30BXRYBRP8D4HCL3I8BWJ6ITPH0WH3,3,4
244,2,object_06,object_04,355.5,4,2,563.70000004768,0.1111111111111111,2,object_05,1,2776,0,6,1,forest_6,1,memory-2step-stake-s,745,2835039,0.0-19.0-0.1-0.244,A25W2HZYMZVCM1,31KPKEKW5DTYWQJ2Z73D1GA4ZNDB00,30BXRYBRP8D4HCL3I8BWJ6ITPH0WH3,3,4
245,2,object_06,object_04,939.5,3,1,654.69999992847,0.5555555555555556,1,object_03,1,2781,0,5,2,forest_3,1,memory-2step-stake-s,746,2843496,0.0-19.0-0.1-0.245,A25W2HZYMZVCM1,31KPKEKW5DTYWQJ2Z73D1GA4ZNDB00,30BXRYBRP8D4HCL3I8BWJ6ITPH0WH3,3,4
246,3,object_10,object_08,395.0,6,2,404.10000002384,0.2222222222222222,2,object_05,5,2791,0,5,2,library_7,1,memory-2step-stake-s,747,2851394,0.0-19.0-0.1-0.246,A25W2HZYMZVCM1,31KPKEKW5DTYWQJ2Z73D1GA4ZNDB00,30BXRYBRP8D4HCL3I8BWJ6ITPH0WH3,5,6
247,3,object_08,object_10,478.10000002384,6,1,341.20000004768,0.3333333333333333,2,object_05,5,2806,0,5,3,library_1,1,memory-2step-stake-s,748,2859299,0.0-19.0-0.1-0.247,A25W2HZYMZVCM1,31KPKEKW5DTYWQJ2Z73D1GA4ZNDB00,30BXRYBRP8D4HCL3I8BWJ6ITPH0WH3,6,5
248,4,object_01,object_02,307.80000007153,8,2,284.0,0.4444444444444444,2,object_05,5,2826,0,3,4,restaurant_5,1,memory-2step-stake-s,749,2867286,0.0-19.0-0.1-0.248,A25W2HZYMZVCM1,31KPKEKW5DTYWQJ2Z73D1GA4ZNDB00,30BXRYBRP8D4HCL3I8BWJ6ITPH0WH3,7,8
249,1,object_09,object_07,399.0,2,1,638.10000002384,0.5555555555555556,2,object_05,1,2831,0,2,5,desert_8,1,memory-2step-stake-s,750,2875729,0.0-19.0-0.1-0.249,A25W2HZYMZVCM1,31KPKEKW5DTYWQJ2Z73D1GA4ZNDB00,30BXRYBRP8D4HCL3I8BWJ6ITPH0WH3,2,1
250,1,object_09,object_07,534.30000007153,2,1,394.20000004768,0.6666666666666666,2,object_05,1,2837,0,1,6,desert_5,1,memory-2step-stake-s,751,2884012,0.0-19.0-0.1-0.250,A25W2HZYMZVCM1,31KPKEKW5DTYWQJ2Z73D1GA4ZNDB00,30BXRYBRP8D4HCL3I8BWJ6ITPH0WH3,2,1
251,4,object_01,object_02,350.39999997616,8,2,527.0,0.4444444444444444,2,object_05,1,2841,0,1,4,restaurant_5,1,memory-2step-stake-s,752,2892245,0.0-19.0-0.1-0.251,A25W2HZYMZVCM1,31KPKEKW5DTYWQJ2Z73D1GA4ZNDB00,30BXRYBRP8D4HCL3I8BWJ6ITPH0WH3,7,8
252,3,object_10,object_08,374.0,5,1,40.5,0.3333333333333333,1,object_03,1,2844,0,3,0,library_5,1,memory-2step-stake-s,753,2899890,0.0-19.0-0.1-0.252,A25W2HZYMZVCM1,31KPKEKW5DTYWQJ2Z73D1GA4ZNDB00,30BXRYBRP8D4HCL3I8BWJ6ITPH0WH3,5,6
253,2,object_06,object_04,621.70000004768,4,2,548.09999990463,0.1111111111111111,2,object_05,1,2845,0,3,1,forest_3,1,memory-2step-stake-s,754,2907827,0.0-19.0-0.1-0.253,A25W2HZYMZVCM1,31KPKEKW5DTYWQJ2Z73D1GA4ZNDB00,30BXRYBRP8D4HCL3I8BWJ6ITPH0WH3,3,4
254,1,object_09,object_07,500.30000007153,2,1,413.89999997616,0.3333333333333333,2,object_05,1,2848,0,3,3,desert_6,1,memory-2step-stake-s,755,2915810,0.0-19.0-0.1-0.254,A25W2HZYMZVCM1,31KPKEKW5DTYWQJ2Z73D1GA4ZNDB00,30BXRYBRP8D4HCL3I8BWJ6ITPH0WH3,2,1
255,2,object_04,object_06,726.39999997616,3,2,405.20000004768,0.0,1,object_03,1,2848,0,0,5,forest_2,1,memory-2step-stake-s,756,2923522,0.0-19.0-0.1-0.255,A25W2HZYMZVCM1,31KPKEKW5DTYWQJ2Z73D1GA4ZNDB00,30BXRYBRP8D4HCL3I8BWJ6ITPH0WH3,4,3
