,state1,stim_left,stim_right,rt_1,choice1,response1,rt_2,points,state2,stim_state2,stake,score,practice,rews1,rews2,background,high_arm,trial_type,trial_index,time_elapsed,internal_node_id,subid,hitid,assignmentid,stim_left_num,stim_right_num
0,4,object_09,object_07,848.0,7,2,-1.0,0.0,1,object_06,1,0,0,2,3,restaurant_1,2,memory-2step-stake-s,489,1251954,0.0-19.0-0.0-0.0,A1VAL7L9L79IN0,3SA4EMRVKYI00KKCICLEW0FTGRS0PA,3H7Z272LXBNGJZ7SX7CZJ434D11PL3,8,7
1,4,object_09,object_07,517.0,8,1,927.0,0.5555555555555556,2,object_08,1,5,0,5,5,restaurant_1,2,memory-2step-stake-s,490,1260769,0.0-19.0-0.0-0.1,A1VAL7L9L79IN0,3SA4EMRVKYI00KKCICLEW0FTGRS0PA,3H7Z272LXBNGJZ7SX7CZJ434D11PL3,8,7
2,3,object_04,object_05,553.0,6,2,788.0,0.1111111111111111,2,object_08,5,10,0,3,1,library_6,2,memory-2step-stake-s,491,1268941,0.0-19.0-0.0-0.2,A1VAL7L9L79IN0,3SA4EMRVKYI00KKCICLEW0FTGRS0PA,3H7Z272LXBNGJZ7SX7CZJ434D11PL3,5,6
3,3,object_04,object_05,599.0,6,2,505.0,0.2222222222222222,2,object_08,1,12,0,2,2,library_3,2,memory-2step-stake-s,492,1276928,0.0-19.0-0.0-0.3,A1VAL7L9L79IN0,3SA4EMRVKYI00KKCICLEW0FTGRS0PA,3H7Z272LXBNGJZ7SX7CZJ434D11PL3,5,6
4,1,object_02,object_10,867.0,1,1,1047.0,0.4444444444444444,1,object_06,1,16,0,4,3,desert_8,2,memory-2step-stake-s,493,1285697,0.0-19.0-0.0-0.4,A1VAL7L9L79IN0,3SA4EMRVKYI00KKCICLEW0FTGRS0PA,3H7Z272LXBNGJZ7SX7CZJ434D11PL3,1,2
5,1,object_02,object_10,782.0,2,2,1268.0,0.6666666666666666,2,object_08,5,46,0,3,6,desert_8,2,memory-2step-stake-s,494,1294882,0.0-19.0-0.0-0.5,A1VAL7L9L79IN0,3SA4EMRVKYI00KKCICLEW0FTGRS0PA,3H7Z272LXBNGJZ7SX7CZJ434D11PL3,1,2
6,3,object_05,object_04,717.0,5,2,742.0,0.5555555555555556,1,object_06,1,51,0,5,5,library_8,2,memory-2step-stake-s,495,1303451,0.0-19.0-0.0-0.6,A1VAL7L9L79IN0,3SA4EMRVKYI00KKCICLEW0FTGRS0PA,3H7Z272LXBNGJZ7SX7CZJ434D11PL3,6,5
7,3,object_05,object_04,1275.0,5,2,703.0,0.6666666666666666,1,object_06,1,57,0,6,1,library_6,2,memory-2step-stake-s,496,1312085,0.0-19.0-0.0-0.7,A1VAL7L9L79IN0,3SA4EMRVKYI00KKCICLEW0FTGRS0PA,3H7Z272LXBNGJZ7SX7CZJ434D11PL3,6,5
8,3,object_04,object_05,774.0,5,1,652.0,0.2222222222222222,1,object_06,1,59,0,2,1,library_1,2,memory-2step-stake-s,497,1320243,0.0-19.0-0.0-0.8,A1VAL7L9L79IN0,3SA4EMRVKYI00KKCICLEW0FTGRS0PA,3H7Z272LXBNGJZ7SX7CZJ434D11PL3,5,6
9,3,object_05,object_04,518.0,6,1,499.0,0.4444444444444444,2,object_08,5,79,0,2,4,library_6,2,memory-2step-stake-s,498,1328449,0.0-19.0-0.0-0.9,A1VAL7L9L79IN0,3SA4EMRVKYI00KKCICLEW0FTGRS0PA,3H7Z272LXBNGJZ7SX7CZJ434D11PL3,6,5
10,2,object_03,object_01,809.0,4,2,658.0,0.5555555555555556,2,object_08,5,104,0,1,5,forest_2,2,memory-2step-stake-s,499,1336909,0.0-19.0-0.0-0.10,A1VAL7L9L79IN0,3SA4EMRVKYI00KKCICLEW0FTGRS0PA,3H7Z272LXBNGJZ7SX7CZJ434D11PL3,3,4
11,2,object_01,object_03,657.0,3,2,417.0,0.5555555555555556,1,object_06,5,129,0,5,5,forest_5,2,memory-2step-stake-s,500,1345121,0.0-19.0-0.0-0.11,A1VAL7L9L79IN0,3SA4EMRVKYI00KKCICLEW0FTGRS0PA,3H7Z272LXBNGJZ7SX7CZJ434D11PL3,4,3
12,1,object_02,object_10,723.0,2,2,814.0,0.5555555555555556,2,object_08,5,154,0,3,5,desert_6,2,memory-2step-stake-s,501,1353782,0.0-19.0-0.0-0.12,A1VAL7L9L79IN0,3SA4EMRVKYI00KKCICLEW0FTGRS0PA,3H7Z272LXBNGJZ7SX7CZJ434D11PL3,1,2
13,4,object_07,object_09,721.0,8,2,891.0,0.2222222222222222,2,object_08,5,164,0,5,2,restaurant_4,2,memory-2step-stake-s,502,1362227,0.0-19.0-0.0-0.13,A1VAL7L9L79IN0,3SA4EMRVKYI00KKCICLEW0FTGRS0PA,3H7Z272LXBNGJZ7SX7CZJ434D11PL3,7,8
14,2,object_01,object_03,755.0,3,2,767.0,0.5555555555555556,1,object_06,5,189,0,5,5,forest_1,2,memory-2step-stake-s,503,1370832,0.0-19.0-0.0-0.14,A1VAL7L9L79IN0,3SA4EMRVKYI00KKCICLEW0FTGRS0PA,3H7Z272LXBNGJZ7SX7CZJ434D11PL3,4,3
15,2,object_03,object_01,835.0,3,1,556.0,0.6666666666666666,1,object_06,5,219,0,6,7,forest_3,2,memory-2step-stake-s,504,1379307,0.0-19.0-0.0-0.15,A1VAL7L9L79IN0,3SA4EMRVKYI00KKCICLEW0FTGRS0PA,3H7Z272LXBNGJZ7SX7CZJ434D11PL3,3,4
16,4,object_09,object_07,716.0,7,2,430.0,0.7777777777777778,1,object_06,1,226,0,7,7,restaurant_3,2,memory-2step-stake-s,505,1387832,0.0-19.0-0.0-0.16,A1VAL7L9L79IN0,3SA4EMRVKYI00KKCICLEW0FTGRS0PA,3H7Z272LXBNGJZ7SX7CZJ434D11PL3,8,7
17,4,object_09,object_07,919.0,7,2,628.0,0.8888888888888888,1,object_06,1,234,0,8,6,restaurant_8,2,memory-2step-stake-s,506,1396623,0.0-19.0-0.0-0.17,A1VAL7L9L79IN0,3SA4EMRVKYI00KKCICLEW0FTGRS0PA,3H7Z272LXBNGJZ7SX7CZJ434D11PL3,8,7
18,4,object_07,object_09,1171.0,8,2,501.0,0.8888888888888888,2,object_08,1,242,0,9,8,restaurant_4,2,memory-2step-stake-s,507,1405265,0.0-19.0-0.0-0.18,A1VAL7L9L79IN0,3SA4EMRVKYI00KKCICLEW0FTGRS0PA,3H7Z272LXBNGJZ7SX7CZJ434D11PL3,7,8
19,3,object_05,object_04,990.0,6,1,514.0,0.5555555555555556,2,object_08,1,247,0,6,5,library_6,2,memory-2step-stake-s,508,1413570,0.0-19.0-0.0-0.19,A1VAL7L9L79IN0,3SA4EMRVKYI00KKCICLEW0FTGRS0PA,3H7Z272LXBNGJZ7SX7CZJ434D11PL3,6,5
20,3,object_04,object_05,1041.0,6,2,357.0,0.8888888888888888,2,object_08,1,255,0,6,8,library_6,2,memory-2step-stake-s,509,1422053,0.0-19.0-0.0-0.20,A1VAL7L9L79IN0,3SA4EMRVKYI00KKCICLEW0FTGRS0PA,3H7Z272LXBNGJZ7SX7CZJ434D11PL3,5,6
21,3,object_05,object_04,782.0,5,2,458.0,0.5555555555555556,1,object_06,5,280,0,5,5,library_6,2,memory-2step-stake-s,510,1430296,0.0-19.0-0.0-0.21,A1VAL7L9L79IN0,3SA4EMRVKYI00KKCICLEW0FTGRS0PA,3H7Z272LXBNGJZ7SX7CZJ434D11PL3,6,5
22,2,object_01,object_03,830.0,3,2,593.0,1.0,1,object_06,5,325,0,9,1,forest_5,2,memory-2step-stake-s,511,1439121,0.0-19.0-0.0-0.22,A1VAL7L9L79IN0,3SA4EMRVKYI00KKCICLEW0FTGRS0PA,3H7Z272LXBNGJZ7SX7CZJ434D11PL3,4,3
23,3,object_05,object_04,614.0,5,2,429.0,0.7777777777777778,1,object_06,5,360,0,7,1,library_3,2,memory-2step-stake-s,512,1447579,0.0-19.0-0.0-0.23,A1VAL7L9L79IN0,3SA4EMRVKYI00KKCICLEW0FTGRS0PA,3H7Z272LXBNGJZ7SX7CZJ434D11PL3,6,5
24,4,object_09,object_07,778.0,8,1,449.0,0.2222222222222222,2,object_08,1,362,0,6,2,restaurant_3,2,memory-2step-stake-s,513,1455526,0.0-19.0-0.0-0.24,A1VAL7L9L79IN0,3SA4EMRVKYI00KKCICLEW0FTGRS0PA,3H7Z272LXBNGJZ7SX7CZJ434D11PL3,8,7
25,3,object_05,object_04,1040.0,6,1,403.0,0.6666666666666666,2,object_08,1,368,0,6,6,library_8,2,memory-2step-stake-s,514,1463887,0.0-19.0-0.0-0.25,A1VAL7L9L79IN0,3SA4EMRVKYI00KKCICLEW0FTGRS0PA,3H7Z272LXBNGJZ7SX7CZJ434D11PL3,6,5
26,3,object_04,object_05,899.0,5,1,534.0,0.4444444444444444,1,object_06,1,372,0,4,6,library_3,2,memory-2step-stake-s,515,1472129,0.0-19.0-0.0-0.26,A1VAL7L9L79IN0,3SA4EMRVKYI00KKCICLEW0FTGRS0PA,3H7Z272LXBNGJZ7SX7CZJ434D11PL3,5,6
27,3,object_05,object_04,873.0,6,1,642.0,0.5555555555555556,2,object_08,1,377,0,5,5,library_1,2,memory-2step-stake-s,516,1480593,0.0-19.0-0.0-0.27,A1VAL7L9L79IN0,3SA4EMRVKYI00KKCICLEW0FTGRS0PA,3H7Z272LXBNGJZ7SX7CZJ434D11PL3,6,5
28,2,object_03,object_01,692.0,3,1,700.0,0.6666666666666666,1,object_06,5,407,0,6,1,forest_2,2,memory-2step-stake-s,517,1489199,0.0-19.0-0.0-0.28,A1VAL7L9L79IN0,3SA4EMRVKYI00KKCICLEW0FTGRS0PA,3H7Z272LXBNGJZ7SX7CZJ434D11PL3,3,4
29,3,object_04,object_05,826.0,6,2,444.0,0.3333333333333333,2,object_08,1,410,0,8,3,library_3,2,memory-2step-stake-s,518,1497239,0.0-19.0-0.0-0.29,A1VAL7L9L79IN0,3SA4EMRVKYI00KKCICLEW0FTGRS0PA,3H7Z272LXBNGJZ7SX7CZJ434D11PL3,5,6
30,3,object_05,object_04,843.0,5,2,571.0,1.0,1,object_06,1,419,0,9,7,library_8,2,memory-2step-stake-s,519,1506074,0.0-19.0-0.0-0.30,A1VAL7L9L79IN0,3SA4EMRVKYI00KKCICLEW0FTGRS0PA,3H7Z272LXBNGJZ7SX7CZJ434D11PL3,6,5
31,4,object_09,object_07,872.0,8,1,457.0,0.5555555555555556,2,object_08,1,424,0,8,5,restaurant_8,2,memory-2step-stake-s,520,1514327,0.0-19.0-0.0-0.31,A1VAL7L9L79IN0,3SA4EMRVKYI00KKCICLEW0FTGRS0PA,3H7Z272LXBNGJZ7SX7CZJ434D11PL3,8,7
32,2,object_01,object_03,644.0,3,2,516.0,0.8888888888888888,1,object_06,5,464,0,8,4,forest_1,2,memory-2step-stake-s,521,1523042,0.0-19.0-0.0-0.32,A1VAL7L9L79IN0,3SA4EMRVKYI00KKCICLEW0FTGRS0PA,3H7Z272LXBNGJZ7SX7CZJ434D11PL3,4,3
33,3,object_04,object_05,655.0,6,2,459.0,0.4444444444444444,2,object_08,1,468,0,7,4,library_3,2,memory-2step-stake-s,522,1531249,0.0-19.0-0.0-0.33,A1VAL7L9L79IN0,3SA4EMRVKYI00KKCICLEW0FTGRS0PA,3H7Z272LXBNGJZ7SX7CZJ434D11PL3,5,6
34,4,object_09,object_07,712.0,8,1,454.0,0.4444444444444444,2,object_08,5,488,0,6,4,restaurant_3,2,memory-2step-stake-s,523,1539409,0.0-19.0-0.0-0.34,A1VAL7L9L79IN0,3SA4EMRVKYI00KKCICLEW0FTGRS0PA,3H7Z272LXBNGJZ7SX7CZJ434D11PL3,8,7
35,2,object_03,object_01,888.0,3,1,383.0,0.7777777777777778,1,object_06,5,523,0,7,4,forest_5,2,memory-2step-stake-s,524,1547820,0.0-19.0-0.0-0.35,A1VAL7L9L79IN0,3SA4EMRVKYI00KKCICLEW0FTGRS0PA,3H7Z272LXBNGJZ7SX7CZJ434D11PL3,3,4
36,2,object_01,object_03,637.0,3,2,577.0,0.6666666666666666,1,object_06,5,553,0,6,1,forest_1,2,memory-2step-stake-s,525,1556318,0.0-19.0-0.0-0.36,A1VAL7L9L79IN0,3SA4EMRVKYI00KKCICLEW0FTGRS0PA,3H7Z272LXBNGJZ7SX7CZJ434D11PL3,4,3
37,3,object_04,object_05,745.0,5,1,-1.0,0.0,1,object_06,1,553,0,8,3,library_6,2,memory-2step-stake-s,526,1564905,0.0-19.0-0.0-0.37,A1VAL7L9L79IN0,3SA4EMRVKYI00KKCICLEW0FTGRS0PA,3H7Z272LXBNGJZ7SX7CZJ434D11PL3,5,6
38,1,object_10,object_02,987.0,2,1,555.0,0.2222222222222222,2,object_08,1,555,0,8,2,desert_6,2,memory-2step-stake-s,527,1572931,0.0-19.0-0.0-0.38,A1VAL7L9L79IN0,3SA4EMRVKYI00KKCICLEW0FTGRS0PA,3H7Z272LXBNGJZ7SX7CZJ434D11PL3,2,1
39,2,object_03,object_01,720.0,3,1,469.0,0.8888888888888888,1,object_06,1,563,0,8,2,forest_2,2,memory-2step-stake-s,528,1581547,0.0-19.0-0.0-0.39,A1VAL7L9L79IN0,3SA4EMRVKYI00KKCICLEW0FTGRS0PA,3H7Z272LXBNGJZ7SX7CZJ434D11PL3,3,4
40,3,object_05,object_04,680.0,5,2,374.0,0.8888888888888888,1,object_06,1,571,0,8,2,library_1,2,memory-2step-stake-s,529,1590069,0.0-19.0-0.0-0.40,A1VAL7L9L79IN0,3SA4EMRVKYI00KKCICLEW0FTGRS0PA,3H7Z272LXBNGJZ7SX7CZJ434D11PL3,6,5
41,2,object_01,object_03,768.0,3,2,242.0,0.8888888888888888,1,object_06,1,579,0,8,7,forest_2,2,memory-2step-stake-s,530,1598546,0.0-19.0-0.0-0.41,A1VAL7L9L79IN0,3SA4EMRVKYI00KKCICLEW0FTGRS0PA,3H7Z272LXBNGJZ7SX7CZJ434D11PL3,4,3
42,4,object_07,object_09,770.0,8,2,449.0,0.6666666666666666,2,object_08,1,585,0,9,6,restaurant_4,2,memory-2step-stake-s,531,1606969,0.0-19.0-0.0-0.42,A1VAL7L9L79IN0,3SA4EMRVKYI00KKCICLEW0FTGRS0PA,3H7Z272LXBNGJZ7SX7CZJ434D11PL3,7,8
43,4,object_09,object_07,885.0,7,2,590.0,0.4444444444444444,1,object_06,1,589,0,4,6,restaurant_3,2,memory-2step-stake-s,532,1615264,0.0-19.0-0.0-0.43,A1VAL7L9L79IN0,3SA4EMRVKYI00KKCICLEW0FTGRS0PA,3H7Z272LXBNGJZ7SX7CZJ434D11PL3,8,7
44,2,object_01,object_03,589.0,3,2,448.0,0.3333333333333333,1,object_06,5,604,0,3,6,forest_1,2,memory-2step-stake-s,533,1623350,0.0-19.0-0.0-0.44,A1VAL7L9L79IN0,3SA4EMRVKYI00KKCICLEW0FTGRS0PA,3H7Z272LXBNGJZ7SX7CZJ434D11PL3,4,3
45,4,object_07,object_09,798.0,7,1,601.0,0.6666666666666666,1,object_06,1,610,0,6,6,restaurant_8,2,memory-2step-stake-s,534,1631860,0.0-19.0-0.0-0.45,A1VAL7L9L79IN0,3SA4EMRVKYI00KKCICLEW0FTGRS0PA,3H7Z272LXBNGJZ7SX7CZJ434D11PL3,7,8
46,2,object_03,object_01,661.0,3,1,509.0,0.6666666666666666,1,object_06,1,616,0,6,3,forest_5,2,memory-2step-stake-s,535,1640307,0.0-19.0-0.0-0.46,A1VAL7L9L79IN0,3SA4EMRVKYI00KKCICLEW0FTGRS0PA,3H7Z272LXBNGJZ7SX7CZJ434D11PL3,3,4
47,1,object_10,object_02,929.0,2,1,567.0,0.0,2,object_08,5,616,0,8,0,desert_5,2,memory-2step-stake-s,536,1648162,0.0-19.0-0.0-0.47,A1VAL7L9L79IN0,3SA4EMRVKYI00KKCICLEW0FTGRS0PA,3H7Z272LXBNGJZ7SX7CZJ434D11PL3,2,1
48,4,object_09,object_07,750.0,8,1,440.0,0.1111111111111111,2,object_08,1,617,0,6,1,restaurant_8,2,memory-2step-stake-s,537,1655976,0.0-19.0-0.0-0.48,A1VAL7L9L79IN0,3SA4EMRVKYI00KKCICLEW0FTGRS0PA,3H7Z272LXBNGJZ7SX7CZJ434D11PL3,8,7
49,2,object_03,object_01,1290.0,4,2,616.0,0.3333333333333333,2,object_08,5,632,0,5,3,forest_1,2,memory-2step-stake-s,538,1664203,0.0-19.0-0.0-0.49,A1VAL7L9L79IN0,3SA4EMRVKYI00KKCICLEW0FTGRS0PA,3H7Z272LXBNGJZ7SX7CZJ434D11PL3,3,4
50,2,object_01,object_03,778.0,3,2,335.0,0.7777777777777778,1,object_06,5,667,0,7,8,forest_1,2,memory-2step-stake-s,539,1672605,0.0-19.0-0.0-0.50,A1VAL7L9L79IN0,3SA4EMRVKYI00KKCICLEW0FTGRS0PA,3H7Z272LXBNGJZ7SX7CZJ434D11PL3,4,3
51,4,object_09,object_07,1068.0,8,1,486.0,0.8888888888888888,2,object_08,1,675,0,8,8,restaurant_1,2,memory-2step-stake-s,540,1681251,0.0-19.0-0.0-0.51,A1VAL7L9L79IN0,3SA4EMRVKYI00KKCICLEW0FTGRS0PA,3H7Z272LXBNGJZ7SX7CZJ434D11PL3,8,7
52,1,object_02,object_10,723.0,2,2,718.0,0.8888888888888888,2,object_08,5,715,0,5,8,desert_7,2,memory-2step-stake-s,541,1690127,0.0-19.0-0.0-0.52,A1VAL7L9L79IN0,3SA4EMRVKYI00KKCICLEW0FTGRS0PA,3H7Z272LXBNGJZ7SX7CZJ434D11PL3,1,2
53,3,object_04,object_05,728.0,5,1,517.0,0.1111111111111111,1,object_06,5,720,0,1,8,library_3,2,memory-2step-stake-s,542,1698034,0.0-19.0-0.0-0.53,A1VAL7L9L79IN0,3SA4EMRVKYI00KKCICLEW0FTGRS0PA,3H7Z272LXBNGJZ7SX7CZJ434D11PL3,5,6
54,4,object_07,object_09,674.0,8,2,512.0,0.6666666666666666,2,object_08,1,726,0,2,6,restaurant_8,2,memory-2step-stake-s,543,1706801,0.0-19.0-0.0-0.54,A1VAL7L9L79IN0,3SA4EMRVKYI00KKCICLEW0FTGRS0PA,3H7Z272LXBNGJZ7SX7CZJ434D11PL3,7,8
55,4,object_07,object_09,723.0,8,2,436.0,0.7777777777777778,2,object_08,1,733,0,6,7,restaurant_1,2,memory-2step-stake-s,544,1715302,0.0-19.0-0.0-0.55,A1VAL7L9L79IN0,3SA4EMRVKYI00KKCICLEW0FTGRS0PA,3H7Z272LXBNGJZ7SX7CZJ434D11PL3,7,8
56,2,object_03,object_01,649.0,3,1,366.0,0.6666666666666666,1,object_06,5,763,0,6,9,forest_2,2,memory-2step-stake-s,545,1723593,0.0-19.0-0.0-0.56,A1VAL7L9L79IN0,3SA4EMRVKYI00KKCICLEW0FTGRS0PA,3H7Z272LXBNGJZ7SX7CZJ434D11PL3,3,4
57,1,object_10,object_02,855.0,2,1,795.0,0.6666666666666666,2,object_08,1,769,0,3,6,desert_7,2,memory-2step-stake-s,546,1732307,0.0-19.0-0.0-0.57,A1VAL7L9L79IN0,3SA4EMRVKYI00KKCICLEW0FTGRS0PA,3H7Z272LXBNGJZ7SX7CZJ434D11PL3,2,1
58,4,object_09,object_07,827.0,7,2,428.0,0.5555555555555556,1,object_06,1,774,0,5,9,restaurant_1,2,memory-2step-stake-s,547,1740566,0.0-19.0-0.0-0.58,A1VAL7L9L79IN0,3SA4EMRVKYI00KKCICLEW0FTGRS0PA,3H7Z272LXBNGJZ7SX7CZJ434D11PL3,8,7
59,3,object_04,object_05,1011.0,6,2,377.0,0.5555555555555556,2,object_08,1,779,0,3,5,library_8,2,memory-2step-stake-s,548,1748774,0.0-19.0-0.0-0.59,A1VAL7L9L79IN0,3SA4EMRVKYI00KKCICLEW0FTGRS0PA,3H7Z272LXBNGJZ7SX7CZJ434D11PL3,5,6
60,3,object_05,object_04,773.0,5,2,505.0,0.1111111111111111,1,object_06,5,784,0,1,3,library_6,2,memory-2step-stake-s,549,1756652,0.0-19.0-0.0-0.60,A1VAL7L9L79IN0,3SA4EMRVKYI00KKCICLEW0FTGRS0PA,3H7Z272LXBNGJZ7SX7CZJ434D11PL3,6,5
61,2,object_01,object_03,608.0,3,2,1542.0,0.1111111111111111,1,object_06,5,789,0,1,4,forest_3,2,memory-2step-stake-s,550,1765576,0.0-19.0-0.0-0.61,A1VAL7L9L79IN0,3SA4EMRVKYI00KKCICLEW0FTGRS0PA,3H7Z272LXBNGJZ7SX7CZJ434D11PL3,4,3
62,1,object_02,object_10,-1.0,-1,-1,-1.0,0.0,-,0,5,789,0,2,4,desert_5,2,memory-2step-stake-s,551,1772147,0.0-19.0-0.0-0.62,A1VAL7L9L79IN0,3SA4EMRVKYI00KKCICLEW0FTGRS0PA,3H7Z272LXBNGJZ7SX7CZJ434D11PL3,1,2
63,3,object_04,object_05,959.0,6,2,565.0,0.2222222222222222,2,object_08,1,791,0,1,2,library_3,2,memory-2step-stake-s,552,1780190,0.0-19.0-0.0-0.63,A1VAL7L9L79IN0,3SA4EMRVKYI00KKCICLEW0FTGRS0PA,3H7Z272LXBNGJZ7SX7CZJ434D11PL3,5,6
64,3,object_05,object_04,640.0,6,1,659.0,0.1111111111111111,2,object_08,1,792,0,3,1,library_1,2,memory-2step-stake-s,553,1788245,0.0-19.0-0.0-0.64,A1VAL7L9L79IN0,3SA4EMRVKYI00KKCICLEW0FTGRS0PA,3H7Z272LXBNGJZ7SX7CZJ434D11PL3,6,5
65,4,object_09,object_07,798.0,7,2,334.0,0.2222222222222222,1,object_06,1,794,0,2,3,restaurant_3,2,memory-2step-stake-s,554,1796046,0.0-19.0-0.0-0.65,A1VAL7L9L79IN0,3SA4EMRVKYI00KKCICLEW0FTGRS0PA,3H7Z272LXBNGJZ7SX7CZJ434D11PL3,8,7
66,2,object_01,object_03,789.0,3,2,317.0,0.4444444444444444,1,object_06,5,814,0,4,1,forest_5,2,memory-2step-stake-s,555,1804076,0.0-19.0-0.0-0.66,A1VAL7L9L79IN0,3SA4EMRVKYI00KKCICLEW0FTGRS0PA,3H7Z272LXBNGJZ7SX7CZJ434D11PL3,4,3
67,1,object_02,object_10,892.0,2,2,484.0,0.1111111111111111,2,object_08,5,819,0,1,1,desert_6,2,memory-2step-stake-s,556,1811940,0.0-19.0-0.0-0.67,A1VAL7L9L79IN0,3SA4EMRVKYI00KKCICLEW0FTGRS0PA,3H7Z272LXBNGJZ7SX7CZJ434D11PL3,1,2
68,3,object_04,object_05,802.0,5,1,391.0,0.1111111111111111,1,object_06,5,824,0,1,2,library_1,2,memory-2step-stake-s,557,1819701,0.0-19.0-0.0-0.68,A1VAL7L9L79IN0,3SA4EMRVKYI00KKCICLEW0FTGRS0PA,3H7Z272LXBNGJZ7SX7CZJ434D11PL3,5,6
69,1,object_02,object_10,885.0,1,1,447.0,0.2222222222222222,1,object_06,5,834,0,2,1,desert_8,2,memory-2step-stake-s,558,1827653,0.0-19.0-0.0-0.69,A1VAL7L9L79IN0,3SA4EMRVKYI00KKCICLEW0FTGRS0PA,3H7Z272LXBNGJZ7SX7CZJ434D11PL3,1,2
70,3,object_04,object_05,662.0,6,2,409.0,0.6666666666666666,2,object_08,1,840,0,4,6,library_1,2,memory-2step-stake-s,559,1836002,0.0-19.0-0.0-0.70,A1VAL7L9L79IN0,3SA4EMRVKYI00KKCICLEW0FTGRS0PA,3H7Z272LXBNGJZ7SX7CZJ434D11PL3,5,6
71,1,object_02,object_10,964.0,2,2,410.0,0.7777777777777778,2,object_08,5,875,0,0,7,desert_8,2,memory-2step-stake-s,560,1844441,0.0-19.0-0.0-0.71,A1VAL7L9L79IN0,3SA4EMRVKYI00KKCICLEW0FTGRS0PA,3H7Z272LXBNGJZ7SX7CZJ434D11PL3,1,2
72,2,object_01,object_03,1197.0,4,1,416.0,0.6666666666666666,2,object_08,5,905,0,1,6,forest_1,2,memory-2step-stake-s,561,1852793,0.0-19.0-0.0-0.72,A1VAL7L9L79IN0,3SA4EMRVKYI00KKCICLEW0FTGRS0PA,3H7Z272LXBNGJZ7SX7CZJ434D11PL3,4,3
73,2,object_03,object_01,689.0,4,2,315.0,0.8888888888888888,2,object_08,5,945,0,0,8,forest_3,2,memory-2step-stake-s,562,1861259,0.0-19.0-0.0-0.73,A1VAL7L9L79IN0,3SA4EMRVKYI00KKCICLEW0FTGRS0PA,3H7Z272LXBNGJZ7SX7CZJ434D11PL3,3,4
74,1,object_10,object_02,936.0,2,1,301.0,0.8888888888888888,2,object_08,5,985,0,1,8,desert_6,2,memory-2step-stake-s,563,1869677,0.0-19.0-0.0-0.74,A1VAL7L9L79IN0,3SA4EMRVKYI00KKCICLEW0FTGRS0PA,3H7Z272LXBNGJZ7SX7CZJ434D11PL3,2,1
75,3,object_05,object_04,832.0,5,2,286.0,0.3333333333333333,1,object_06,1,988,0,3,8,library_3,2,memory-2step-stake-s,564,1877579,0.0-19.0-0.0-0.75,A1VAL7L9L79IN0,3SA4EMRVKYI00KKCICLEW0FTGRS0PA,3H7Z272LXBNGJZ7SX7CZJ434D11PL3,6,5
76,2,object_01,object_03,800.0,4,1,831.0,0.7777777777777778,2,object_08,5,1023,0,3,7,forest_3,2,memory-2step-stake-s,565,1886478,0.0-19.0-0.0-0.76,A1VAL7L9L79IN0,3SA4EMRVKYI00KKCICLEW0FTGRS0PA,3H7Z272LXBNGJZ7SX7CZJ434D11PL3,4,3
77,1,object_02,object_10,1005.0,1,1,449.0,0.3333333333333333,1,object_06,5,1038,0,3,6,desert_6,2,memory-2step-stake-s,566,1894554,0.0-19.0-0.0-0.77,A1VAL7L9L79IN0,3SA4EMRVKYI00KKCICLEW0FTGRS0PA,3H7Z272LXBNGJZ7SX7CZJ434D11PL3,1,2
78,1,object_02,object_10,980.0,2,2,435.0,0.5555555555555556,2,object_08,5,1063,0,3,5,desert_6,2,memory-2step-stake-s,567,1902793,0.0-19.0-0.0-0.78,A1VAL7L9L79IN0,3SA4EMRVKYI00KKCICLEW0FTGRS0PA,3H7Z272LXBNGJZ7SX7CZJ434D11PL3,1,2
79,4,object_07,object_09,889.0,8,2,633.0,0.4444444444444444,2,object_08,1,1067,0,3,4,restaurant_8,2,memory-2step-stake-s,568,1911113,0.0-19.0-0.0-0.79,A1VAL7L9L79IN0,3SA4EMRVKYI00KKCICLEW0FTGRS0PA,3H7Z272LXBNGJZ7SX7CZJ434D11PL3,7,8
80,2,object_01,object_03,684.0,3,2,461.0,0.4444444444444444,1,object_06,5,1087,0,4,3,forest_3,2,memory-2step-stake-s,569,1919268,0.0-19.0-0.0-0.80,A1VAL7L9L79IN0,3SA4EMRVKYI00KKCICLEW0FTGRS0PA,3H7Z272LXBNGJZ7SX7CZJ434D11PL3,4,3
81,3,object_04,object_05,675.0,5,1,558.0,0.2222222222222222,1,object_06,1,1089,0,2,3,library_6,2,memory-2step-stake-s,570,1927314,0.0-19.0-0.0-0.81,A1VAL7L9L79IN0,3SA4EMRVKYI00KKCICLEW0FTGRS0PA,3H7Z272LXBNGJZ7SX7CZJ434D11PL3,5,6
82,2,object_01,object_03,659.0,4,1,352.0,0.2222222222222222,2,object_08,5,1099,0,1,2,forest_3,2,memory-2step-stake-s,571,1935139,0.0-19.0-0.0-0.82,A1VAL7L9L79IN0,3SA4EMRVKYI00KKCICLEW0FTGRS0PA,3H7Z272LXBNGJZ7SX7CZJ434D11PL3,4,3
83,1,object_10,object_02,836.0,1,2,558.0,0.1111111111111111,1,object_06,5,1104,0,1,2,desert_7,2,memory-2step-stake-s,572,1943065,0.0-19.0-0.0-0.83,A1VAL7L9L79IN0,3SA4EMRVKYI00KKCICLEW0FTGRS0PA,3H7Z272LXBNGJZ7SX7CZJ434D11PL3,2,1
84,2,object_03,object_01,743.0,3,1,327.0,0.3333333333333333,1,object_06,1,1107,0,3,4,forest_5,2,memory-2step-stake-s,573,1950992,0.0-19.0-0.0-0.84,A1VAL7L9L79IN0,3SA4EMRVKYI00KKCICLEW0FTGRS0PA,3H7Z272LXBNGJZ7SX7CZJ434D11PL3,3,4
85,2,object_01,object_03,897.0,4,1,307.0,0.5555555555555556,2,object_08,5,1132,0,6,5,forest_1,2,memory-2step-stake-s,574,1959105,0.0-19.0-0.0-0.85,A1VAL7L9L79IN0,3SA4EMRVKYI00KKCICLEW0FTGRS0PA,3H7Z272LXBNGJZ7SX7CZJ434D11PL3,4,3
86,2,object_01,object_03,726.0,4,1,689.0,0.5555555555555556,2,object_08,5,1157,0,7,5,forest_2,2,memory-2step-stake-s,575,1967596,0.0-19.0-0.0-0.86,A1VAL7L9L79IN0,3SA4EMRVKYI00KKCICLEW0FTGRS0PA,3H7Z272LXBNGJZ7SX7CZJ434D11PL3,4,3
87,2,object_01,object_03,769.0,4,1,-1.0,0.0,2,object_08,5,1157,0,7,6,forest_3,2,memory-2step-stake-s,576,1976180,0.0-19.0-0.0-0.87,A1VAL7L9L79IN0,3SA4EMRVKYI00KKCICLEW0FTGRS0PA,3H7Z272LXBNGJZ7SX7CZJ434D11PL3,4,3
88,3,object_04,object_05,626.0,6,2,329.0,1.0,2,object_08,1,1166,0,4,9,library_6,2,memory-2step-stake-s,577,1984768,0.0-19.0-0.0-0.88,A1VAL7L9L79IN0,3SA4EMRVKYI00KKCICLEW0FTGRS0PA,3H7Z272LXBNGJZ7SX7CZJ434D11PL3,5,6
89,1,object_10,object_02,860.0,1,2,557.0,0.6666666666666666,1,object_06,5,1196,0,6,9,desert_6,2,memory-2step-stake-s,578,1993236,0.0-19.0-0.0-0.89,A1VAL7L9L79IN0,3SA4EMRVKYI00KKCICLEW0FTGRS0PA,3H7Z272LXBNGJZ7SX7CZJ434D11PL3,2,1
90,1,object_10,object_02,821.0,1,2,725.0,0.6666666666666666,1,object_06,5,1226,0,6,4,desert_5,2,memory-2step-stake-s,579,2001869,0.0-19.0-0.0-0.90,A1VAL7L9L79IN0,3SA4EMRVKYI00KKCICLEW0FTGRS0PA,3H7Z272LXBNGJZ7SX7CZJ434D11PL3,2,1
91,2,object_03,object_01,1020.0,4,2,480.0,0.2222222222222222,2,object_08,5,1236,0,7,2,forest_2,2,memory-2step-stake-s,580,2009813,0.0-19.0-0.0-0.91,A1VAL7L9L79IN0,3SA4EMRVKYI00KKCICLEW0FTGRS0PA,3H7Z272LXBNGJZ7SX7CZJ434D11PL3,3,4
92,3,object_05,object_04,1001.0,5,2,352.0,0.6666666666666666,1,object_06,1,1242,0,6,3,library_6,2,memory-2step-stake-s,581,2018084,0.0-19.0-0.0-0.92,A1VAL7L9L79IN0,3SA4EMRVKYI00KKCICLEW0FTGRS0PA,3H7Z272LXBNGJZ7SX7CZJ434D11PL3,6,5
93,1,object_02,object_10,1150.0,1,1,426.0,1.0,1,object_06,5,1287,0,9,2,desert_6,2,memory-2step-stake-s,582,2027277,0.0-19.0-0.0-0.93,A1VAL7L9L79IN0,3SA4EMRVKYI00KKCICLEW0FTGRS0PA,3H7Z272LXBNGJZ7SX7CZJ434D11PL3,1,2
94,3,object_04,object_05,742.0,5,1,385.0,0.6666666666666666,1,object_06,1,1293,0,6,2,library_8,2,memory-2step-stake-s,583,2035602,0.0-19.0-0.0-0.94,A1VAL7L9L79IN0,3SA4EMRVKYI00KKCICLEW0FTGRS0PA,3H7Z272LXBNGJZ7SX7CZJ434D11PL3,5,6
95,1,object_10,object_02,649.0,2,1,257.0,0.5555555555555556,2,object_08,5,1318,0,6,5,desert_5,2,memory-2step-stake-s,584,2043653,0.0-19.0-0.0-0.95,A1VAL7L9L79IN0,3SA4EMRVKYI00KKCICLEW0FTGRS0PA,3H7Z272LXBNGJZ7SX7CZJ434D11PL3,2,1
96,4,object_09,object_07,593.0,7,2,497.0,0.7777777777777778,1,object_06,1,1325,0,7,8,restaurant_3,2,memory-2step-stake-s,585,2052321,0.0-19.0-0.0-0.96,A1VAL7L9L79IN0,3SA4EMRVKYI00KKCICLEW0FTGRS0PA,3H7Z272LXBNGJZ7SX7CZJ434D11PL3,8,7
97,4,object_07,object_09,810.0,7,1,416.0,0.6666666666666666,1,object_06,1,1331,0,6,8,restaurant_8,2,memory-2step-stake-s,586,2060636,0.0-19.0-0.0-0.97,A1VAL7L9L79IN0,3SA4EMRVKYI00KKCICLEW0FTGRS0PA,3H7Z272LXBNGJZ7SX7CZJ434D11PL3,7,8
98,2,object_01,object_03,841.0,4,1,333.0,0.8888888888888888,2,object_08,5,1371,0,9,8,forest_2,2,memory-2step-stake-s,587,2069116,0.0-19.0-0.0-0.98,A1VAL7L9L79IN0,3SA4EMRVKYI00KKCICLEW0FTGRS0PA,3H7Z272LXBNGJZ7SX7CZJ434D11PL3,4,3
99,2,object_03,object_01,1002.0,4,2,395.0,0.6666666666666666,2,object_08,5,1401,0,9,6,forest_3,2,memory-2step-stake-s,588,2077410,0.0-19.0-0.0-0.99,A1VAL7L9L79IN0,3SA4EMRVKYI00KKCICLEW0FTGRS0PA,3H7Z272LXBNGJZ7SX7CZJ434D11PL3,3,4
100,1,object_02,object_10,796.0,1,1,607.0,0.5555555555555556,1,object_06,5,1426,0,5,9,desert_8,2,memory-2step-stake-s,589,2085823,0.0-19.0-0.0-0.100,A1VAL7L9L79IN0,3SA4EMRVKYI00KKCICLEW0FTGRS0PA,3H7Z272LXBNGJZ7SX7CZJ434D11PL3,1,2
101,4,object_09,object_07,685.0,7,2,927.0,0.4444444444444444,1,object_06,1,1430,0,4,6,restaurant_3,2,memory-2step-stake-s,590,2094453,0.0-19.0-0.0-0.101,A1VAL7L9L79IN0,3SA4EMRVKYI00KKCICLEW0FTGRS0PA,3H7Z272LXBNGJZ7SX7CZJ434D11PL3,8,7
102,4,object_07,object_09,552.0,7,1,455.0,0.5555555555555556,1,object_06,1,1435,0,5,7,restaurant_3,2,memory-2step-stake-s,591,2102720,0.0-19.0-0.0-0.102,A1VAL7L9L79IN0,3SA4EMRVKYI00KKCICLEW0FTGRS0PA,3H7Z272LXBNGJZ7SX7CZJ434D11PL3,7,8
103,4,object_09,object_07,629.0,7,2,333.0,0.6666666666666666,1,object_06,5,1465,0,6,8,restaurant_3,2,memory-2step-stake-s,592,2110968,0.0-19.0-0.0-0.103,A1VAL7L9L79IN0,3SA4EMRVKYI00KKCICLEW0FTGRS0PA,3H7Z272LXBNGJZ7SX7CZJ434D11PL3,8,7
104,2,object_03,object_01,908.0,3,1,323.0,0.5555555555555556,1,object_06,1,1470,0,5,6,forest_1,2,memory-2step-stake-s,593,2119100,0.0-19.0-0.0-0.104,A1VAL7L9L79IN0,3SA4EMRVKYI00KKCICLEW0FTGRS0PA,3H7Z272LXBNGJZ7SX7CZJ434D11PL3,3,4
105,2,object_03,object_01,753.0,4,2,322.0,0.4444444444444444,2,object_08,5,1490,0,4,4,forest_2,2,memory-2step-stake-s,594,2127149,0.0-19.0-0.0-0.105,A1VAL7L9L79IN0,3SA4EMRVKYI00KKCICLEW0FTGRS0PA,3H7Z272LXBNGJZ7SX7CZJ434D11PL3,3,4
106,3,object_05,object_04,882.0,6,1,466.0,1.0,2,object_08,1,1499,0,6,9,library_3,2,memory-2step-stake-s,595,2135866,0.0-19.0-0.0-0.106,A1VAL7L9L79IN0,3SA4EMRVKYI00KKCICLEW0FTGRS0PA,3H7Z272LXBNGJZ7SX7CZJ434D11PL3,6,5
107,1,object_10,object_02,977.0,1,2,354.0,0.8888888888888888,1,object_06,5,1539,0,8,5,desert_5,2,memory-2step-stake-s,596,2144347,0.0-19.0-0.0-0.107,A1VAL7L9L79IN0,3SA4EMRVKYI00KKCICLEW0FTGRS0PA,3H7Z272LXBNGJZ7SX7CZJ434D11PL3,2,1
108,4,object_07,object_09,856.0,7,1,668.0,0.7777777777777778,1,object_06,1,1546,0,7,4,restaurant_3,2,memory-2step-stake-s,597,2153025,0.0-19.0-0.0-0.108,A1VAL7L9L79IN0,3SA4EMRVKYI00KKCICLEW0FTGRS0PA,3H7Z272LXBNGJZ7SX7CZJ434D11PL3,7,8
109,1,object_02,object_10,706.0,1,1,345.0,0.6666666666666666,1,object_06,5,1576,0,6,4,desert_8,2,memory-2step-stake-s,598,2161295,0.0-19.0-0.0-0.109,A1VAL7L9L79IN0,3SA4EMRVKYI00KKCICLEW0FTGRS0PA,3H7Z272LXBNGJZ7SX7CZJ434D11PL3,1,2
110,3,object_04,object_05,757.0,5,1,701.0,0.4444444444444444,1,object_06,1,1580,0,4,4,library_1,2,memory-2step-stake-s,599,2169674,0.0-19.0-0.0-0.110,A1VAL7L9L79IN0,3SA4EMRVKYI00KKCICLEW0FTGRS0PA,3H7Z272LXBNGJZ7SX7CZJ434D11PL3,5,6
111,1,object_02,object_10,723.0,2,2,363.0,0.3333333333333333,2,object_08,5,1595,0,2,3,desert_5,2,memory-2step-stake-s,600,2177610,0.0-19.0-0.0-0.111,A1VAL7L9L79IN0,3SA4EMRVKYI00KKCICLEW0FTGRS0PA,3H7Z272LXBNGJZ7SX7CZJ434D11PL3,1,2
112,2,object_01,object_03,666.0,3,2,595.0,0.3333333333333333,1,object_06,5,1610,0,3,2,forest_1,2,memory-2step-stake-s,601,2185786,0.0-19.0-0.0-0.112,A1VAL7L9L79IN0,3SA4EMRVKYI00KKCICLEW0FTGRS0PA,3H7Z272LXBNGJZ7SX7CZJ434D11PL3,4,3
113,4,object_07,object_09,625.0,7,1,513.0,0.3333333333333333,1,object_06,5,1625,0,3,2,restaurant_1,2,memory-2step-stake-s,602,2193897,0.0-19.0-0.0-0.113,A1VAL7L9L79IN0,3SA4EMRVKYI00KKCICLEW0FTGRS0PA,3H7Z272LXBNGJZ7SX7CZJ434D11PL3,7,8
114,3,object_05,object_04,620.0,5,2,482.0,0.7777777777777778,1,object_06,1,1632,0,7,0,library_3,2,memory-2step-stake-s,603,2202403,0.0-19.0-0.0-0.114,A1VAL7L9L79IN0,3SA4EMRVKYI00KKCICLEW0FTGRS0PA,3H7Z272LXBNGJZ7SX7CZJ434D11PL3,6,5
115,1,object_10,object_02,751.0,1,2,419.0,0.5555555555555556,1,object_06,5,1657,0,5,1,desert_6,2,memory-2step-stake-s,604,2210655,0.0-19.0-0.0-0.115,A1VAL7L9L79IN0,3SA4EMRVKYI00KKCICLEW0FTGRS0PA,3H7Z272LXBNGJZ7SX7CZJ434D11PL3,2,1
116,4,object_09,object_07,752.0,8,1,467.0,0.2222222222222222,2,object_08,1,1659,0,5,2,restaurant_4,2,memory-2step-stake-s,605,2218610,0.0-19.0-0.0-0.116,A1VAL7L9L79IN0,3SA4EMRVKYI00KKCICLEW0FTGRS0PA,3H7Z272LXBNGJZ7SX7CZJ434D11PL3,8,7
117,1,object_10,object_02,581.0,1,2,307.0,0.1111111111111111,1,object_06,5,1664,0,1,2,desert_6,2,memory-2step-stake-s,606,2226314,0.0-19.0-0.0-0.117,A1VAL7L9L79IN0,3SA4EMRVKYI00KKCICLEW0FTGRS0PA,3H7Z272LXBNGJZ7SX7CZJ434D11PL3,2,1
118,3,object_04,object_05,694.0,5,1,473.0,0.2222222222222222,1,object_06,5,1674,0,2,3,library_1,2,memory-2step-stake-s,607,2234301,0.0-19.0-0.0-0.118,A1VAL7L9L79IN0,3SA4EMRVKYI00KKCICLEW0FTGRS0PA,3H7Z272LXBNGJZ7SX7CZJ434D11PL3,5,6
119,3,object_04,object_05,734.0,6,2,358.0,0.1111111111111111,2,object_08,5,1679,0,3,1,library_8,2,memory-2step-stake-s,608,2242047,0.0-19.0-0.0-0.119,A1VAL7L9L79IN0,3SA4EMRVKYI00KKCICLEW0FTGRS0PA,3H7Z272LXBNGJZ7SX7CZJ434D11PL3,5,6
120,1,object_10,object_02,982.0,1,2,545.0,0.4444444444444444,1,object_06,5,1699,0,4,1,desert_5,2,memory-2step-stake-s,609,2250298,0.0-19.0-0.0-0.120,A1VAL7L9L79IN0,3SA4EMRVKYI00KKCICLEW0FTGRS0PA,3H7Z272LXBNGJZ7SX7CZJ434D11PL3,2,1
121,1,object_02,object_10,798.0,2,2,384.0,0.2222222222222222,2,object_08,1,1701,0,4,2,desert_5,2,memory-2step-stake-s,610,2258156,0.0-19.0-0.0-0.121,A1VAL7L9L79IN0,3SA4EMRVKYI00KKCICLEW0FTGRS0PA,3H7Z272LXBNGJZ7SX7CZJ434D11PL3,1,2
122,2,object_03,object_01,1051.0,4,2,360.0,0.2222222222222222,2,object_08,5,1711,0,2,2,forest_1,2,memory-2step-stake-s,611,2266012,0.0-19.0-0.0-0.122,A1VAL7L9L79IN0,3SA4EMRVKYI00KKCICLEW0FTGRS0PA,3H7Z272LXBNGJZ7SX7CZJ434D11PL3,3,4
123,1,object_10,object_02,1472.0,2,1,547.0,0.1111111111111111,2,object_08,5,1716,0,0,1,desert_7,2,memory-2step-stake-s,612,2273925,0.0-19.0-0.0-0.123,A1VAL7L9L79IN0,3SA4EMRVKYI00KKCICLEW0FTGRS0PA,3H7Z272LXBNGJZ7SX7CZJ434D11PL3,2,1
124,3,object_05,object_04,1032.0,6,1,373.0,0.4444444444444444,2,object_08,1,1720,0,2,4,library_3,2,memory-2step-stake-s,613,2282004,0.0-19.0-0.0-0.124,A1VAL7L9L79IN0,3SA4EMRVKYI00KKCICLEW0FTGRS0PA,3H7Z272LXBNGJZ7SX7CZJ434D11PL3,6,5
125,1,object_10,object_02,922.0,1,2,473.0,0.2222222222222222,1,object_06,5,1730,0,2,8,desert_7,2,memory-2step-stake-s,614,2289970,0.0-19.0-0.0-0.125,A1VAL7L9L79IN0,3SA4EMRVKYI00KKCICLEW0FTGRS0PA,3H7Z272LXBNGJZ7SX7CZJ434D11PL3,2,1
126,3,object_04,object_05,841.0,5,1,1086.0,0.2222222222222222,1,object_06,1,1732,0,2,8,library_3,2,memory-2step-stake-s,615,2298567,0.0-19.0-0.0-0.126,A1VAL7L9L79IN0,3SA4EMRVKYI00KKCICLEW0FTGRS0PA,3H7Z272LXBNGJZ7SX7CZJ434D11PL3,5,6
127,4,object_09,object_07,877.0,8,1,877.0,0.8888888888888888,2,object_08,1,1740,0,1,8,restaurant_8,2,memory-2step-stake-s,616,2307563,0.0-19.0-0.0-0.127,A1VAL7L9L79IN0,3SA4EMRVKYI00KKCICLEW0FTGRS0PA,3H7Z272LXBNGJZ7SX7CZJ434D11PL3,8,7
128,2,object_01,object_03,742.0,3,2,568.0,0.2222222222222222,1,object_06,1,1742,0,2,7,forest_2,2,memory-2step-stake-s,618,2369744,0.0-19.0-0.1-0.128,A1VAL7L9L79IN0,3SA4EMRVKYI00KKCICLEW0FTGRS0PA,3H7Z272LXBNGJZ7SX7CZJ434D11PL3,4,3
129,3,object_04,object_05,451.0,6,2,301.0,0.7777777777777778,2,object_08,1,1749,0,0,7,library_1,2,memory-2step-stake-s,619,2378072,0.0-19.0-0.1-0.129,A1VAL7L9L79IN0,3SA4EMRVKYI00KKCICLEW0FTGRS0PA,3H7Z272LXBNGJZ7SX7CZJ434D11PL3,5,6
130,1,object_02,object_10,670.0,2,2,357.0,0.5555555555555556,2,object_08,1,1754,0,1,5,desert_8,2,memory-2step-stake-s,620,2386263,0.0-19.0-0.1-0.130,A1VAL7L9L79IN0,3SA4EMRVKYI00KKCICLEW0FTGRS0PA,3H7Z272LXBNGJZ7SX7CZJ434D11PL3,1,2
131,1,object_02,object_10,645.0,1,1,206.0,0.3333333333333333,1,object_06,1,1757,0,3,6,desert_8,2,memory-2step-stake-s,621,2394075,0.0-19.0-0.1-0.131,A1VAL7L9L79IN0,3SA4EMRVKYI00KKCICLEW0FTGRS0PA,3H7Z272LXBNGJZ7SX7CZJ434D11PL3,1,2
132,2,object_01,object_03,894.0,3,2,333.0,0.3333333333333333,1,object_06,5,1772,0,3,9,forest_3,2,memory-2step-stake-s,622,2401995,0.0-19.0-0.1-0.132,A1VAL7L9L79IN0,3SA4EMRVKYI00KKCICLEW0FTGRS0PA,3H7Z272LXBNGJZ7SX7CZJ434D11PL3,4,3
133,1,object_02,object_10,947.0,2,2,904.0,0.8888888888888888,2,object_08,5,1812,0,3,8,desert_5,2,memory-2step-stake-s,623,2411030,0.0-19.0-0.1-0.133,A1VAL7L9L79IN0,3SA4EMRVKYI00KKCICLEW0FTGRS0PA,3H7Z272LXBNGJZ7SX7CZJ434D11PL3,1,2
134,2,object_03,object_01,964.0,3,1,389.0,0.3333333333333333,1,object_06,5,1827,0,3,6,forest_1,2,memory-2step-stake-s,624,2419012,0.0-19.0-0.1-0.134,A1VAL7L9L79IN0,3SA4EMRVKYI00KKCICLEW0FTGRS0PA,3H7Z272LXBNGJZ7SX7CZJ434D11PL3,3,4
135,3,object_05,object_04,950.0,6,1,337.0,0.7777777777777778,2,object_08,1,1834,0,6,7,library_1,2,memory-2step-stake-s,625,2427361,0.0-19.0-0.1-0.135,A1VAL7L9L79IN0,3SA4EMRVKYI00KKCICLEW0FTGRS0PA,3H7Z272LXBNGJZ7SX7CZJ434D11PL3,6,5
136,4,object_09,object_07,-1.0,-1,-1,-1.0,0.0,-,0,1,1834,0,7,5,restaurant_4,2,memory-2step-stake-s,626,2433909,0.0-19.0-0.1-0.136,A1VAL7L9L79IN0,3SA4EMRVKYI00KKCICLEW0FTGRS0PA,3H7Z272LXBNGJZ7SX7CZJ434D11PL3,8,7
137,3,object_04,object_05,570.0,6,2,576.0,0.6666666666666666,2,object_08,1,1840,0,7,6,library_1,2,memory-2step-stake-s,627,2442404,0.0-19.0-0.1-0.137,A1VAL7L9L79IN0,3SA4EMRVKYI00KKCICLEW0FTGRS0PA,3H7Z272LXBNGJZ7SX7CZJ434D11PL3,5,6
138,4,object_09,object_07,744.0,7,2,501.0,0.8888888888888888,1,object_06,1,1848,0,8,8,restaurant_1,2,memory-2step-stake-s,628,2451039,0.0-19.0-0.1-0.138,A1VAL7L9L79IN0,3SA4EMRVKYI00KKCICLEW0FTGRS0PA,3H7Z272LXBNGJZ7SX7CZJ434D11PL3,8,7
139,4,object_07,object_09,721.0,7,1,274.0,0.8888888888888888,1,object_06,5,1888,0,8,9,restaurant_8,2,memory-2step-stake-s,629,2459446,0.0-19.0-0.1-0.139,A1VAL7L9L79IN0,3SA4EMRVKYI00KKCICLEW0FTGRS0PA,3H7Z272LXBNGJZ7SX7CZJ434D11PL3,7,8
140,1,object_02,object_10,1163.0,1,1,662.0,0.8888888888888888,1,object_06,1,1896,0,8,9,desert_6,2,memory-2step-stake-s,630,2468225,0.0-19.0-0.1-0.140,A1VAL7L9L79IN0,3SA4EMRVKYI00KKCICLEW0FTGRS0PA,3H7Z272LXBNGJZ7SX7CZJ434D11PL3,1,2
141,1,object_02,object_10,1225.0,1,1,824.0,1.0,1,object_06,1,1905,0,9,4,desert_8,2,memory-2step-stake-s,631,2477308,0.0-19.0-0.1-0.141,A1VAL7L9L79IN0,3SA4EMRVKYI00KKCICLEW0FTGRS0PA,3H7Z272LXBNGJZ7SX7CZJ434D11PL3,1,2
142,1,object_10,object_02,655.0,1,2,697.0,0.8888888888888888,1,object_06,5,1945,0,8,7,desert_7,2,memory-2step-stake-s,632,2486126,0.0-19.0-0.1-0.142,A1VAL7L9L79IN0,3SA4EMRVKYI00KKCICLEW0FTGRS0PA,3H7Z272LXBNGJZ7SX7CZJ434D11PL3,2,1
143,1,object_10,object_02,680.0,1,2,469.0,0.8888888888888888,1,object_06,5,1985,0,8,8,desert_7,2,memory-2step-stake-s,633,2494722,0.0-19.0-0.1-0.143,A1VAL7L9L79IN0,3SA4EMRVKYI00KKCICLEW0FTGRS0PA,3H7Z272LXBNGJZ7SX7CZJ434D11PL3,2,1
144,3,object_05,object_04,668.0,5,2,611.0,1.0,1,object_06,1,1994,0,9,7,library_1,2,memory-2step-stake-s,634,2503588,0.0-19.0-0.1-0.144,A1VAL7L9L79IN0,3SA4EMRVKYI00KKCICLEW0FTGRS0PA,3H7Z272LXBNGJZ7SX7CZJ434D11PL3,6,5
145,1,object_02,object_10,923.0,1,1,291.0,0.8888888888888888,1,object_06,5,2034,0,8,8,desert_8,2,memory-2step-stake-s,635,2512029,0.0-19.0-0.1-0.145,A1VAL7L9L79IN0,3SA4EMRVKYI00KKCICLEW0FTGRS0PA,3H7Z272LXBNGJZ7SX7CZJ434D11PL3,1,2
146,1,object_02,object_10,528.0,1,1,43.0,0.8888888888888888,1,object_06,5,2074,0,8,8,desert_8,2,memory-2step-stake-s,636,2520200,0.0-19.0-0.1-0.146,A1VAL7L9L79IN0,3SA4EMRVKYI00KKCICLEW0FTGRS0PA,3H7Z272LXBNGJZ7SX7CZJ434D11PL3,1,2
147,4,object_07,object_09,805.0,7,1,290.0,0.8888888888888888,1,object_06,1,2082,0,8,5,restaurant_4,2,memory-2step-stake-s,637,2528610,0.0-19.0-0.1-0.147,A1VAL7L9L79IN0,3SA4EMRVKYI00KKCICLEW0FTGRS0PA,3H7Z272LXBNGJZ7SX7CZJ434D11PL3,7,8
148,4,object_07,object_09,775.0,7,1,263.0,0.6666666666666666,1,object_06,1,2088,0,6,5,restaurant_1,2,memory-2step-stake-s,638,2536793,0.0-19.0-0.1-0.148,A1VAL7L9L79IN0,3SA4EMRVKYI00KKCICLEW0FTGRS0PA,3H7Z272LXBNGJZ7SX7CZJ434D11PL3,7,8
149,2,object_01,object_03,1047.0,4,1,479.0,0.3333333333333333,2,object_08,5,2103,0,6,3,forest_5,2,memory-2step-stake-s,639,2544862,0.0-19.0-0.1-0.149,A1VAL7L9L79IN0,3SA4EMRVKYI00KKCICLEW0FTGRS0PA,3H7Z272LXBNGJZ7SX7CZJ434D11PL3,4,3
150,1,object_02,object_10,847.0,1,1,375.0,0.3333333333333333,1,object_06,5,2118,0,3,1,desert_6,2,memory-2step-stake-s,640,2552816,0.0-19.0-0.1-0.150,A1VAL7L9L79IN0,3SA4EMRVKYI00KKCICLEW0FTGRS0PA,3H7Z272LXBNGJZ7SX7CZJ434D11PL3,1,2
151,3,object_05,object_04,792.0,6,1,346.0,0.3333333333333333,2,object_08,1,2121,0,2,3,library_8,2,memory-2step-stake-s,641,2560756,0.0-19.0-0.1-0.151,A1VAL7L9L79IN0,3SA4EMRVKYI00KKCICLEW0FTGRS0PA,3H7Z272LXBNGJZ7SX7CZJ434D11PL3,6,5
152,1,object_02,object_10,715.0,1,1,287.0,0.5555555555555556,1,object_06,5,2146,0,5,0,desert_8,2,memory-2step-stake-s,642,2568872,0.0-19.0-0.1-0.152,A1VAL7L9L79IN0,3SA4EMRVKYI00KKCICLEW0FTGRS0PA,3H7Z272LXBNGJZ7SX7CZJ434D11PL3,1,2
153,3,object_04,object_05,814.0,5,1,238.0,0.4444444444444444,1,object_06,1,2150,0,4,2,library_6,2,memory-2step-stake-s,643,2576803,0.0-19.0-0.1-0.153,A1VAL7L9L79IN0,3SA4EMRVKYI00KKCICLEW0FTGRS0PA,3H7Z272LXBNGJZ7SX7CZJ434D11PL3,5,6
154,4,object_09,object_07,1144.0,8,1,284.0,0.3333333333333333,2,object_08,1,2153,0,3,3,restaurant_1,2,memory-2step-stake-s,644,2584667,0.0-19.0-0.1-0.154,A1VAL7L9L79IN0,3SA4EMRVKYI00KKCICLEW0FTGRS0PA,3H7Z272LXBNGJZ7SX7CZJ434D11PL3,8,7
155,4,object_09,object_07,494.0,7,2,304.0,0.1111111111111111,1,object_06,1,2154,0,1,5,restaurant_4,2,memory-2step-stake-s,645,2592334,0.0-19.0-0.1-0.155,A1VAL7L9L79IN0,3SA4EMRVKYI00KKCICLEW0FTGRS0PA,3H7Z272LXBNGJZ7SX7CZJ434D11PL3,8,7
156,3,object_04,object_05,772.0,6,2,351.0,1.0,2,object_08,5,2199,0,3,9,library_1,2,memory-2step-stake-s,646,2600937,0.0-19.0-0.1-0.156,A1VAL7L9L79IN0,3SA4EMRVKYI00KKCICLEW0FTGRS0PA,3H7Z272LXBNGJZ7SX7CZJ434D11PL3,5,6
157,2,object_03,object_01,1053.0,4,2,343.0,0.8888888888888888,2,object_08,1,2207,0,5,8,forest_2,2,memory-2step-stake-s,647,2609387,0.0-19.0-0.1-0.157,A1VAL7L9L79IN0,3SA4EMRVKYI00KKCICLEW0FTGRS0PA,3H7Z272LXBNGJZ7SX7CZJ434D11PL3,3,4
158,4,object_09,object_07,994.0,8,1,382.0,0.7777777777777778,2,object_08,5,2242,0,6,7,restaurant_8,2,memory-2step-stake-s,648,2617780,0.0-19.0-0.1-0.158,A1VAL7L9L79IN0,3SA4EMRVKYI00KKCICLEW0FTGRS0PA,3H7Z272LXBNGJZ7SX7CZJ434D11PL3,8,7
159,2,object_03,object_01,813.0,4,2,310.0,0.7777777777777778,2,object_08,5,2277,0,7,7,forest_1,2,memory-2step-stake-s,649,2626101,0.0-19.0-0.1-0.159,A1VAL7L9L79IN0,3SA4EMRVKYI00KKCICLEW0FTGRS0PA,3H7Z272LXBNGJZ7SX7CZJ434D11PL3,3,4
160,1,object_02,object_10,740.0,1,1,267.0,0.8888888888888888,1,object_06,1,2285,0,8,7,desert_8,2,memory-2step-stake-s,650,2634491,0.0-19.0-0.1-0.160,A1VAL7L9L79IN0,3SA4EMRVKYI00KKCICLEW0FTGRS0PA,3H7Z272LXBNGJZ7SX7CZJ434D11PL3,1,2
161,4,object_09,object_07,940.0,7,2,306.0,0.6666666666666666,1,object_06,1,2291,0,6,7,restaurant_4,2,memory-2step-stake-s,651,2642719,0.0-19.0-0.1-0.161,A1VAL7L9L79IN0,3SA4EMRVKYI00KKCICLEW0FTGRS0PA,3H7Z272LXBNGJZ7SX7CZJ434D11PL3,8,7
162,2,object_03,object_01,658.0,3,1,261.0,0.4444444444444444,1,object_06,5,2311,0,4,8,forest_5,2,memory-2step-stake-s,652,2650686,0.0-19.0-0.1-0.162,A1VAL7L9L79IN0,3SA4EMRVKYI00KKCICLEW0FTGRS0PA,3H7Z272LXBNGJZ7SX7CZJ434D11PL3,3,4
163,1,object_02,object_10,789.0,2,2,335.0,0.7777777777777778,2,object_08,5,2346,0,5,7,desert_7,2,memory-2step-stake-s,653,2659043,0.0-19.0-0.1-0.163,A1VAL7L9L79IN0,3SA4EMRVKYI00KKCICLEW0FTGRS0PA,3H7Z272LXBNGJZ7SX7CZJ434D11PL3,1,2
164,2,object_03,object_01,791.0,3,1,274.0,0.6666666666666666,1,object_06,5,2376,0,6,6,forest_5,2,memory-2step-stake-s,654,2667224,0.0-19.0-0.1-0.164,A1VAL7L9L79IN0,3SA4EMRVKYI00KKCICLEW0FTGRS0PA,3H7Z272LXBNGJZ7SX7CZJ434D11PL3,3,4
165,1,object_10,object_02,828.0,2,1,299.0,0.8888888888888888,2,object_08,5,2416,0,6,8,desert_7,2,memory-2step-stake-s,655,2675651,0.0-19.0-0.1-0.165,A1VAL7L9L79IN0,3SA4EMRVKYI00KKCICLEW0FTGRS0PA,3H7Z272LXBNGJZ7SX7CZJ434D11PL3,2,1
166,4,object_07,object_09,837.0,8,2,276.0,1.0,2,object_08,1,2425,0,2,9,restaurant_1,2,memory-2step-stake-s,656,2684201,0.0-19.0-0.1-0.166,A1VAL7L9L79IN0,3SA4EMRVKYI00KKCICLEW0FTGRS0PA,3H7Z272LXBNGJZ7SX7CZJ434D11PL3,7,8
167,1,object_02,object_10,858.0,2,2,287.0,0.5555555555555556,2,object_08,5,2450,0,2,5,desert_5,2,memory-2step-stake-s,657,2692308,0.0-19.0-0.1-0.167,A1VAL7L9L79IN0,3SA4EMRVKYI00KKCICLEW0FTGRS0PA,3H7Z272LXBNGJZ7SX7CZJ434D11PL3,1,2
168,4,object_07,object_09,569.0,7,1,305.0,0.3333333333333333,1,object_06,1,2453,0,3,6,restaurant_3,2,memory-2step-stake-s,658,2700207,0.0-19.0-0.1-0.168,A1VAL7L9L79IN0,3SA4EMRVKYI00KKCICLEW0FTGRS0PA,3H7Z272LXBNGJZ7SX7CZJ434D11PL3,7,8
169,4,object_09,object_07,1040.0,7,2,556.0,0.2222222222222222,1,object_06,1,2455,0,2,7,restaurant_4,2,memory-2step-stake-s,659,2708260,0.0-19.0-0.1-0.169,A1VAL7L9L79IN0,3SA4EMRVKYI00KKCICLEW0FTGRS0PA,3H7Z272LXBNGJZ7SX7CZJ434D11PL3,8,7
170,1,object_02,object_10,707.0,1,1,304.0,0.3333333333333333,1,object_06,5,2470,0,3,6,desert_5,2,memory-2step-stake-s,660,2716149,0.0-19.0-0.1-0.170,A1VAL7L9L79IN0,3SA4EMRVKYI00KKCICLEW0FTGRS0PA,3H7Z272LXBNGJZ7SX7CZJ434D11PL3,1,2
171,2,object_03,object_01,765.0,3,1,389.0,0.3333333333333333,1,object_06,1,2473,0,3,8,forest_5,2,memory-2step-stake-s,661,2724121,0.0-19.0-0.1-0.171,A1VAL7L9L79IN0,3SA4EMRVKYI00KKCICLEW0FTGRS0PA,3H7Z272LXBNGJZ7SX7CZJ434D11PL3,3,4
172,1,object_10,object_02,374.0,1,2,367.0,0.1111111111111111,1,object_06,5,2478,0,1,8,desert_8,2,memory-2step-stake-s,662,2731868,0.0-19.0-0.1-0.172,A1VAL7L9L79IN0,3SA4EMRVKYI00KKCICLEW0FTGRS0PA,3H7Z272LXBNGJZ7SX7CZJ434D11PL3,2,1
173,1,object_02,object_10,631.0,1,1,239.0,0.1111111111111111,1,object_06,5,2483,0,1,7,desert_5,2,memory-2step-stake-s,663,2739485,0.0-19.0-0.1-0.173,A1VAL7L9L79IN0,3SA4EMRVKYI00KKCICLEW0FTGRS0PA,3H7Z272LXBNGJZ7SX7CZJ434D11PL3,1,2
174,4,object_07,object_09,869.0,8,2,798.0,0.7777777777777778,2,object_08,1,2490,0,1,7,restaurant_3,2,memory-2step-stake-s,664,2748298,0.0-19.0-0.1-0.174,A1VAL7L9L79IN0,3SA4EMRVKYI00KKCICLEW0FTGRS0PA,3H7Z272LXBNGJZ7SX7CZJ434D11PL3,7,8
175,3,object_04,object_05,644.0,5,1,402.0,0.3333333333333333,1,object_06,1,2493,0,3,7,library_8,2,memory-2step-stake-s,665,2756297,0.0-19.0-0.1-0.175,A1VAL7L9L79IN0,3SA4EMRVKYI00KKCICLEW0FTGRS0PA,3H7Z272LXBNGJZ7SX7CZJ434D11PL3,5,6
176,2,object_01,object_03,700.0,3,2,514.0,0.2222222222222222,1,object_06,1,2495,0,2,9,forest_3,2,memory-2step-stake-s,666,2764302,0.0-19.0-0.1-0.176,A1VAL7L9L79IN0,3SA4EMRVKYI00KKCICLEW0FTGRS0PA,3H7Z272LXBNGJZ7SX7CZJ434D11PL3,4,3
177,2,object_03,object_01,786.0,4,2,477.0,0.6666666666666666,2,object_08,5,2525,0,1,6,forest_5,2,memory-2step-stake-s,667,2772676,0.0-19.0-0.1-0.177,A1VAL7L9L79IN0,3SA4EMRVKYI00KKCICLEW0FTGRS0PA,3H7Z272LXBNGJZ7SX7CZJ434D11PL3,3,4
178,4,object_09,object_07,829.0,7,2,304.0,0.3333333333333333,1,object_06,5,2540,0,3,8,restaurant_8,2,memory-2step-stake-s,668,2780557,0.0-19.0-0.1-0.178,A1VAL7L9L79IN0,3SA4EMRVKYI00KKCICLEW0FTGRS0PA,3H7Z272LXBNGJZ7SX7CZJ434D11PL3,8,7
179,3,object_05,object_04,674.0,5,2,279.0,0.0,1,object_06,1,2540,0,0,8,library_8,2,memory-2step-stake-s,669,2788089,0.0-19.0-0.1-0.179,A1VAL7L9L79IN0,3SA4EMRVKYI00KKCICLEW0FTGRS0PA,3H7Z272LXBNGJZ7SX7CZJ434D11PL3,6,5
180,2,object_01,object_03,934.0,3,2,320.0,0.3333333333333333,1,object_06,5,2555,0,3,7,forest_3,2,memory-2step-stake-s,670,2795987,0.0-19.0-0.1-0.180,A1VAL7L9L79IN0,3SA4EMRVKYI00KKCICLEW0FTGRS0PA,3H7Z272LXBNGJZ7SX7CZJ434D11PL3,4,3
181,2,object_01,object_03,557.0,4,1,392.0,0.6666666666666666,2,object_08,5,2585,0,1,6,forest_1,2,memory-2step-stake-s,671,2804291,0.0-19.0-0.1-0.181,A1VAL7L9L79IN0,3SA4EMRVKYI00KKCICLEW0FTGRS0PA,3H7Z272LXBNGJZ7SX7CZJ434D11PL3,4,3
182,1,object_02,object_10,965.0,2,2,330.0,0.5555555555555556,2,object_08,5,2610,0,4,5,desert_7,2,memory-2step-stake-s,672,2812424,0.0-19.0-0.1-0.182,A1VAL7L9L79IN0,3SA4EMRVKYI00KKCICLEW0FTGRS0PA,3H7Z272LXBNGJZ7SX7CZJ434D11PL3,1,2
183,3,object_04,object_05,600.0,6,2,380.0,0.2222222222222222,2,object_08,5,2620,0,4,2,library_6,2,memory-2step-stake-s,673,2820287,0.0-19.0-0.1-0.183,A1VAL7L9L79IN0,3SA4EMRVKYI00KKCICLEW0FTGRS0PA,3H7Z272LXBNGJZ7SX7CZJ434D11PL3,5,6
184,4,object_09,object_07,885.0,7,2,330.0,0.4444444444444444,1,object_06,1,2624,0,4,2,restaurant_4,2,memory-2step-stake-s,674,2828314,0.0-19.0-0.1-0.184,A1VAL7L9L79IN0,3SA4EMRVKYI00KKCICLEW0FTGRS0PA,3H7Z272LXBNGJZ7SX7CZJ434D11PL3,8,7
185,1,object_02,object_10,830.0,1,1,328.0,0.2222222222222222,1,object_06,5,2634,0,2,0,desert_6,2,memory-2step-stake-s,675,2836136,0.0-19.0-0.1-0.185,A1VAL7L9L79IN0,3SA4EMRVKYI00KKCICLEW0FTGRS0PA,3H7Z272LXBNGJZ7SX7CZJ434D11PL3,1,2
186,1,object_02,object_10,525.0,2,2,381.0,0.2222222222222222,2,object_08,5,2644,0,0,2,desert_5,2,memory-2step-stake-s,676,2844006,0.0-19.0-0.1-0.186,A1VAL7L9L79IN0,3SA4EMRVKYI00KKCICLEW0FTGRS0PA,3H7Z272LXBNGJZ7SX7CZJ434D11PL3,1,2
187,1,object_10,object_02,540.0,1,2,265.0,0.3333333333333333,1,object_06,5,2659,0,3,1,desert_8,2,memory-2step-stake-s,677,2851870,0.0-19.0-0.1-0.187,A1VAL7L9L79IN0,3SA4EMRVKYI00KKCICLEW0FTGRS0PA,3H7Z272LXBNGJZ7SX7CZJ434D11PL3,2,1
188,3,object_05,object_04,602.0,5,2,288.0,0.3333333333333333,1,object_06,1,2662,0,3,2,library_8,2,memory-2step-stake-s,678,2859742,0.0-19.0-0.1-0.188,A1VAL7L9L79IN0,3SA4EMRVKYI00KKCICLEW0FTGRS0PA,3H7Z272LXBNGJZ7SX7CZJ434D11PL3,6,5
189,4,object_07,object_09,766.0,7,1,301.0,0.1111111111111111,1,object_06,1,2663,0,1,1,restaurant_8,2,memory-2step-stake-s,679,2867382,0.0-19.0-0.1-0.189,A1VAL7L9L79IN0,3SA4EMRVKYI00KKCICLEW0FTGRS0PA,3H7Z272LXBNGJZ7SX7CZJ434D11PL3,7,8
190,2,object_03,object_01,892.0,4,2,287.0,0.3333333333333333,2,object_08,5,2678,0,1,3,forest_2,2,memory-2step-stake-s,680,2875253,0.0-19.0-0.1-0.190,A1VAL7L9L79IN0,3SA4EMRVKYI00KKCICLEW0FTGRS0PA,3H7Z272LXBNGJZ7SX7CZJ434D11PL3,3,4
191,3,object_05,object_04,644.0,6,1,265.0,0.2222222222222222,2,object_08,1,2680,0,0,2,library_1,2,memory-2step-stake-s,681,2883010,0.0-19.0-0.1-0.191,A1VAL7L9L79IN0,3SA4EMRVKYI00KKCICLEW0FTGRS0PA,3H7Z272LXBNGJZ7SX7CZJ434D11PL3,6,5
192,4,object_07,object_09,576.0,7,1,537.0,0.2222222222222222,1,object_06,1,2682,0,2,1,restaurant_1,2,memory-2step-stake-s,682,2891009,0.0-19.0-0.1-0.192,A1VAL7L9L79IN0,3SA4EMRVKYI00KKCICLEW0FTGRS0PA,3H7Z272LXBNGJZ7SX7CZJ434D11PL3,7,8
193,4,object_09,object_07,744.0,8,1,439.0,0.4444444444444444,2,object_08,1,2686,0,3,4,restaurant_1,2,memory-2step-stake-s,683,2899155,0.0-19.0-0.1-0.193,A1VAL7L9L79IN0,3SA4EMRVKYI00KKCICLEW0FTGRS0PA,3H7Z272LXBNGJZ7SX7CZJ434D11PL3,8,7
194,1,object_02,object_10,635.0,1,1,388.0,0.7777777777777778,1,object_06,1,2693,0,7,3,desert_7,2,memory-2step-stake-s,684,2907590,0.0-19.0-0.1-0.194,A1VAL7L9L79IN0,3SA4EMRVKYI00KKCICLEW0FTGRS0PA,3H7Z272LXBNGJZ7SX7CZJ434D11PL3,1,2
195,2,object_03,object_01,623.0,3,1,254.0,0.8888888888888888,1,object_06,1,2701,0,8,2,forest_2,2,memory-2step-stake-s,685,2915996,0.0-19.0-0.1-0.195,A1VAL7L9L79IN0,3SA4EMRVKYI00KKCICLEW0FTGRS0PA,3H7Z272LXBNGJZ7SX7CZJ434D11PL3,3,4
196,3,object_05,object_04,588.0,5,2,306.0,0.6666666666666666,1,object_06,1,2707,0,6,7,library_8,2,memory-2step-stake-s,686,2924222,0.0-19.0-0.1-0.196,A1VAL7L9L79IN0,3SA4EMRVKYI00KKCICLEW0FTGRS0PA,3H7Z272LXBNGJZ7SX7CZJ434D11PL3,6,5
197,4,object_07,object_09,703.0,7,1,320.0,0.7777777777777778,1,object_06,5,2742,0,7,7,restaurant_3,2,memory-2step-stake-s,687,2932555,0.0-19.0-0.1-0.197,A1VAL7L9L79IN0,3SA4EMRVKYI00KKCICLEW0FTGRS0PA,3H7Z272LXBNGJZ7SX7CZJ434D11PL3,7,8
198,3,object_05,object_04,933.0,5,2,427.0,1.0,1,object_06,1,2751,0,9,5,library_3,2,memory-2step-stake-s,688,2941254,0.0-19.0-0.1-0.198,A1VAL7L9L79IN0,3SA4EMRVKYI00KKCICLEW0FTGRS0PA,3H7Z272LXBNGJZ7SX7CZJ434D11PL3,6,5
199,1,object_02,object_10,793.0,1,1,522.0,0.8888888888888888,1,object_06,5,2791,0,8,3,desert_5,2,memory-2step-stake-s,689,2949918,0.0-19.0-0.1-0.199,A1VAL7L9L79IN0,3SA4EMRVKYI00KKCICLEW0FTGRS0PA,3H7Z272LXBNGJZ7SX7CZJ434D11PL3,1,2
200,3,object_05,object_04,506.0,5,2,308.0,0.8888888888888888,1,object_06,1,2799,0,8,5,library_6,2,memory-2step-stake-s,690,2958335,0.0-19.0-0.1-0.200,A1VAL7L9L79IN0,3SA4EMRVKYI00KKCICLEW0FTGRS0PA,3H7Z272LXBNGJZ7SX7CZJ434D11PL3,6,5
201,4,object_09,object_07,512.0,7,2,347.0,0.5555555555555556,1,object_06,1,2804,0,5,1,restaurant_4,2,memory-2step-stake-s,691,2966473,0.0-19.0-0.1-0.201,A1VAL7L9L79IN0,3SA4EMRVKYI00KKCICLEW0FTGRS0PA,3H7Z272LXBNGJZ7SX7CZJ434D11PL3,8,7
202,3,object_04,object_05,1077.0,6,2,308.0,0.4444444444444444,2,object_08,1,2808,0,4,4,library_1,2,memory-2step-stake-s,692,2974483,0.0-19.0-0.1-0.202,A1VAL7L9L79IN0,3SA4EMRVKYI00KKCICLEW0FTGRS0PA,3H7Z272LXBNGJZ7SX7CZJ434D11PL3,5,6
203,1,object_02,object_10,616.0,2,2,256.0,0.1111111111111111,2,object_08,1,2809,0,3,1,desert_6,2,memory-2step-stake-s,693,2982125,0.0-19.0-0.1-0.203,A1VAL7L9L79IN0,3SA4EMRVKYI00KKCICLEW0FTGRS0PA,3H7Z272LXBNGJZ7SX7CZJ434D11PL3,1,2
204,2,object_03,object_01,563.0,3,1,222.0,0.4444444444444444,1,object_06,5,2829,0,4,5,forest_1,2,memory-2step-stake-s,694,2990040,0.0-19.0-0.1-0.204,A1VAL7L9L79IN0,3SA4EMRVKYI00KKCICLEW0FTGRS0PA,3H7Z272LXBNGJZ7SX7CZJ434D11PL3,3,4
205,4,object_09,object_07,711.0,7,2,235.0,0.2222222222222222,1,object_06,1,2831,0,2,4,restaurant_4,2,memory-2step-stake-s,695,2997756,0.0-19.0-0.1-0.205,A1VAL7L9L79IN0,3SA4EMRVKYI00KKCICLEW0FTGRS0PA,3H7Z272LXBNGJZ7SX7CZJ434D11PL3,8,7
206,3,object_05,object_04,775.0,5,2,263.0,0.5555555555555556,1,object_06,1,2836,0,5,6,library_6,2,memory-2step-stake-s,696,3005837,0.0-19.0-0.1-0.206,A1VAL7L9L79IN0,3SA4EMRVKYI00KKCICLEW0FTGRS0PA,3H7Z272LXBNGJZ7SX7CZJ434D11PL3,6,5
207,1,object_10,object_02,621.0,2,1,329.0,0.4444444444444444,2,object_08,5,2856,0,5,4,desert_8,2,memory-2step-stake-s,697,3013873,0.0-19.0-0.1-0.207,A1VAL7L9L79IN0,3SA4EMRVKYI00KKCICLEW0FTGRS0PA,3H7Z272LXBNGJZ7SX7CZJ434D11PL3,2,1
208,2,object_01,object_03,624.0,3,2,-1.0,0.0,1,object_06,5,2856,0,9,3,forest_1,2,memory-2step-stake-s,698,3024690,0.0-19.0-0.1-0.208,A1VAL7L9L79IN0,3SA4EMRVKYI00KKCICLEW0FTGRS0PA,3H7Z272LXBNGJZ7SX7CZJ434D11PL3,4,3
209,3,object_04,object_05,747.0,5,1,503.0,0.7777777777777778,1,object_06,1,2863,0,7,4,library_6,2,memory-2step-stake-s,699,3033250,0.0-19.0-0.1-0.209,A1VAL7L9L79IN0,3SA4EMRVKYI00KKCICLEW0FTGRS0PA,3H7Z272LXBNGJZ7SX7CZJ434D11PL3,5,6
210,2,object_03,object_01,634.0,3,1,285.0,0.6666666666666666,1,object_06,5,2893,0,6,1,forest_5,2,memory-2step-stake-s,700,3041456,0.0-19.0-0.1-0.210,A1VAL7L9L79IN0,3SA4EMRVKYI00KKCICLEW0FTGRS0PA,3H7Z272LXBNGJZ7SX7CZJ434D11PL3,3,4
211,2,object_03,object_01,607.0,3,1,222.0,0.3333333333333333,1,object_06,1,2896,0,3,1,forest_2,2,memory-2step-stake-s,701,3049275,0.0-19.0-0.1-0.211,A1VAL7L9L79IN0,3SA4EMRVKYI00KKCICLEW0FTGRS0PA,3H7Z272LXBNGJZ7SX7CZJ434D11PL3,3,4
212,4,object_07,object_09,1011.0,8,2,321.0,0.1111111111111111,2,object_08,1,2897,0,6,1,restaurant_3,2,memory-2step-stake-s,702,3056985,0.0-19.0-0.1-0.212,A1VAL7L9L79IN0,3SA4EMRVKYI00KKCICLEW0FTGRS0PA,3H7Z272LXBNGJZ7SX7CZJ434D11PL3,7,8
213,4,object_07,object_09,438.0,8,2,101.0,0.2222222222222222,2,object_08,1,2899,0,7,2,restaurant_1,2,memory-2step-stake-s,703,3064594,0.0-19.0-0.1-0.213,A1VAL7L9L79IN0,3SA4EMRVKYI00KKCICLEW0FTGRS0PA,3H7Z272LXBNGJZ7SX7CZJ434D11PL3,7,8
214,1,object_02,object_10,717.0,2,2,336.0,0.3333333333333333,2,object_08,5,2914,0,8,3,desert_7,2,memory-2step-stake-s,704,3072504,0.0-19.0-0.1-0.214,A1VAL7L9L79IN0,3SA4EMRVKYI00KKCICLEW0FTGRS0PA,3H7Z272LXBNGJZ7SX7CZJ434D11PL3,1,2
215,2,object_01,object_03,657.0,4,1,309.0,0.7777777777777778,2,object_08,5,2949,0,9,7,forest_3,2,memory-2step-stake-s,705,3080875,0.0-19.0-0.1-0.215,A1VAL7L9L79IN0,3SA4EMRVKYI00KKCICLEW0FTGRS0PA,3H7Z272LXBNGJZ7SX7CZJ434D11PL3,4,3
216,3,object_05,object_04,711.0,6,1,356.0,0.8888888888888888,2,object_08,1,2957,0,9,8,library_3,2,memory-2step-stake-s,706,3089401,0.0-19.0-0.1-0.216,A1VAL7L9L79IN0,3SA4EMRVKYI00KKCICLEW0FTGRS0PA,3H7Z272LXBNGJZ7SX7CZJ434D11PL3,6,5
217,4,object_09,object_07,681.0,8,1,335.0,0.7777777777777778,2,object_08,1,2964,0,8,7,restaurant_3,2,memory-2step-stake-s,707,3097769,0.0-19.0-0.1-0.217,A1VAL7L9L79IN0,3SA4EMRVKYI00KKCICLEW0FTGRS0PA,3H7Z272LXBNGJZ7SX7CZJ434D11PL3,8,7
218,3,object_05,object_04,672.0,6,1,283.0,0.7777777777777778,2,object_08,1,2971,0,8,7,library_3,2,memory-2step-stake-s,708,3106074,0.0-19.0-0.1-0.218,A1VAL7L9L79IN0,3SA4EMRVKYI00KKCICLEW0FTGRS0PA,3H7Z272LXBNGJZ7SX7CZJ434D11PL3,6,5
219,2,object_03,object_01,581.0,4,2,267.0,0.8888888888888888,2,object_08,5,3011,0,8,8,forest_3,2,memory-2step-stake-s,709,3114487,0.0-19.0-0.1-0.219,A1VAL7L9L79IN0,3SA4EMRVKYI00KKCICLEW0FTGRS0PA,3H7Z272LXBNGJZ7SX7CZJ434D11PL3,3,4
220,4,object_07,object_09,718.0,8,2,131.0,0.7777777777777778,2,object_08,5,3046,0,8,7,restaurant_4,2,memory-2step-stake-s,710,3122635,0.0-19.0-0.1-0.220,A1VAL7L9L79IN0,3SA4EMRVKYI00KKCICLEW0FTGRS0PA,3H7Z272LXBNGJZ7SX7CZJ434D11PL3,7,8
221,4,object_09,object_07,562.0,8,1,300.0,0.5555555555555556,2,object_08,5,3071,0,6,5,restaurant_1,2,memory-2step-stake-s,711,3130770,0.0-19.0-0.1-0.221,A1VAL7L9L79IN0,3SA4EMRVKYI00KKCICLEW0FTGRS0PA,3H7Z272LXBNGJZ7SX7CZJ434D11PL3,8,7
222,4,object_07,object_09,588.0,8,2,292.0,0.4444444444444444,2,object_08,5,3091,0,7,4,restaurant_1,2,memory-2step-stake-s,712,3138761,0.0-19.0-0.1-0.222,A1VAL7L9L79IN0,3SA4EMRVKYI00KKCICLEW0FTGRS0PA,3H7Z272LXBNGJZ7SX7CZJ434D11PL3,7,8
223,2,object_01,object_03,669.0,4,1,315.0,0.4444444444444444,2,object_08,5,3111,0,6,4,forest_5,2,memory-2step-stake-s,713,3146777,0.0-19.0-0.1-0.223,A1VAL7L9L79IN0,3SA4EMRVKYI00KKCICLEW0FTGRS0PA,3H7Z272LXBNGJZ7SX7CZJ434D11PL3,4,3
224,4,object_09,object_07,691.0,8,1,529.0,0.5555555555555556,2,object_08,1,3116,0,6,5,restaurant_8,2,memory-2step-stake-s,714,3155122,0.0-19.0-0.1-0.224,A1VAL7L9L79IN0,3SA4EMRVKYI00KKCICLEW0FTGRS0PA,3H7Z272LXBNGJZ7SX7CZJ434D11PL3,8,7
225,3,object_04,object_05,496.0,6,2,480.0,0.3333333333333333,2,object_08,1,3119,0,7,3,library_8,2,memory-2step-stake-s,715,3163197,0.0-19.0-0.1-0.225,A1VAL7L9L79IN0,3SA4EMRVKYI00KKCICLEW0FTGRS0PA,3H7Z272LXBNGJZ7SX7CZJ434D11PL3,5,6
226,2,object_01,object_03,489.0,4,1,597.0,0.2222222222222222,2,object_08,1,3121,0,7,2,forest_5,2,memory-2step-stake-s,716,3171270,0.0-19.0-0.1-0.226,A1VAL7L9L79IN0,3SA4EMRVKYI00KKCICLEW0FTGRS0PA,3H7Z272LXBNGJZ7SX7CZJ434D11PL3,4,3
227,2,object_03,object_01,613.0,3,1,445.0,0.6666666666666666,1,object_06,5,3151,0,6,3,forest_5,2,memory-2step-stake-s,717,3179640,0.0-19.0-0.1-0.227,A1VAL7L9L79IN0,3SA4EMRVKYI00KKCICLEW0FTGRS0PA,3H7Z272LXBNGJZ7SX7CZJ434D11PL3,3,4
228,4,object_07,object_09,872.0,7,1,468.0,0.4444444444444444,1,object_06,1,3155,0,4,6,restaurant_4,2,memory-2step-stake-s,718,3187808,0.0-19.0-0.1-0.228,A1VAL7L9L79IN0,3SA4EMRVKYI00KKCICLEW0FTGRS0PA,3H7Z272LXBNGJZ7SX7CZJ434D11PL3,7,8
229,4,object_09,object_07,603.0,7,2,256.0,0.7777777777777778,1,object_06,5,3190,0,7,3,restaurant_4,2,memory-2step-stake-s,719,3196097,0.0-19.0-0.1-0.229,A1VAL7L9L79IN0,3SA4EMRVKYI00KKCICLEW0FTGRS0PA,3H7Z272LXBNGJZ7SX7CZJ434D11PL3,8,7
230,2,object_03,object_01,698.0,3,1,324.0,0.6666666666666666,1,object_06,1,3196,0,6,2,forest_3,2,memory-2step-stake-s,720,3204329,0.0-19.0-0.1-0.230,A1VAL7L9L79IN0,3SA4EMRVKYI00KKCICLEW0FTGRS0PA,3H7Z272LXBNGJZ7SX7CZJ434D11PL3,3,4
231,3,object_05,object_04,584.0,5,2,74.0,0.7777777777777778,1,object_06,1,3203,0,7,3,library_8,2,memory-2step-stake-s,721,3212429,0.0-19.0-0.1-0.231,A1VAL7L9L79IN0,3SA4EMRVKYI00KKCICLEW0FTGRS0PA,3H7Z272LXBNGJZ7SX7CZJ434D11PL3,6,5
232,1,object_02,object_10,684.0,1,1,305.0,0.6666666666666666,1,object_06,5,3233,0,6,3,desert_5,2,memory-2step-stake-s,722,3220644,0.0-19.0-0.1-0.232,A1VAL7L9L79IN0,3SA4EMRVKYI00KKCICLEW0FTGRS0PA,3H7Z272LXBNGJZ7SX7CZJ434D11PL3,1,2
233,1,object_02,object_10,627.0,1,1,510.0,0.6666666666666666,1,object_06,5,3263,0,6,4,desert_7,2,memory-2step-stake-s,723,3229061,0.0-19.0-0.1-0.233,A1VAL7L9L79IN0,3SA4EMRVKYI00KKCICLEW0FTGRS0PA,3H7Z272LXBNGJZ7SX7CZJ434D11PL3,1,2
234,4,object_09,object_07,522.0,7,2,575.0,0.3333333333333333,1,object_06,1,3266,0,3,7,restaurant_1,2,memory-2step-stake-s,724,3237214,0.0-19.0-0.1-0.234,A1VAL7L9L79IN0,3SA4EMRVKYI00KKCICLEW0FTGRS0PA,3H7Z272LXBNGJZ7SX7CZJ434D11PL3,8,7
235,3,object_05,object_04,970.0,6,1,299.0,0.8888888888888888,2,object_08,5,3306,0,2,8,library_3,2,memory-2step-stake-s,725,3245631,0.0-19.0-0.1-0.235,A1VAL7L9L79IN0,3SA4EMRVKYI00KKCICLEW0FTGRS0PA,3H7Z272LXBNGJZ7SX7CZJ434D11PL3,6,5
236,4,object_07,object_09,750.0,8,2,270.0,0.7777777777777778,2,object_08,5,3341,0,1,7,restaurant_3,2,memory-2step-stake-s,726,3253954,0.0-19.0-0.1-0.236,A1VAL7L9L79IN0,3SA4EMRVKYI00KKCICLEW0FTGRS0PA,3H7Z272LXBNGJZ7SX7CZJ434D11PL3,7,8
237,2,object_01,object_03,988.0,4,1,277.0,0.5555555555555556,2,object_08,5,3366,0,2,5,forest_2,2,memory-2step-stake-s,727,3262042,0.0-19.0-0.1-0.237,A1VAL7L9L79IN0,3SA4EMRVKYI00KKCICLEW0FTGRS0PA,3H7Z272LXBNGJZ7SX7CZJ434D11PL3,4,3
238,2,object_03,object_01,703.0,4,2,288.0,0.5555555555555556,2,object_08,5,3391,0,3,5,forest_2,2,memory-2step-stake-s,728,3270128,0.0-19.0-0.1-0.238,A1VAL7L9L79IN0,3SA4EMRVKYI00KKCICLEW0FTGRS0PA,3H7Z272LXBNGJZ7SX7CZJ434D11PL3,3,4
239,4,object_09,object_07,815.0,7,2,48.0,0.3333333333333333,1,object_06,1,3394,0,3,6,restaurant_8,2,memory-2step-stake-s,729,3277770,0.0-19.0-0.1-0.239,A1VAL7L9L79IN0,3SA4EMRVKYI00KKCICLEW0FTGRS0PA,3H7Z272LXBNGJZ7SX7CZJ434D11PL3,8,7
240,3,object_05,object_04,657.0,5,2,306.0,0.1111111111111111,1,object_06,1,3395,0,1,9,library_1,2,memory-2step-stake-s,730,3285437,0.0-19.0-0.1-0.240,A1VAL7L9L79IN0,3SA4EMRVKYI00KKCICLEW0FTGRS0PA,3H7Z272LXBNGJZ7SX7CZJ434D11PL3,6,5
241,1,object_02,object_10,784.0,1,1,253.0,0.2222222222222222,1,object_06,5,3405,0,2,8,desert_7,2,memory-2step-stake-s,731,3293161,0.0-19.0-0.1-0.241,A1VAL7L9L79IN0,3SA4EMRVKYI00KKCICLEW0FTGRS0PA,3H7Z272LXBNGJZ7SX7CZJ434D11PL3,1,2
242,4,object_09,object_07,738.0,8,1,193.0,0.7777777777777778,2,object_08,5,3440,0,3,7,restaurant_4,2,memory-2step-stake-s,732,3301387,0.0-19.0-0.1-0.242,A1VAL7L9L79IN0,3SA4EMRVKYI00KKCICLEW0FTGRS0PA,3H7Z272LXBNGJZ7SX7CZJ434D11PL3,8,7
243,2,object_01,object_03,767.0,4,1,266.0,1.0,2,object_08,5,3485,0,3,9,forest_3,2,memory-2step-stake-s,733,3309886,0.0-19.0-0.1-0.243,A1VAL7L9L79IN0,3SA4EMRVKYI00KKCICLEW0FTGRS0PA,3H7Z272LXBNGJZ7SX7CZJ434D11PL3,4,3
244,2,object_01,object_03,570.0,4,1,196.0,1.0,2,object_08,5,3530,0,6,9,forest_3,2,memory-2step-stake-s,734,3318319,0.0-19.0-0.1-0.244,A1VAL7L9L79IN0,3SA4EMRVKYI00KKCICLEW0FTGRS0PA,3H7Z272LXBNGJZ7SX7CZJ434D11PL3,4,3
245,1,object_10,object_02,897.0,1,2,346.0,0.6666666666666666,1,object_06,5,3560,0,6,8,desert_6,2,memory-2step-stake-s,735,3326590,0.0-19.0-0.1-0.245,A1VAL7L9L79IN0,3SA4EMRVKYI00KKCICLEW0FTGRS0PA,3H7Z272LXBNGJZ7SX7CZJ434D11PL3,2,1
246,4,object_07,object_09,594.0,8,2,307.0,1.0,2,object_08,1,3569,0,6,9,restaurant_8,2,memory-2step-stake-s,736,3335158,0.0-19.0-0.1-0.246,A1VAL7L9L79IN0,3SA4EMRVKYI00KKCICLEW0FTGRS0PA,3H7Z272LXBNGJZ7SX7CZJ434D11PL3,7,8
247,1,object_10,object_02,1044.0,2,1,327.0,0.7777777777777778,2,object_08,5,3604,0,5,7,desert_6,2,memory-2step-stake-s,737,3343507,0.0-19.0-0.1-0.247,A1VAL7L9L79IN0,3SA4EMRVKYI00KKCICLEW0FTGRS0PA,3H7Z272LXBNGJZ7SX7CZJ434D11PL3,2,1
248,1,object_02,object_10,1089.0,2,2,399.0,0.6666666666666666,2,object_08,5,3634,0,6,6,desert_7,2,memory-2step-stake-s,738,3351820,0.0-19.0-0.1-0.248,A1VAL7L9L79IN0,3SA4EMRVKYI00KKCICLEW0FTGRS0PA,3H7Z272LXBNGJZ7SX7CZJ434D11PL3,1,2
249,3,object_05,object_04,723.0,6,1,293.0,0.8888888888888888,2,object_08,1,3642,0,5,8,library_8,2,memory-2step-stake-s,739,3360249,0.0-19.0-0.1-0.249,A1VAL7L9L79IN0,3SA4EMRVKYI00KKCICLEW0FTGRS0PA,3H7Z272LXBNGJZ7SX7CZJ434D11PL3,6,5
250,3,object_05,object_04,777.0,6,1,575.0,0.5555555555555556,2,object_08,1,3647,0,6,5,library_8,2,memory-2step-stake-s,740,3368622,0.0-19.0-0.1-0.250,A1VAL7L9L79IN0,3SA4EMRVKYI00KKCICLEW0FTGRS0PA,3H7Z272LXBNGJZ7SX7CZJ434D11PL3,6,5
251,2,object_01,object_03,891.0,3,2,319.0,0.2222222222222222,1,object_06,5,3657,0,2,3,forest_5,2,memory-2step-stake-s,741,3376403,0.0-19.0-0.1-0.251,A1VAL7L9L79IN0,3SA4EMRVKYI00KKCICLEW0FTGRS0PA,3H7Z272LXBNGJZ7SX7CZJ434D11PL3,4,3
252,4,object_09,object_07,666.0,8,1,36.0,0.4444444444444444,2,object_08,1,3661,0,0,4,restaurant_8,2,memory-2step-stake-s,742,3384137,0.0-19.0-0.1-0.252,A1VAL7L9L79IN0,3SA4EMRVKYI00KKCICLEW0FTGRS0PA,3H7Z272LXBNGJZ7SX7CZJ434D11PL3,8,7
253,3,object_05,object_04,492.0,5,2,366.0,0.2222222222222222,1,object_06,1,3663,0,2,3,library_8,2,memory-2step-stake-s,743,3391988,0.0-19.0-0.1-0.253,A1VAL7L9L79IN0,3SA4EMRVKYI00KKCICLEW0FTGRS0PA,3H7Z272LXBNGJZ7SX7CZJ434D11PL3,6,5
254,1,object_02,object_10,536.0,1,1,227.0,0.2222222222222222,1,object_06,5,3673,0,2,2,desert_7,2,memory-2step-stake-s,744,3399705,0.0-19.0-0.1-0.254,A1VAL7L9L79IN0,3SA4EMRVKYI00KKCICLEW0FTGRS0PA,3H7Z272LXBNGJZ7SX7CZJ434D11PL3,1,2
255,1,object_10,object_02,851.0,2,1,257.0,0.1111111111111111,2,object_08,5,3678,0,5,1,desert_5,2,memory-2step-stake-s,745,3407334,0.0-19.0-0.1-0.255,A1VAL7L9L79IN0,3SA4EMRVKYI00KKCICLEW0FTGRS0PA,3H7Z272LXBNGJZ7SX7CZJ434D11PL3,2,1
