,state1,stim_left,stim_right,rt_1,choice1,response1,rt_2,points,state2,stim_state2,stake,score,practice,rews1,rews2,background,high_arm,trial_type,trial_index,time_elapsed,internal_node_id,subid,hitid,assignmentid,stim_left_num,stim_right_num
0,2,object_06,object_01,790.5,4,1,-1.0,0.0,2,object_10,1,0,0,2,0,forest_3,1,memory-2step-stake-s,494,960227,0.0-19.0-0.0-0.0,A2VGFS03KCCR1Q,3SNR5F7RA597AOC2DOU98SGLOEGIEB,3S3AMIZX3YLERYAWFLS5GRWS5B1CDH,4,3
1,1,object_04,object_02,939.79999995232,1,2,-1.0,0.0,1,object_03,1,0,0,3,3,desert_8,1,memory-2step-stake-s,495,968815,0.0-19.0-0.0-0.1,A2VGFS03KCCR1Q,3SNR5F7RA597AOC2DOU98SGLOEGIEB,3S3AMIZX3YLERYAWFLS5GRWS5B1CDH,2,1
2,4,object_09,object_07,791.79999995232,7,1,-1.0,0.0,1,object_03,5,0,0,4,4,restaurant_3,1,memory-2step-stake-s,496,977418,0.0-19.0-0.0-0.2,A2VGFS03KCCR1Q,3SNR5F7RA597AOC2DOU98SGLOEGIEB,3S3AMIZX3YLERYAWFLS5GRWS5B1CDH,7,8
3,1,object_04,object_02,793.59999990463,2,1,-1.0,0.0,2,object_10,5,0,0,1,5,desert_8,1,memory-2step-stake-s,497,985998,0.0-19.0-0.0-0.3,A2VGFS03KCCR1Q,3SNR5F7RA597AOC2DOU98SGLOEGIEB,3S3AMIZX3YLERYAWFLS5GRWS5B1CDH,2,1
4,1,object_04,object_02,569.39999997616,1,2,469.39999997616,0.2222222222222222,1,object_03,1,2,0,2,4,desert_8,1,memory-2step-stake-s,498,994015,0.0-19.0-0.0-0.4,A2VGFS03KCCR1Q,3SNR5F7RA597AOC2DOU98SGLOEGIEB,3S3AMIZX3YLERYAWFLS5GRWS5B1CDH,2,1
5,3,object_05,object_08,815.89999997616,5,2,393.20000004768,0.4444444444444444,1,object_03,1,6,0,4,6,library_1,1,memory-2step-stake-s,499,1002131,0.0-19.0-0.0-0.5,A2VGFS03KCCR1Q,3SNR5F7RA597AOC2DOU98SGLOEGIEB,3S3AMIZX3YLERYAWFLS5GRWS5B1CDH,6,5
6,3,object_05,object_08,540.20000004768,6,1,742.39999997616,1.0,2,object_10,5,51,0,6,9,library_6,1,memory-2step-stake-s,500,1011126,0.0-19.0-0.0-0.6,A2VGFS03KCCR1Q,3SNR5F7RA597AOC2DOU98SGLOEGIEB,3S3AMIZX3YLERYAWFLS5GRWS5B1CDH,6,5
7,4,object_09,object_07,617.30000007153,7,1,691.60000002384,0.3333333333333333,1,object_03,5,66,0,3,7,restaurant_1,1,memory-2step-stake-s,501,1019426,0.0-19.0-0.0-0.7,A2VGFS03KCCR1Q,3SNR5F7RA597AOC2DOU98SGLOEGIEB,3S3AMIZX3YLERYAWFLS5GRWS5B1CDH,7,8
8,2,object_06,object_01,572.39999997616,4,1,354.60000002384,0.7777777777777778,2,object_10,5,101,0,4,7,forest_3,1,memory-2step-stake-s,502,1027877,0.0-19.0-0.0-0.8,A2VGFS03KCCR1Q,3SNR5F7RA597AOC2DOU98SGLOEGIEB,3S3AMIZX3YLERYAWFLS5GRWS5B1CDH,4,3
9,4,object_09,object_07,569.10000002384,7,1,314.39999997616,0.4444444444444444,1,object_03,5,121,0,4,7,restaurant_8,1,memory-2step-stake-s,503,1035892,0.0-19.0-0.0-0.9,A2VGFS03KCCR1Q,3SNR5F7RA597AOC2DOU98SGLOEGIEB,3S3AMIZX3YLERYAWFLS5GRWS5B1CDH,7,8
10,2,object_06,object_01,639.10000002384,4,1,273.90000009537,1.0,2,object_10,1,130,0,4,9,forest_8,1,memory-2step-stake-s,504,1044386,0.0-19.0-0.0-0.10,A2VGFS03KCCR1Q,3SNR5F7RA597AOC2DOU98SGLOEGIEB,3S3AMIZX3YLERYAWFLS5GRWS5B1CDH,4,3
11,4,object_09,object_07,686.19999992847,7,1,345.79999995232,0.4444444444444444,1,object_03,5,150,0,4,6,restaurant_5,1,memory-2step-stake-s,505,1052484,0.0-19.0-0.0-0.11,A2VGFS03KCCR1Q,3SNR5F7RA597AOC2DOU98SGLOEGIEB,3S3AMIZX3YLERYAWFLS5GRWS5B1CDH,7,8
12,1,object_02,object_04,931.60000002384,2,2,248.10000002384,0.6666666666666666,2,object_10,1,156,0,4,6,desert_8,1,memory-2step-stake-s,506,1060681,0.0-19.0-0.0-0.12,A2VGFS03KCCR1Q,3SNR5F7RA597AOC2DOU98SGLOEGIEB,3S3AMIZX3YLERYAWFLS5GRWS5B1CDH,1,2
13,2,object_01,object_06,596.59999990463,4,2,311.60000002384,0.4444444444444444,2,object_10,1,160,0,2,4,forest_1,1,memory-2step-stake-s,507,1068729,0.0-19.0-0.0-0.13,A2VGFS03KCCR1Q,3SNR5F7RA597AOC2DOU98SGLOEGIEB,3S3AMIZX3YLERYAWFLS5GRWS5B1CDH,3,4
14,4,object_09,object_07,541.29999995232,7,1,483.20000004768,0.2222222222222222,1,object_03,5,170,0,2,3,restaurant_8,1,memory-2step-stake-s,508,1076728,0.0-19.0-0.0-0.14,A2VGFS03KCCR1Q,3SNR5F7RA597AOC2DOU98SGLOEGIEB,3S3AMIZX3YLERYAWFLS5GRWS5B1CDH,7,8
15,3,object_05,object_08,622.20000004768,5,2,11.0,0.5555555555555556,1,object_03,5,195,0,5,1,library_4,1,memory-2step-stake-s,509,1084604,0.0-19.0-0.0-0.15,A2VGFS03KCCR1Q,3SNR5F7RA597AOC2DOU98SGLOEGIEB,3S3AMIZX3YLERYAWFLS5GRWS5B1CDH,6,5
16,4,object_07,object_09,681.39999997616,7,2,308.59999990463,0.6666666666666666,1,object_03,5,225,0,6,2,restaurant_5,1,memory-2step-stake-s,510,1092799,0.0-19.0-0.0-0.16,A2VGFS03KCCR1Q,3SNR5F7RA597AOC2DOU98SGLOEGIEB,3S3AMIZX3YLERYAWFLS5GRWS5B1CDH,8,7
17,2,object_01,object_06,815.69999992847,3,1,320.5,0.7777777777777778,1,object_03,1,232,0,7,4,forest_3,1,memory-2step-stake-s,511,1101173,0.0-19.0-0.0-0.17,A2VGFS03KCCR1Q,3SNR5F7RA597AOC2DOU98SGLOEGIEB,3S3AMIZX3YLERYAWFLS5GRWS5B1CDH,3,4
18,4,object_09,object_07,973.69999992847,7,1,287.29999995232,0.8888888888888888,1,object_03,5,272,0,8,4,restaurant_1,1,memory-2step-stake-s,512,1109664,0.0-19.0-0.0-0.18,A2VGFS03KCCR1Q,3SNR5F7RA597AOC2DOU98SGLOEGIEB,3S3AMIZX3YLERYAWFLS5GRWS5B1CDH,7,8
19,2,object_01,object_06,698.5,3,1,473.19999992847,0.7777777777777778,1,object_03,1,279,0,7,1,forest_1,1,memory-2step-stake-s,513,1118278,0.0-19.0-0.0-0.19,A2VGFS03KCCR1Q,3SNR5F7RA597AOC2DOU98SGLOEGIEB,3S3AMIZX3YLERYAWFLS5GRWS5B1CDH,3,4
20,3,object_08,object_05,762.79999995232,6,2,635.29999995232,0.3333333333333333,2,object_10,5,294,0,7,3,library_4,1,memory-2step-stake-s,514,1126548,0.0-19.0-0.0-0.20,A2VGFS03KCCR1Q,3SNR5F7RA597AOC2DOU98SGLOEGIEB,3S3AMIZX3YLERYAWFLS5GRWS5B1CDH,5,6
21,3,object_08,object_05,794.79999995232,5,1,288.30000007153,0.6666666666666666,1,object_03,5,324,0,6,5,library_6,1,memory-2step-stake-s,515,1134795,0.0-19.0-0.0-0.21,A2VGFS03KCCR1Q,3SNR5F7RA597AOC2DOU98SGLOEGIEB,3S3AMIZX3YLERYAWFLS5GRWS5B1CDH,5,6
22,1,object_02,object_04,725.10000002384,2,2,317.5,0.5555555555555556,2,object_10,1,329,0,9,5,desert_2,1,memory-2step-stake-s,516,1142956,0.0-19.0-0.0-0.22,A2VGFS03KCCR1Q,3SNR5F7RA597AOC2DOU98SGLOEGIEB,3S3AMIZX3YLERYAWFLS5GRWS5B1CDH,1,2
23,3,object_05,object_08,786.39999997616,5,2,219.0,0.7777777777777778,1,object_03,1,336,0,7,6,library_3,1,memory-2step-stake-s,517,1151245,0.0-19.0-0.0-0.23,A2VGFS03KCCR1Q,3SNR5F7RA597AOC2DOU98SGLOEGIEB,3S3AMIZX3YLERYAWFLS5GRWS5B1CDH,6,5
24,1,object_02,object_04,656.40000009537,2,2,458.89999997616,0.8888888888888888,2,object_10,1,344,0,2,8,desert_8,1,memory-2step-stake-s,518,1159833,0.0-19.0-0.0-0.24,A2VGFS03KCCR1Q,3SNR5F7RA597AOC2DOU98SGLOEGIEB,3S3AMIZX3YLERYAWFLS5GRWS5B1CDH,1,2
25,3,object_08,object_05,816.5,5,1,356.09999990463,0.0,1,object_03,5,344,0,0,6,library_3,1,memory-2step-stake-s,519,1167494,0.0-19.0-0.0-0.25,A2VGFS03KCCR1Q,3SNR5F7RA597AOC2DOU98SGLOEGIEB,3S3AMIZX3YLERYAWFLS5GRWS5B1CDH,5,6
26,2,object_06,object_01,666.29999995232,3,2,338.29999995232,0.2222222222222222,1,object_03,1,346,0,2,8,forest_3,1,memory-2step-stake-s,520,1175325,0.0-19.0-0.0-0.26,A2VGFS03KCCR1Q,3SNR5F7RA597AOC2DOU98SGLOEGIEB,3S3AMIZX3YLERYAWFLS5GRWS5B1CDH,4,3
27,3,object_08,object_05,795.09999990463,5,1,266.79999995232,0.2222222222222222,1,object_03,1,348,0,2,8,library_4,1,memory-2step-stake-s,521,1183102,0.0-19.0-0.0-0.27,A2VGFS03KCCR1Q,3SNR5F7RA597AOC2DOU98SGLOEGIEB,3S3AMIZX3YLERYAWFLS5GRWS5B1CDH,5,6
28,2,object_01,object_06,746.0,3,1,283.29999995232,0.3333333333333333,1,object_03,1,351,0,3,9,forest_8,1,memory-2step-stake-s,522,1191002,0.0-19.0-0.0-0.28,A2VGFS03KCCR1Q,3SNR5F7RA597AOC2DOU98SGLOEGIEB,3S3AMIZX3YLERYAWFLS5GRWS5B1CDH,3,4
29,3,object_05,object_08,917.60000002384,6,1,330.0,0.7777777777777778,2,object_10,5,386,0,2,7,library_6,1,memory-2step-stake-s,523,1199434,0.0-19.0-0.0-0.29,A2VGFS03KCCR1Q,3SNR5F7RA597AOC2DOU98SGLOEGIEB,3S3AMIZX3YLERYAWFLS5GRWS5B1CDH,6,5
30,4,object_09,object_07,748.39999997616,8,2,273.39999997616,1.0,2,object_10,5,431,0,1,9,restaurant_1,1,memory-2step-stake-s,524,1208033,0.0-19.0-0.0-0.30,A2VGFS03KCCR1Q,3SNR5F7RA597AOC2DOU98SGLOEGIEB,3S3AMIZX3YLERYAWFLS5GRWS5B1CDH,7,8
31,4,object_07,object_09,902.30000007153,8,1,383.10000002384,1.0,2,object_10,5,476,0,1,9,restaurant_8,1,memory-2step-stake-s,525,1216748,0.0-19.0-0.0-0.31,A2VGFS03KCCR1Q,3SNR5F7RA597AOC2DOU98SGLOEGIEB,3S3AMIZX3YLERYAWFLS5GRWS5B1CDH,8,7
32,2,object_06,object_01,826.29999995232,3,2,275.20000004768,0.2222222222222222,1,object_03,1,478,0,2,8,forest_2,1,memory-2step-stake-s,526,1224557,0.0-19.0-0.0-0.32,A2VGFS03KCCR1Q,3SNR5F7RA597AOC2DOU98SGLOEGIEB,3S3AMIZX3YLERYAWFLS5GRWS5B1CDH,4,3
33,2,object_01,object_06,801.10000002384,4,2,299.0,0.6666666666666666,2,object_10,5,508,0,0,6,forest_1,1,memory-2step-stake-s,527,1232812,0.0-19.0-0.0-0.33,A2VGFS03KCCR1Q,3SNR5F7RA597AOC2DOU98SGLOEGIEB,3S3AMIZX3YLERYAWFLS5GRWS5B1CDH,3,4
34,2,object_06,object_01,618.60000002384,4,1,484.39999997616,0.4444444444444444,2,object_10,1,512,0,1,4,forest_1,1,memory-2step-stake-s,528,1241043,0.0-19.0-0.0-0.34,A2VGFS03KCCR1Q,3SNR5F7RA597AOC2DOU98SGLOEGIEB,3S3AMIZX3YLERYAWFLS5GRWS5B1CDH,4,3
35,2,object_01,object_06,635.19999992847,4,2,283.5,0.5555555555555556,2,object_10,1,517,0,1,5,forest_1,1,memory-2step-stake-s,529,1249176,0.0-19.0-0.0-0.35,A2VGFS03KCCR1Q,3SNR5F7RA597AOC2DOU98SGLOEGIEB,3S3AMIZX3YLERYAWFLS5GRWS5B1CDH,3,4
36,3,object_05,object_08,1044.3999999762,6,1,254.90000009537,0.5555555555555556,2,object_10,1,522,0,1,5,library_4,1,memory-2step-stake-s,530,1257284,0.0-19.0-0.0-0.36,A2VGFS03KCCR1Q,3SNR5F7RA597AOC2DOU98SGLOEGIEB,3S3AMIZX3YLERYAWFLS5GRWS5B1CDH,6,5
37,4,object_07,object_09,690.89999997616,8,1,222.89999997616,0.5555555555555556,2,object_10,5,547,0,3,5,restaurant_3,1,memory-2step-stake-s,531,1265396,0.0-19.0-0.0-0.37,A2VGFS03KCCR1Q,3SNR5F7RA597AOC2DOU98SGLOEGIEB,3S3AMIZX3YLERYAWFLS5GRWS5B1CDH,8,7
38,4,object_07,object_09,716.79999995232,8,1,412.69999992847,0.6666666666666666,2,object_10,5,577,0,5,6,restaurant_1,1,memory-2step-stake-s,532,1273765,0.0-19.0-0.0-0.38,A2VGFS03KCCR1Q,3SNR5F7RA597AOC2DOU98SGLOEGIEB,3S3AMIZX3YLERYAWFLS5GRWS5B1CDH,8,7
39,1,object_02,object_04,717.09999990463,1,1,234.19999992847,0.5555555555555556,1,object_03,1,582,0,5,5,desert_1,1,memory-2step-stake-s,533,1281815,0.0-19.0-0.0-0.39,A2VGFS03KCCR1Q,3SNR5F7RA597AOC2DOU98SGLOEGIEB,3S3AMIZX3YLERYAWFLS5GRWS5B1CDH,1,2
40,2,object_06,object_01,716.79999995232,3,2,333.70000004768,0.5555555555555556,1,object_03,1,587,0,5,2,forest_3,1,memory-2step-stake-s,534,1289996,0.0-19.0-0.0-0.40,A2VGFS03KCCR1Q,3SNR5F7RA597AOC2DOU98SGLOEGIEB,3S3AMIZX3YLERYAWFLS5GRWS5B1CDH,4,3
41,3,object_05,object_08,811.79999995232,6,1,474.19999992847,0.0,2,object_10,5,587,0,5,0,library_6,1,memory-2step-stake-s,535,1297770,0.0-19.0-0.0-0.41,A2VGFS03KCCR1Q,3SNR5F7RA597AOC2DOU98SGLOEGIEB,3S3AMIZX3YLERYAWFLS5GRWS5B1CDH,6,5
42,2,object_01,object_06,807.0,4,2,436.0,0.1111111111111111,2,object_10,1,588,0,5,1,forest_8,1,memory-2step-stake-s,536,1305615,0.0-19.0-0.0-0.42,A2VGFS03KCCR1Q,3SNR5F7RA597AOC2DOU98SGLOEGIEB,3S3AMIZX3YLERYAWFLS5GRWS5B1CDH,3,4
43,3,object_08,object_05,696.5,5,1,404.0,0.2222222222222222,1,object_03,5,598,0,2,0,library_6,1,memory-2step-stake-s,537,1313514,0.0-19.0-0.0-0.43,A2VGFS03KCCR1Q,3SNR5F7RA597AOC2DOU98SGLOEGIEB,3S3AMIZX3YLERYAWFLS5GRWS5B1CDH,5,6
44,2,object_06,object_01,843.70000004768,4,1,347.69999992847,0.1111111111111111,2,object_10,5,603,0,1,1,forest_3,1,memory-2step-stake-s,538,1321259,0.0-19.0-0.0-0.44,A2VGFS03KCCR1Q,3SNR5F7RA597AOC2DOU98SGLOEGIEB,3S3AMIZX3YLERYAWFLS5GRWS5B1CDH,4,3
45,3,object_08,object_05,826.69999992847,6,2,260.80000007153,0.1111111111111111,2,object_10,5,608,0,0,1,library_4,1,memory-2step-stake-s,539,1328944,0.0-19.0-0.0-0.45,A2VGFS03KCCR1Q,3SNR5F7RA597AOC2DOU98SGLOEGIEB,3S3AMIZX3YLERYAWFLS5GRWS5B1CDH,5,6
46,1,object_04,object_02,1363.8000000715,2,1,216.90000009537,0.2222222222222222,2,object_10,1,610,0,1,2,desert_7,1,memory-2step-stake-s,540,1336663,0.0-19.0-0.0-0.46,A2VGFS03KCCR1Q,3SNR5F7RA597AOC2DOU98SGLOEGIEB,3S3AMIZX3YLERYAWFLS5GRWS5B1CDH,2,1
47,1,object_04,object_02,543.20000004768,1,2,282.69999992847,0.1111111111111111,1,object_03,5,615,0,1,4,desert_7,1,memory-2step-stake-s,541,1344324,0.0-19.0-0.0-0.47,A2VGFS03KCCR1Q,3SNR5F7RA597AOC2DOU98SGLOEGIEB,3S3AMIZX3YLERYAWFLS5GRWS5B1CDH,2,1
48,4,object_09,object_07,726.0,8,2,264.89999997616,0.2222222222222222,2,object_10,5,625,0,2,2,restaurant_1,1,memory-2step-stake-s,542,1352113,0.0-19.0-0.0-0.48,A2VGFS03KCCR1Q,3SNR5F7RA597AOC2DOU98SGLOEGIEB,3S3AMIZX3YLERYAWFLS5GRWS5B1CDH,7,8
49,1,object_02,object_04,1054.4000000954,2,2,429.10000002384,0.2222222222222222,2,object_10,1,627,0,2,2,desert_8,1,memory-2step-stake-s,543,1360058,0.0-19.0-0.0-0.49,A2VGFS03KCCR1Q,3SNR5F7RA597AOC2DOU98SGLOEGIEB,3S3AMIZX3YLERYAWFLS5GRWS5B1CDH,1,2
50,2,object_06,object_01,923.79999995232,3,2,288.10000002384,0.2222222222222222,1,object_03,1,629,0,2,2,forest_2,1,memory-2step-stake-s,544,1367870,0.0-19.0-0.0-0.50,A2VGFS03KCCR1Q,3SNR5F7RA597AOC2DOU98SGLOEGIEB,3S3AMIZX3YLERYAWFLS5GRWS5B1CDH,4,3
51,2,object_01,object_06,1024.0,3,1,232.40000009537,0.2222222222222222,1,object_03,1,631,0,2,2,forest_2,1,memory-2step-stake-s,545,1375600,0.0-19.0-0.0-0.51,A2VGFS03KCCR1Q,3SNR5F7RA597AOC2DOU98SGLOEGIEB,3S3AMIZX3YLERYAWFLS5GRWS5B1CDH,3,4
52,4,object_07,object_09,685.80000007153,8,1,324.69999992847,0.2222222222222222,2,object_10,1,633,0,0,2,restaurant_1,1,memory-2step-stake-s,546,1383461,0.0-19.0-0.0-0.52,A2VGFS03KCCR1Q,3SNR5F7RA597AOC2DOU98SGLOEGIEB,3S3AMIZX3YLERYAWFLS5GRWS5B1CDH,8,7
53,4,object_07,object_09,857.30000007153,7,2,251.0,0.1111111111111111,1,object_03,1,634,0,1,2,restaurant_1,1,memory-2step-stake-s,547,1391105,0.0-19.0-0.0-0.53,A2VGFS03KCCR1Q,3SNR5F7RA597AOC2DOU98SGLOEGIEB,3S3AMIZX3YLERYAWFLS5GRWS5B1CDH,8,7
54,3,object_08,object_05,863.40000009537,5,1,357.89999997616,0.0,1,object_03,5,634,0,0,2,library_6,1,memory-2step-stake-s,548,1398765,0.0-19.0-0.0-0.54,A2VGFS03KCCR1Q,3SNR5F7RA597AOC2DOU98SGLOEGIEB,3S3AMIZX3YLERYAWFLS5GRWS5B1CDH,5,6
55,2,object_01,object_06,1217.6999999285,4,2,258.30000007153,0.4444444444444444,2,object_10,5,654,0,1,4,forest_3,1,memory-2step-stake-s,549,1406750,0.0-19.0-0.0-0.55,A2VGFS03KCCR1Q,3SNR5F7RA597AOC2DOU98SGLOEGIEB,3S3AMIZX3YLERYAWFLS5GRWS5B1CDH,3,4
56,1,object_02,object_04,752.40000009537,2,2,287.30000007153,0.7777777777777778,2,object_10,1,661,0,1,7,desert_1,1,memory-2step-stake-s,550,1415111,0.0-19.0-0.0-0.56,A2VGFS03KCCR1Q,3SNR5F7RA597AOC2DOU98SGLOEGIEB,3S3AMIZX3YLERYAWFLS5GRWS5B1CDH,1,2
57,4,object_09,object_07,945.29999995232,7,1,244.5,0.3333333333333333,1,object_03,5,676,0,3,7,restaurant_3,1,memory-2step-stake-s,551,1422978,0.0-19.0-0.0-0.57,A2VGFS03KCCR1Q,3SNR5F7RA597AOC2DOU98SGLOEGIEB,3S3AMIZX3YLERYAWFLS5GRWS5B1CDH,7,8
58,4,object_09,object_07,938.70000004768,7,1,530.59999990463,0.3333333333333333,1,object_03,5,691,0,3,7,restaurant_1,1,memory-2step-stake-s,552,1431111,0.0-19.0-0.0-0.58,A2VGFS03KCCR1Q,3SNR5F7RA597AOC2DOU98SGLOEGIEB,3S3AMIZX3YLERYAWFLS5GRWS5B1CDH,7,8
59,4,object_07,object_09,726.70000004768,8,1,376.89999997616,0.7777777777777778,2,object_10,5,726,0,4,7,restaurant_8,1,memory-2step-stake-s,553,1439590,0.0-19.0-0.0-0.59,A2VGFS03KCCR1Q,3SNR5F7RA597AOC2DOU98SGLOEGIEB,3S3AMIZX3YLERYAWFLS5GRWS5B1CDH,8,7
60,3,object_05,object_08,992.60000002384,6,1,275.10000002384,0.1111111111111111,2,object_10,5,731,0,4,1,library_6,1,memory-2step-stake-s,554,1447233,0.0-19.0-0.0-0.60,A2VGFS03KCCR1Q,3SNR5F7RA597AOC2DOU98SGLOEGIEB,3S3AMIZX3YLERYAWFLS5GRWS5B1CDH,6,5
61,3,object_08,object_05,-1.0,-1,-1,-1.0,0.0,-,0,5,731,0,6,2,library_6,1,memory-2step-stake-s,555,1453818,0.0-19.0-0.0-0.61,A2VGFS03KCCR1Q,3SNR5F7RA597AOC2DOU98SGLOEGIEB,3S3AMIZX3YLERYAWFLS5GRWS5B1CDH,5,6
62,2,object_06,object_01,495.0,3,2,322.60000002384,1.0,1,object_03,5,776,0,9,4,forest_2,1,memory-2step-stake-s,556,1462385,0.0-19.0-0.0-0.62,A2VGFS03KCCR1Q,3SNR5F7RA597AOC2DOU98SGLOEGIEB,3S3AMIZX3YLERYAWFLS5GRWS5B1CDH,4,3
63,4,object_07,object_09,673.0,7,2,404.29999995232,0.7777777777777778,1,object_03,1,783,0,7,6,restaurant_5,1,memory-2step-stake-s,557,1470838,0.0-19.0-0.0-0.63,A2VGFS03KCCR1Q,3SNR5F7RA597AOC2DOU98SGLOEGIEB,3S3AMIZX3YLERYAWFLS5GRWS5B1CDH,8,7
64,2,object_01,object_06,752.89999997616,4,2,965.10000002384,0.7777777777777778,2,object_10,1,790,0,5,7,forest_2,1,memory-2step-stake-s,558,1479855,0.0-19.0-0.0-0.64,A2VGFS03KCCR1Q,3SNR5F7RA597AOC2DOU98SGLOEGIEB,3S3AMIZX3YLERYAWFLS5GRWS5B1CDH,3,4
65,3,object_05,object_08,734.89999997616,6,1,331.29999995232,0.5555555555555556,2,object_10,5,815,0,4,5,library_1,1,memory-2step-stake-s,559,1488070,0.0-19.0-0.0-0.65,A2VGFS03KCCR1Q,3SNR5F7RA597AOC2DOU98SGLOEGIEB,3S3AMIZX3YLERYAWFLS5GRWS5B1CDH,6,5
66,2,object_06,object_01,711.10000002384,3,2,309.10000002384,0.6666666666666666,1,object_03,1,821,0,6,4,forest_3,1,memory-2step-stake-s,560,1496348,0.0-19.0-0.0-0.66,A2VGFS03KCCR1Q,3SNR5F7RA597AOC2DOU98SGLOEGIEB,3S3AMIZX3YLERYAWFLS5GRWS5B1CDH,4,3
67,3,object_05,object_08,771.40000009537,6,1,461.89999997616,0.3333333333333333,2,object_10,5,836,0,5,3,library_4,1,memory-2step-stake-s,561,1504461,0.0-19.0-0.0-0.67,A2VGFS03KCCR1Q,3SNR5F7RA597AOC2DOU98SGLOEGIEB,3S3AMIZX3YLERYAWFLS5GRWS5B1CDH,6,5
68,1,object_04,object_02,577.20000004768,1,2,419.60000002384,1.0,1,object_03,1,845,0,9,5,desert_1,1,memory-2step-stake-s,562,1513116,0.0-19.0-0.0-0.68,A2VGFS03KCCR1Q,3SNR5F7RA597AOC2DOU98SGLOEGIEB,3S3AMIZX3YLERYAWFLS5GRWS5B1CDH,2,1
69,4,object_07,object_09,632.70000004768,7,2,411.39999997616,1.0,1,object_03,5,890,0,9,2,restaurant_8,1,memory-2step-stake-s,563,1521774,0.0-19.0-0.0-0.69,A2VGFS03KCCR1Q,3SNR5F7RA597AOC2DOU98SGLOEGIEB,3S3AMIZX3YLERYAWFLS5GRWS5B1CDH,8,7
70,4,object_07,object_09,538.80000007153,7,2,385.5,1.0,1,object_03,5,935,0,9,2,restaurant_8,1,memory-2step-stake-s,564,1530480,0.0-19.0-0.0-0.70,A2VGFS03KCCR1Q,3SNR5F7RA597AOC2DOU98SGLOEGIEB,3S3AMIZX3YLERYAWFLS5GRWS5B1CDH,8,7
71,1,object_02,object_04,702.60000002384,1,1,369.39999997616,0.5555555555555556,1,object_03,1,940,0,5,3,desert_1,1,memory-2step-stake-s,565,1538687,0.0-19.0-0.0-0.71,A2VGFS03KCCR1Q,3SNR5F7RA597AOC2DOU98SGLOEGIEB,3S3AMIZX3YLERYAWFLS5GRWS5B1CDH,1,2
72,4,object_09,object_07,608.5,7,1,838.60000002384,0.5555555555555556,1,object_03,5,965,0,5,4,restaurant_5,1,memory-2step-stake-s,566,1547389,0.0-19.0-0.0-0.72,A2VGFS03KCCR1Q,3SNR5F7RA597AOC2DOU98SGLOEGIEB,3S3AMIZX3YLERYAWFLS5GRWS5B1CDH,7,8
73,4,object_07,object_09,696.5,7,2,558.39999997616,0.3333333333333333,1,object_03,5,980,0,3,2,restaurant_1,1,memory-2step-stake-s,567,1555590,0.0-19.0-0.0-0.73,A2VGFS03KCCR1Q,3SNR5F7RA597AOC2DOU98SGLOEGIEB,3S3AMIZX3YLERYAWFLS5GRWS5B1CDH,8,7
74,4,object_07,object_09,551.70000004768,8,1,332.0,0.1111111111111111,2,object_10,5,985,0,1,1,restaurant_5,1,memory-2step-stake-s,568,1563320,0.0-19.0-0.0-0.74,A2VGFS03KCCR1Q,3SNR5F7RA597AOC2DOU98SGLOEGIEB,3S3AMIZX3YLERYAWFLS5GRWS5B1CDH,8,7
75,1,object_02,object_04,629.60000002384,1,1,433.70000004768,0.0,1,object_03,5,985,0,0,1,desert_8,1,memory-2step-stake-s,569,1571045,0.0-19.0-0.0-0.75,A2VGFS03KCCR1Q,3SNR5F7RA597AOC2DOU98SGLOEGIEB,3S3AMIZX3YLERYAWFLS5GRWS5B1CDH,1,2
76,3,object_08,object_05,789.5,5,1,620.10000002384,0.1111111111111111,1,object_03,5,990,0,1,1,library_1,1,memory-2step-stake-s,570,1579053,0.0-19.0-0.0-0.76,A2VGFS03KCCR1Q,3SNR5F7RA597AOC2DOU98SGLOEGIEB,3S3AMIZX3YLERYAWFLS5GRWS5B1CDH,5,6
77,1,object_04,object_02,431.0,2,1,239.29999995232,0.1111111111111111,2,object_10,1,991,0,2,1,desert_1,1,memory-2step-stake-s,571,1586696,0.0-19.0-0.0-0.77,A2VGFS03KCCR1Q,3SNR5F7RA597AOC2DOU98SGLOEGIEB,3S3AMIZX3YLERYAWFLS5GRWS5B1CDH,2,1
78,3,object_05,object_08,679.10000002384,5,2,452.89999997616,0.4444444444444444,1,object_03,5,1011,0,4,4,library_3,1,memory-2step-stake-s,572,1594891,0.0-19.0-0.0-0.78,A2VGFS03KCCR1Q,3SNR5F7RA597AOC2DOU98SGLOEGIEB,3S3AMIZX3YLERYAWFLS5GRWS5B1CDH,6,5
79,4,object_09,object_07,819.79999995232,8,2,265.39999997616,0.6666666666666666,2,object_10,5,1041,0,3,6,restaurant_3,1,memory-2step-stake-s,573,1603133,0.0-19.0-0.0-0.79,A2VGFS03KCCR1Q,3SNR5F7RA597AOC2DOU98SGLOEGIEB,3S3AMIZX3YLERYAWFLS5GRWS5B1CDH,7,8
80,1,object_04,object_02,654.70000004768,1,2,383.89999997616,0.3333333333333333,1,object_03,5,1056,0,3,3,desert_1,1,memory-2step-stake-s,574,1611148,0.0-19.0-0.0-0.80,A2VGFS03KCCR1Q,3SNR5F7RA597AOC2DOU98SGLOEGIEB,3S3AMIZX3YLERYAWFLS5GRWS5B1CDH,2,1
81,4,object_07,object_09,711.5,7,2,256.79999995232,0.1111111111111111,1,object_03,1,1057,0,1,2,restaurant_3,1,memory-2step-stake-s,575,1618794,0.0-19.0-0.0-0.81,A2VGFS03KCCR1Q,3SNR5F7RA597AOC2DOU98SGLOEGIEB,3S3AMIZX3YLERYAWFLS5GRWS5B1CDH,8,7
82,3,object_08,object_05,722.29999995232,5,1,380.20000004768,0.1111111111111111,1,object_03,5,1062,0,1,1,library_6,1,memory-2step-stake-s,576,1626589,0.0-19.0-0.0-0.82,A2VGFS03KCCR1Q,3SNR5F7RA597AOC2DOU98SGLOEGIEB,3S3AMIZX3YLERYAWFLS5GRWS5B1CDH,5,6
83,1,object_04,object_02,719.30000007153,1,2,244.39999997616,0.0,1,object_03,1,1062,0,0,1,desert_7,1,memory-2step-stake-s,577,1634118,0.0-19.0-0.0-0.83,A2VGFS03KCCR1Q,3SNR5F7RA597AOC2DOU98SGLOEGIEB,3S3AMIZX3YLERYAWFLS5GRWS5B1CDH,2,1
84,4,object_09,object_07,806.29999995232,8,2,240.30000007153,0.0,2,object_10,1,1062,0,2,0,restaurant_3,1,memory-2step-stake-s,578,1641648,0.0-19.0-0.0-0.84,A2VGFS03KCCR1Q,3SNR5F7RA597AOC2DOU98SGLOEGIEB,3S3AMIZX3YLERYAWFLS5GRWS5B1CDH,7,8
85,2,object_01,object_06,804.19999992847,3,1,285.0,0.5555555555555556,1,object_03,1,1067,0,5,3,forest_1,1,memory-2step-stake-s,579,1649779,0.0-19.0-0.0-0.85,A2VGFS03KCCR1Q,3SNR5F7RA597AOC2DOU98SGLOEGIEB,3S3AMIZX3YLERYAWFLS5GRWS5B1CDH,3,4
86,3,object_08,object_05,890.89999997616,5,1,311.60000002384,0.4444444444444444,1,object_03,5,1087,0,4,2,library_3,1,memory-2step-stake-s,580,1657842,0.0-19.0-0.0-0.86,A2VGFS03KCCR1Q,3SNR5F7RA597AOC2DOU98SGLOEGIEB,3S3AMIZX3YLERYAWFLS5GRWS5B1CDH,5,6
87,1,object_04,object_02,869.79999995232,2,1,353.10000002384,0.3333333333333333,2,object_10,1,1090,0,2,3,desert_2,1,memory-2step-stake-s,581,1665837,0.0-19.0-0.0-0.87,A2VGFS03KCCR1Q,3SNR5F7RA597AOC2DOU98SGLOEGIEB,3S3AMIZX3YLERYAWFLS5GRWS5B1CDH,2,1
88,3,object_08,object_05,801.39999997616,6,2,593.69999992847,0.2222222222222222,2,object_10,1,1092,0,4,2,library_6,1,memory-2step-stake-s,582,1673946,0.0-19.0-0.0-0.88,A2VGFS03KCCR1Q,3SNR5F7RA597AOC2DOU98SGLOEGIEB,3S3AMIZX3YLERYAWFLS5GRWS5B1CDH,5,6
89,4,object_07,object_09,805.0,8,1,348.10000002384,0.2222222222222222,2,object_10,5,1102,0,3,2,restaurant_5,1,memory-2step-stake-s,583,1681800,0.0-19.0-0.0-0.89,A2VGFS03KCCR1Q,3SNR5F7RA597AOC2DOU98SGLOEGIEB,3S3AMIZX3YLERYAWFLS5GRWS5B1CDH,8,7
90,2,object_06,object_01,862.19999992847,4,1,502.79999995232,0.5555555555555556,2,object_10,5,1127,0,5,5,forest_1,1,memory-2step-stake-s,584,1690147,0.0-19.0-0.0-0.90,A2VGFS03KCCR1Q,3SNR5F7RA597AOC2DOU98SGLOEGIEB,3S3AMIZX3YLERYAWFLS5GRWS5B1CDH,4,3
91,4,object_09,object_07,773.70000004768,8,2,-1.0,0.0,2,object_10,1,1127,0,4,3,restaurant_5,1,memory-2step-stake-s,585,1698741,0.0-19.0-0.0-0.91,A2VGFS03KCCR1Q,3SNR5F7RA597AOC2DOU98SGLOEGIEB,3S3AMIZX3YLERYAWFLS5GRWS5B1CDH,7,8
92,1,object_04,object_02,342.19999992847,2,1,527.20000004768,0.3333333333333333,2,object_10,1,1130,0,4,3,desert_7,1,memory-2step-stake-s,586,1706859,0.0-19.0-0.0-0.92,A2VGFS03KCCR1Q,3SNR5F7RA597AOC2DOU98SGLOEGIEB,3S3AMIZX3YLERYAWFLS5GRWS5B1CDH,2,1
93,3,object_05,object_08,227.19999992847,5,2,379.5,0.4444444444444444,1,object_03,5,1150,0,4,5,library_4,1,memory-2step-stake-s,587,1714989,0.0-19.0-0.0-0.93,A2VGFS03KCCR1Q,3SNR5F7RA597AOC2DOU98SGLOEGIEB,3S3AMIZX3YLERYAWFLS5GRWS5B1CDH,6,5
94,2,object_01,object_06,731.30000007153,4,2,354.90000009537,0.5555555555555556,2,object_10,1,1155,0,5,5,forest_3,1,memory-2step-stake-s,588,1723220,0.0-19.0-0.0-0.94,A2VGFS03KCCR1Q,3SNR5F7RA597AOC2DOU98SGLOEGIEB,3S3AMIZX3YLERYAWFLS5GRWS5B1CDH,3,4
95,2,object_06,object_01,728.89999997616,4,1,561.60000002384,0.7777777777777778,2,object_10,1,1162,0,7,7,forest_8,1,memory-2step-stake-s,589,1731868,0.0-19.0-0.0-0.95,A2VGFS03KCCR1Q,3SNR5F7RA597AOC2DOU98SGLOEGIEB,3S3AMIZX3YLERYAWFLS5GRWS5B1CDH,4,3
96,4,object_09,object_07,937.09999990463,8,2,320.79999995232,1.0,2,object_10,5,1207,0,8,9,restaurant_3,1,memory-2step-stake-s,590,1740500,0.0-19.0-0.0-0.96,A2VGFS03KCCR1Q,3SNR5F7RA597AOC2DOU98SGLOEGIEB,3S3AMIZX3YLERYAWFLS5GRWS5B1CDH,7,8
97,1,object_04,object_02,683.0,2,1,318.59999990463,0.6666666666666666,2,object_10,1,1213,0,2,6,desert_2,1,memory-2step-stake-s,591,1748798,0.0-19.0-0.0-0.97,A2VGFS03KCCR1Q,3SNR5F7RA597AOC2DOU98SGLOEGIEB,3S3AMIZX3YLERYAWFLS5GRWS5B1CDH,2,1
98,1,object_04,object_02,951.0,2,1,314.79999995232,0.4444444444444444,2,object_10,1,1217,0,2,4,desert_7,1,memory-2step-stake-s,592,1756862,0.0-19.0-0.0-0.98,A2VGFS03KCCR1Q,3SNR5F7RA597AOC2DOU98SGLOEGIEB,3S3AMIZX3YLERYAWFLS5GRWS5B1CDH,2,1
99,4,object_09,object_07,622.0,7,1,276.79999995232,0.5555555555555556,1,object_03,5,1242,0,5,2,restaurant_5,1,memory-2step-stake-s,593,1764977,0.0-19.0-0.0-0.99,A2VGFS03KCCR1Q,3SNR5F7RA597AOC2DOU98SGLOEGIEB,3S3AMIZX3YLERYAWFLS5GRWS5B1CDH,7,8
100,1,object_04,object_02,822.5,2,1,711.0,0.7777777777777778,2,object_10,1,1249,0,6,7,desert_1,1,memory-2step-stake-s,594,1773770,0.0-19.0-0.0-0.100,A2VGFS03KCCR1Q,3SNR5F7RA597AOC2DOU98SGLOEGIEB,3S3AMIZX3YLERYAWFLS5GRWS5B1CDH,2,1
101,2,object_01,object_06,549.60000002384,4,2,405.10000002384,0.4444444444444444,2,object_10,1,1253,0,7,4,forest_2,1,memory-2step-stake-s,595,1781901,0.0-19.0-0.0-0.101,A2VGFS03KCCR1Q,3SNR5F7RA597AOC2DOU98SGLOEGIEB,3S3AMIZX3YLERYAWFLS5GRWS5B1CDH,3,4
102,3,object_08,object_05,761.5,6,2,273.40000009537,0.2222222222222222,2,object_10,5,1263,0,7,2,library_4,1,memory-2step-stake-s,596,1789702,0.0-19.0-0.0-0.102,A2VGFS03KCCR1Q,3SNR5F7RA597AOC2DOU98SGLOEGIEB,3S3AMIZX3YLERYAWFLS5GRWS5B1CDH,5,6
103,4,object_07,object_09,720.60000002384,7,2,331.70000004768,0.7777777777777778,1,object_03,5,1298,0,7,4,restaurant_8,1,memory-2step-stake-s,597,1798147,0.0-19.0-0.0-0.103,A2VGFS03KCCR1Q,3SNR5F7RA597AOC2DOU98SGLOEGIEB,3S3AMIZX3YLERYAWFLS5GRWS5B1CDH,8,7
104,3,object_08,object_05,868.79999995232,6,2,263.80000007153,0.6666666666666666,2,object_10,5,1328,0,9,6,library_3,1,memory-2step-stake-s,598,1806416,0.0-19.0-0.0-0.104,A2VGFS03KCCR1Q,3SNR5F7RA597AOC2DOU98SGLOEGIEB,3S3AMIZX3YLERYAWFLS5GRWS5B1CDH,5,6
105,2,object_06,object_01,933.79999995232,4,1,895.70000004768,0.7777777777777778,2,object_10,1,1335,0,6,7,forest_8,1,memory-2step-stake-s,599,1815377,0.0-19.0-0.0-0.105,A2VGFS03KCCR1Q,3SNR5F7RA597AOC2DOU98SGLOEGIEB,3S3AMIZX3YLERYAWFLS5GRWS5B1CDH,4,3
106,1,object_04,object_02,947.29999995232,2,1,299.60000002384,0.2222222222222222,2,object_10,1,1337,0,6,2,desert_2,1,memory-2step-stake-s,600,1823158,0.0-19.0-0.0-0.106,A2VGFS03KCCR1Q,3SNR5F7RA597AOC2DOU98SGLOEGIEB,3S3AMIZX3YLERYAWFLS5GRWS5B1CDH,2,1
107,1,object_02,object_04,411.30000007153,2,2,289.79999995232,0.4444444444444444,2,object_10,1,1341,0,5,4,desert_2,1,memory-2step-stake-s,601,1831158,0.0-19.0-0.0-0.107,A2VGFS03KCCR1Q,3SNR5F7RA597AOC2DOU98SGLOEGIEB,3S3AMIZX3YLERYAWFLS5GRWS5B1CDH,1,2
108,4,object_09,object_07,721.39999997616,7,1,348.0,0.3333333333333333,1,object_03,5,1356,0,3,2,restaurant_5,1,memory-2step-stake-s,602,1839151,0.0-19.0-0.0-0.108,A2VGFS03KCCR1Q,3SNR5F7RA597AOC2DOU98SGLOEGIEB,3S3AMIZX3YLERYAWFLS5GRWS5B1CDH,7,8
109,3,object_08,object_05,666.70000004768,5,1,292.0,0.1111111111111111,1,object_03,5,1361,0,1,3,library_6,1,memory-2step-stake-s,603,1846850,0.0-19.0-0.0-0.109,A2VGFS03KCCR1Q,3SNR5F7RA597AOC2DOU98SGLOEGIEB,3S3AMIZX3YLERYAWFLS5GRWS5B1CDH,5,6
110,1,object_02,object_04,948.69999992847,1,1,1262.6000000238,0.1111111111111111,1,object_03,1,1362,0,1,7,desert_8,1,memory-2step-stake-s,604,1855499,0.0-19.0-0.0-0.110,A2VGFS03KCCR1Q,3SNR5F7RA597AOC2DOU98SGLOEGIEB,3S3AMIZX3YLERYAWFLS5GRWS5B1CDH,1,2
111,3,object_08,object_05,824.69999992847,5,1,253.30000007153,0.2222222222222222,1,object_03,5,1372,0,2,7,library_3,1,memory-2step-stake-s,605,1863261,0.0-19.0-0.0-0.111,A2VGFS03KCCR1Q,3SNR5F7RA597AOC2DOU98SGLOEGIEB,3S3AMIZX3YLERYAWFLS5GRWS5B1CDH,5,6
112,1,object_02,object_04,715.5,2,2,597.10000002384,0.6666666666666666,2,object_10,5,1402,0,3,6,desert_7,1,memory-2step-stake-s,606,1871858,0.0-19.0-0.0-0.112,A2VGFS03KCCR1Q,3SNR5F7RA597AOC2DOU98SGLOEGIEB,3S3AMIZX3YLERYAWFLS5GRWS5B1CDH,1,2
113,1,object_04,object_02,752.79999995232,1,2,222.20000004768,0.0,1,object_03,1,1402,0,0,3,desert_1,1,memory-2step-stake-s,607,1879371,0.0-19.0-0.0-0.113,A2VGFS03KCCR1Q,3SNR5F7RA597AOC2DOU98SGLOEGIEB,3S3AMIZX3YLERYAWFLS5GRWS5B1CDH,2,1
114,2,object_01,object_06,1332.1000000238,4,2,191.30000007153,0.3333333333333333,2,object_10,1,1405,0,4,3,forest_8,1,memory-2step-stake-s,608,1887182,0.0-19.0-0.0-0.114,A2VGFS03KCCR1Q,3SNR5F7RA597AOC2DOU98SGLOEGIEB,3S3AMIZX3YLERYAWFLS5GRWS5B1CDH,3,4
115,4,object_07,object_09,642.29999995232,8,1,263.69999992847,0.0,2,object_10,5,1405,0,6,0,restaurant_1,1,memory-2step-stake-s,609,1894750,0.0-19.0-0.0-0.115,A2VGFS03KCCR1Q,3SNR5F7RA597AOC2DOU98SGLOEGIEB,3S3AMIZX3YLERYAWFLS5GRWS5B1CDH,8,7
116,3,object_05,object_08,727.39999997616,5,2,410.5,0.3333333333333333,1,object_03,5,1420,0,3,2,library_1,1,memory-2step-stake-s,610,1902781,0.0-19.0-0.0-0.116,A2VGFS03KCCR1Q,3SNR5F7RA597AOC2DOU98SGLOEGIEB,3S3AMIZX3YLERYAWFLS5GRWS5B1CDH,6,5
117,3,object_05,object_08,664.89999997616,5,2,113.5,0.3333333333333333,1,object_03,1,1423,0,3,2,library_1,1,memory-2step-stake-s,611,1910511,0.0-19.0-0.0-0.117,A2VGFS03KCCR1Q,3SNR5F7RA597AOC2DOU98SGLOEGIEB,3S3AMIZX3YLERYAWFLS5GRWS5B1CDH,6,5
118,3,object_08,object_05,502.30000007153,5,1,328.0,0.6666666666666666,1,object_03,5,1453,0,6,1,library_3,1,memory-2step-stake-s,612,1918819,0.0-19.0-0.0-0.118,A2VGFS03KCCR1Q,3SNR5F7RA597AOC2DOU98SGLOEGIEB,3S3AMIZX3YLERYAWFLS5GRWS5B1CDH,5,6
119,3,object_05,object_08,837.69999992847,6,1,284.5,0.1111111111111111,2,object_10,5,1458,0,7,1,library_4,1,memory-2step-stake-s,613,1926499,0.0-19.0-0.0-0.119,A2VGFS03KCCR1Q,3SNR5F7RA597AOC2DOU98SGLOEGIEB,3S3AMIZX3YLERYAWFLS5GRWS5B1CDH,6,5
120,1,object_04,object_02,837.10000002384,2,1,-1.0,0.0,2,object_10,1,1458,0,7,0,desert_8,1,memory-2step-stake-s,614,1935083,0.0-19.0-0.0-0.120,A2VGFS03KCCR1Q,3SNR5F7RA597AOC2DOU98SGLOEGIEB,3S3AMIZX3YLERYAWFLS5GRWS5B1CDH,2,1
121,4,object_07,object_09,927.29999995232,7,2,381.80000007153,0.6666666666666666,1,object_03,5,1488,0,6,1,restaurant_8,1,memory-2step-stake-s,615,1943399,0.0-19.0-0.0-0.121,A2VGFS03KCCR1Q,3SNR5F7RA597AOC2DOU98SGLOEGIEB,3S3AMIZX3YLERYAWFLS5GRWS5B1CDH,8,7
122,4,object_09,object_07,429.70000004768,7,1,273.10000002384,0.8888888888888888,1,object_03,5,1528,0,8,5,restaurant_1,1,memory-2step-stake-s,616,1951844,0.0-19.0-0.0-0.122,A2VGFS03KCCR1Q,3SNR5F7RA597AOC2DOU98SGLOEGIEB,3S3AMIZX3YLERYAWFLS5GRWS5B1CDH,7,8
123,4,object_09,object_07,705.5,7,1,286.0,0.8888888888888888,1,object_03,5,1568,0,8,5,restaurant_1,1,memory-2step-stake-s,617,1960344,0.0-19.0-0.0-0.123,A2VGFS03KCCR1Q,3SNR5F7RA597AOC2DOU98SGLOEGIEB,3S3AMIZX3YLERYAWFLS5GRWS5B1CDH,7,8
124,3,object_05,object_08,957.90000009537,6,1,361.70000004768,0.6666666666666666,2,object_10,5,1598,0,7,6,library_3,1,memory-2step-stake-s,618,1968677,0.0-19.0-0.0-0.124,A2VGFS03KCCR1Q,3SNR5F7RA597AOC2DOU98SGLOEGIEB,3S3AMIZX3YLERYAWFLS5GRWS5B1CDH,6,5
125,4,object_07,object_09,648.5,7,2,365.29999995232,0.8888888888888888,1,object_03,5,1638,0,8,3,restaurant_8,1,memory-2step-stake-s,619,1977241,0.0-19.0-0.0-0.125,A2VGFS03KCCR1Q,3SNR5F7RA597AOC2DOU98SGLOEGIEB,3S3AMIZX3YLERYAWFLS5GRWS5B1CDH,8,7
126,4,object_09,object_07,436.60000002384,7,1,399.20000004768,0.6666666666666666,1,object_03,5,1668,0,6,5,restaurant_8,1,memory-2step-stake-s,620,1985619,0.0-19.0-0.0-0.126,A2VGFS03KCCR1Q,3SNR5F7RA597AOC2DOU98SGLOEGIEB,3S3AMIZX3YLERYAWFLS5GRWS5B1CDH,7,8
127,1,object_04,object_02,436.39999997616,1,2,575.0,0.8888888888888888,1,object_03,1,1676,0,8,6,desert_1,1,memory-2step-stake-s,621,1994435,0.0-19.0-0.0-0.127,A2VGFS03KCCR1Q,3SNR5F7RA597AOC2DOU98SGLOEGIEB,3S3AMIZX3YLERYAWFLS5GRWS5B1CDH,2,1
128,1,object_04,object_02,823.0,1,2,621.39999997616,1.0,1,object_03,1,1685,0,9,6,desert_7,1,memory-2step-stake-s,623,2036131,0.0-19.0-0.1-0.128,A2VGFS03KCCR1Q,3SNR5F7RA597AOC2DOU98SGLOEGIEB,3S3AMIZX3YLERYAWFLS5GRWS5B1CDH,2,1
129,1,object_02,object_04,412.39999997616,1,1,386.20000004768,0.8888888888888888,1,object_03,1,1693,0,8,6,desert_2,1,memory-2step-stake-s,624,2044726,0.0-19.0-0.1-0.129,A2VGFS03KCCR1Q,3SNR5F7RA597AOC2DOU98SGLOEGIEB,3S3AMIZX3YLERYAWFLS5GRWS5B1CDH,1,2
130,2,object_06,object_01,692.79999995232,4,1,672.59999990463,0.7777777777777778,2,object_10,1,1700,0,7,7,forest_2,1,memory-2step-stake-s,625,2053462,0.0-19.0-0.1-0.130,A2VGFS03KCCR1Q,3SNR5F7RA597AOC2DOU98SGLOEGIEB,3S3AMIZX3YLERYAWFLS5GRWS5B1CDH,4,3
131,2,object_06,object_01,676.10000002384,4,1,844.0,0.5555555555555556,2,object_10,5,1725,0,8,5,forest_8,1,memory-2step-stake-s,626,2062136,0.0-19.0-0.1-0.131,A2VGFS03KCCR1Q,3SNR5F7RA597AOC2DOU98SGLOEGIEB,3S3AMIZX3YLERYAWFLS5GRWS5B1CDH,4,3
132,3,object_08,object_05,587.70000004768,6,2,253.79999995232,1.0,2,object_10,5,1770,0,6,9,library_3,1,memory-2step-stake-s,627,2070691,0.0-19.0-0.1-0.132,A2VGFS03KCCR1Q,3SNR5F7RA597AOC2DOU98SGLOEGIEB,3S3AMIZX3YLERYAWFLS5GRWS5B1CDH,5,6
133,2,object_01,object_06,397.70000004768,4,2,284.89999997616,1.0,2,object_10,1,1779,0,7,9,forest_2,1,memory-2step-stake-s,628,2079305,0.0-19.0-0.1-0.133,A2VGFS03KCCR1Q,3SNR5F7RA597AOC2DOU98SGLOEGIEB,3S3AMIZX3YLERYAWFLS5GRWS5B1CDH,3,4
134,4,object_09,object_07,881.40000009537,7,1,280.30000007153,0.6666666666666666,1,object_03,1,1785,0,6,8,restaurant_3,1,memory-2step-stake-s,629,2087603,0.0-19.0-0.1-0.134,A2VGFS03KCCR1Q,3SNR5F7RA597AOC2DOU98SGLOEGIEB,3S3AMIZX3YLERYAWFLS5GRWS5B1CDH,7,8
135,1,object_02,object_04,577.10000002384,1,1,297.80000007153,0.5555555555555556,1,object_03,5,1810,0,5,5,desert_2,1,memory-2step-stake-s,630,2095767,0.0-19.0-0.1-0.135,A2VGFS03KCCR1Q,3SNR5F7RA597AOC2DOU98SGLOEGIEB,3S3AMIZX3YLERYAWFLS5GRWS5B1CDH,1,2
136,3,object_08,object_05,1199.1000000238,6,2,444.19999992847,0.7777777777777778,2,object_10,5,1845,0,5,7,library_3,1,memory-2step-stake-s,631,2104315,0.0-19.0-0.1-0.136,A2VGFS03KCCR1Q,3SNR5F7RA597AOC2DOU98SGLOEGIEB,3S3AMIZX3YLERYAWFLS5GRWS5B1CDH,5,6
137,1,object_02,object_04,666.70000004768,1,1,356.39999997616,0.3333333333333333,1,object_03,5,1860,0,3,7,desert_7,1,memory-2step-stake-s,632,2112316,0.0-19.0-0.1-0.137,A2VGFS03KCCR1Q,3SNR5F7RA597AOC2DOU98SGLOEGIEB,3S3AMIZX3YLERYAWFLS5GRWS5B1CDH,1,2
138,4,object_09,object_07,787.19999992847,7,1,260.89999997616,0.5555555555555556,1,object_03,5,1885,0,5,9,restaurant_3,1,memory-2step-stake-s,633,2120425,0.0-19.0-0.1-0.138,A2VGFS03KCCR1Q,3SNR5F7RA597AOC2DOU98SGLOEGIEB,3S3AMIZX3YLERYAWFLS5GRWS5B1CDH,7,8
139,2,object_01,object_06,621.39999997616,4,2,326.39999997616,0.7777777777777778,2,object_10,1,1892,0,4,7,forest_2,1,memory-2step-stake-s,634,2128841,0.0-19.0-0.1-0.139,A2VGFS03KCCR1Q,3SNR5F7RA597AOC2DOU98SGLOEGIEB,3S3AMIZX3YLERYAWFLS5GRWS5B1CDH,3,4
140,2,object_06,object_01,533.29999995232,4,1,334.59999990463,0.7777777777777778,2,object_10,1,1899,0,1,7,forest_2,1,memory-2step-stake-s,635,2137283,0.0-19.0-0.1-0.140,A2VGFS03KCCR1Q,3SNR5F7RA597AOC2DOU98SGLOEGIEB,3S3AMIZX3YLERYAWFLS5GRWS5B1CDH,4,3
141,4,object_09,object_07,562.69999992847,7,1,172.0,0.1111111111111111,1,object_03,5,1904,0,1,7,restaurant_3,1,memory-2step-stake-s,636,2144859,0.0-19.0-0.1-0.141,A2VGFS03KCCR1Q,3SNR5F7RA597AOC2DOU98SGLOEGIEB,3S3AMIZX3YLERYAWFLS5GRWS5B1CDH,7,8
142,2,object_06,object_01,668.60000002384,4,1,372.30000007153,0.7777777777777778,2,object_10,1,1911,0,0,7,forest_2,1,memory-2step-stake-s,637,2153343,0.0-19.0-0.1-0.142,A2VGFS03KCCR1Q,3SNR5F7RA597AOC2DOU98SGLOEGIEB,3S3AMIZX3YLERYAWFLS5GRWS5B1CDH,4,3
143,2,object_01,object_06,622.60000002384,4,2,360.39999997616,0.7777777777777778,2,object_10,1,1918,0,1,7,forest_3,1,memory-2step-stake-s,638,2161806,0.0-19.0-0.1-0.143,A2VGFS03KCCR1Q,3SNR5F7RA597AOC2DOU98SGLOEGIEB,3S3AMIZX3YLERYAWFLS5GRWS5B1CDH,3,4
144,1,object_04,object_02,639.79999995232,1,2,118.79999995232,0.4444444444444444,1,object_03,1,1922,0,4,6,desert_1,1,memory-2step-stake-s,639,2169666,0.0-19.0-0.1-0.144,A2VGFS03KCCR1Q,3SNR5F7RA597AOC2DOU98SGLOEGIEB,3S3AMIZX3YLERYAWFLS5GRWS5B1CDH,2,1
145,3,object_08,object_05,1277.7999999523,6,2,528.20000004768,0.2222222222222222,2,object_10,1,1924,0,4,2,library_4,1,memory-2step-stake-s,640,2177720,0.0-19.0-0.1-0.145,A2VGFS03KCCR1Q,3SNR5F7RA597AOC2DOU98SGLOEGIEB,3S3AMIZX3YLERYAWFLS5GRWS5B1CDH,5,6
146,2,object_06,object_01,637.89999997616,4,1,496.19999992847,0.2222222222222222,2,object_10,1,1926,0,3,2,forest_3,1,memory-2step-stake-s,641,2185748,0.0-19.0-0.1-0.146,A2VGFS03KCCR1Q,3SNR5F7RA597AOC2DOU98SGLOEGIEB,3S3AMIZX3YLERYAWFLS5GRWS5B1CDH,4,3
147,1,object_02,object_04,592.30000007153,1,1,345.89999997616,0.1111111111111111,1,object_03,1,1927,0,1,2,desert_7,1,memory-2step-stake-s,642,2193492,0.0-19.0-0.1-0.147,A2VGFS03KCCR1Q,3SNR5F7RA597AOC2DOU98SGLOEGIEB,3S3AMIZX3YLERYAWFLS5GRWS5B1CDH,1,2
148,4,object_09,object_07,672.10000002384,8,2,258.29999995232,0.2222222222222222,2,object_10,5,1937,0,3,2,restaurant_1,1,memory-2step-stake-s,643,2201269,0.0-19.0-0.1-0.148,A2VGFS03KCCR1Q,3SNR5F7RA597AOC2DOU98SGLOEGIEB,3S3AMIZX3YLERYAWFLS5GRWS5B1CDH,7,8
149,2,object_06,object_01,744.5,4,1,177.10000002384,0.1111111111111111,2,object_10,1,1938,0,3,1,forest_1,1,memory-2step-stake-s,644,2208868,0.0-19.0-0.1-0.149,A2VGFS03KCCR1Q,3SNR5F7RA597AOC2DOU98SGLOEGIEB,3S3AMIZX3YLERYAWFLS5GRWS5B1CDH,4,3
150,3,object_05,object_08,232.39999997616,5,2,396.69999992847,0.1111111111111111,1,object_03,5,1943,0,1,1,library_6,1,memory-2step-stake-s,645,2216683,0.0-19.0-0.1-0.150,A2VGFS03KCCR1Q,3SNR5F7RA597AOC2DOU98SGLOEGIEB,3S3AMIZX3YLERYAWFLS5GRWS5B1CDH,6,5
151,1,object_04,object_02,603.59999990463,2,1,379.0,0.3333333333333333,2,object_10,1,1946,0,1,3,desert_2,1,memory-2step-stake-s,646,2224696,0.0-19.0-0.1-0.151,A2VGFS03KCCR1Q,3SNR5F7RA597AOC2DOU98SGLOEGIEB,3S3AMIZX3YLERYAWFLS5GRWS5B1CDH,2,1
152,3,object_05,object_08,777.5,5,2,314.29999995232,0.3333333333333333,1,object_03,5,1961,0,3,2,library_3,1,memory-2step-stake-s,647,2232618,0.0-19.0-0.1-0.152,A2VGFS03KCCR1Q,3SNR5F7RA597AOC2DOU98SGLOEGIEB,3S3AMIZX3YLERYAWFLS5GRWS5B1CDH,6,5
153,3,object_08,object_05,367.59999990463,5,1,472.89999997616,0.3333333333333333,1,object_03,5,1976,0,3,1,library_1,1,memory-2step-stake-s,648,2240702,0.0-19.0-0.1-0.153,A2VGFS03KCCR1Q,3SNR5F7RA597AOC2DOU98SGLOEGIEB,3S3AMIZX3YLERYAWFLS5GRWS5B1CDH,5,6
154,4,object_09,object_07,571.19999992847,7,1,359.39999997616,0.2222222222222222,1,object_03,5,1986,0,2,4,restaurant_3,1,memory-2step-stake-s,649,2248544,0.0-19.0-0.1-0.154,A2VGFS03KCCR1Q,3SNR5F7RA597AOC2DOU98SGLOEGIEB,3S3AMIZX3YLERYAWFLS5GRWS5B1CDH,7,8
155,1,object_02,object_04,388.0,2,2,403.5,0.4444444444444444,2,object_10,1,1990,0,2,4,desert_8,1,memory-2step-stake-s,650,2256721,0.0-19.0-0.1-0.155,A2VGFS03KCCR1Q,3SNR5F7RA597AOC2DOU98SGLOEGIEB,3S3AMIZX3YLERYAWFLS5GRWS5B1CDH,1,2
156,4,object_09,object_07,956.90000009537,7,1,456.80000007153,0.2222222222222222,1,object_03,5,2000,0,2,2,restaurant_1,1,memory-2step-stake-s,651,2264706,0.0-19.0-0.1-0.156,A2VGFS03KCCR1Q,3SNR5F7RA597AOC2DOU98SGLOEGIEB,3S3AMIZX3YLERYAWFLS5GRWS5B1CDH,7,8
157,3,object_08,object_05,852.10000002384,6,2,271.70000004768,0.4444444444444444,2,object_10,5,2020,0,5,4,library_6,1,memory-2step-stake-s,652,2272733,0.0-19.0-0.1-0.157,A2VGFS03KCCR1Q,3SNR5F7RA597AOC2DOU98SGLOEGIEB,3S3AMIZX3YLERYAWFLS5GRWS5B1CDH,5,6
158,2,object_01,object_06,415.60000002384,4,2,290.10000002384,0.4444444444444444,2,object_10,1,2024,0,3,4,forest_8,1,memory-2step-stake-s,653,2280745,0.0-19.0-0.1-0.158,A2VGFS03KCCR1Q,3SNR5F7RA597AOC2DOU98SGLOEGIEB,3S3AMIZX3YLERYAWFLS5GRWS5B1CDH,3,4
159,3,object_08,object_05,825.89999997616,6,2,413.5,0.3333333333333333,2,object_10,5,2039,0,5,3,library_1,1,memory-2step-stake-s,654,2288807,0.0-19.0-0.1-0.159,A2VGFS03KCCR1Q,3SNR5F7RA597AOC2DOU98SGLOEGIEB,3S3AMIZX3YLERYAWFLS5GRWS5B1CDH,5,6
160,3,object_08,object_05,646.5,5,1,433.5,0.6666666666666666,1,object_03,5,2069,0,6,3,library_3,1,memory-2step-stake-s,655,2297164,0.0-19.0-0.1-0.160,A2VGFS03KCCR1Q,3SNR5F7RA597AOC2DOU98SGLOEGIEB,3S3AMIZX3YLERYAWFLS5GRWS5B1CDH,5,6
161,3,object_05,object_08,591.30000007153,5,2,294.29999995232,0.7777777777777778,1,object_03,5,2104,0,7,3,library_1,1,memory-2step-stake-s,656,2305485,0.0-19.0-0.1-0.161,A2VGFS03KCCR1Q,3SNR5F7RA597AOC2DOU98SGLOEGIEB,3S3AMIZX3YLERYAWFLS5GRWS5B1CDH,6,5
162,1,object_04,object_02,750.39999997616,1,2,463.89999997616,0.4444444444444444,1,object_03,1,2108,0,4,4,desert_7,1,memory-2step-stake-s,657,2313680,0.0-19.0-0.1-0.162,A2VGFS03KCCR1Q,3SNR5F7RA597AOC2DOU98SGLOEGIEB,3S3AMIZX3YLERYAWFLS5GRWS5B1CDH,2,1
163,4,object_07,object_09,678.0,8,1,408.10000002384,0.2222222222222222,2,object_10,5,2118,0,4,2,restaurant_5,1,memory-2step-stake-s,658,2321595,0.0-19.0-0.1-0.163,A2VGFS03KCCR1Q,3SNR5F7RA597AOC2DOU98SGLOEGIEB,3S3AMIZX3YLERYAWFLS5GRWS5B1CDH,8,7
164,3,object_05,object_08,483.89999997616,5,2,278.19999992847,0.2222222222222222,1,object_03,5,2128,0,2,3,library_1,1,memory-2step-stake-s,659,2329391,0.0-19.0-0.1-0.164,A2VGFS03KCCR1Q,3SNR5F7RA597AOC2DOU98SGLOEGIEB,3S3AMIZX3YLERYAWFLS5GRWS5B1CDH,6,5
165,2,object_01,object_06,540.40000009537,3,1,263.79999995232,0.3333333333333333,1,object_03,5,2143,0,3,1,forest_8,1,memory-2step-stake-s,660,2337284,0.0-19.0-0.1-0.165,A2VGFS03KCCR1Q,3SNR5F7RA597AOC2DOU98SGLOEGIEB,3S3AMIZX3YLERYAWFLS5GRWS5B1CDH,3,4
166,1,object_04,object_02,586.39999997616,1,2,505.5,0.6666666666666666,1,object_03,1,2149,0,6,1,desert_2,1,memory-2step-stake-s,661,2345756,0.0-19.0-0.1-0.166,A2VGFS03KCCR1Q,3SNR5F7RA597AOC2DOU98SGLOEGIEB,3S3AMIZX3YLERYAWFLS5GRWS5B1CDH,2,1
167,4,object_07,object_09,642.60000002384,8,1,373.39999997616,0.0,2,object_10,5,2149,0,5,0,restaurant_1,1,memory-2step-stake-s,662,2353401,0.0-19.0-0.1-0.167,A2VGFS03KCCR1Q,3SNR5F7RA597AOC2DOU98SGLOEGIEB,3S3AMIZX3YLERYAWFLS5GRWS5B1CDH,8,7
168,1,object_04,object_02,940.39999997616,1,2,271.09999990463,0.4444444444444444,1,object_03,1,2153,0,4,0,desert_7,1,memory-2step-stake-s,663,2361399,0.0-19.0-0.1-0.168,A2VGFS03KCCR1Q,3SNR5F7RA597AOC2DOU98SGLOEGIEB,3S3AMIZX3YLERYAWFLS5GRWS5B1CDH,2,1
169,2,object_01,object_06,677.70000004768,4,2,134.60000002384,0.0,2,object_10,1,2153,0,1,0,forest_2,1,memory-2step-stake-s,664,2368807,0.0-19.0-0.1-0.169,A2VGFS03KCCR1Q,3SNR5F7RA597AOC2DOU98SGLOEGIEB,3S3AMIZX3YLERYAWFLS5GRWS5B1CDH,3,4
170,4,object_09,object_07,856.29999995232,8,2,269.89999997616,0.0,2,object_10,5,2153,0,0,0,restaurant_3,1,memory-2step-stake-s,665,2376373,0.0-19.0-0.1-0.170,A2VGFS03KCCR1Q,3SNR5F7RA597AOC2DOU98SGLOEGIEB,3S3AMIZX3YLERYAWFLS5GRWS5B1CDH,7,8
171,1,object_04,object_02,417.79999995232,1,2,254.30000007153,0.2222222222222222,1,object_03,1,2155,0,2,0,desert_1,1,memory-2step-stake-s,666,2384145,0.0-19.0-0.1-0.171,A2VGFS03KCCR1Q,3SNR5F7RA597AOC2DOU98SGLOEGIEB,3S3AMIZX3YLERYAWFLS5GRWS5B1CDH,2,1
172,4,object_07,object_09,915.89999997616,7,2,316.19999992847,0.0,1,object_03,1,2155,0,0,2,restaurant_5,1,memory-2step-stake-s,667,2391725,0.0-19.0-0.1-0.172,A2VGFS03KCCR1Q,3SNR5F7RA597AOC2DOU98SGLOEGIEB,3S3AMIZX3YLERYAWFLS5GRWS5B1CDH,8,7
173,3,object_05,object_08,800.69999992847,5,2,386.10000002384,0.1111111111111111,1,object_03,5,2160,0,1,2,library_6,1,memory-2step-stake-s,668,2399500,0.0-19.0-0.1-0.173,A2VGFS03KCCR1Q,3SNR5F7RA597AOC2DOU98SGLOEGIEB,3S3AMIZX3YLERYAWFLS5GRWS5B1CDH,6,5
174,4,object_09,object_07,648.30000007153,7,1,284.79999995232,0.4444444444444444,1,object_03,1,2164,0,4,2,restaurant_3,1,memory-2step-stake-s,669,2407515,0.0-19.0-0.1-0.174,A2VGFS03KCCR1Q,3SNR5F7RA597AOC2DOU98SGLOEGIEB,3S3AMIZX3YLERYAWFLS5GRWS5B1CDH,7,8
175,1,object_02,object_04,509.10000002384,1,1,311.59999990463,0.5555555555555556,1,object_03,1,2169,0,5,2,desert_7,1,memory-2step-stake-s,670,2415634,0.0-19.0-0.1-0.175,A2VGFS03KCCR1Q,3SNR5F7RA597AOC2DOU98SGLOEGIEB,3S3AMIZX3YLERYAWFLS5GRWS5B1CDH,1,2
176,1,object_04,object_02,-1.0,-1,-1,-1.0,0.0,-,0,1,2169,0,5,2,desert_2,1,memory-2step-stake-s,671,2422194,0.0-19.0-0.1-0.176,A2VGFS03KCCR1Q,3SNR5F7RA597AOC2DOU98SGLOEGIEB,3S3AMIZX3YLERYAWFLS5GRWS5B1CDH,2,1
177,2,object_01,object_06,678.5,3,1,295.10000002384,0.5555555555555556,1,object_03,1,2174,0,5,3,forest_3,1,memory-2step-stake-s,672,2430364,0.0-19.0-0.1-0.177,A2VGFS03KCCR1Q,3SNR5F7RA597AOC2DOU98SGLOEGIEB,3S3AMIZX3YLERYAWFLS5GRWS5B1CDH,3,4
178,4,object_07,object_09,744.80000007153,7,2,307.0,0.2222222222222222,1,object_03,5,2184,0,2,4,restaurant_8,1,memory-2step-stake-s,673,2438162,0.0-19.0-0.1-0.178,A2VGFS03KCCR1Q,3SNR5F7RA597AOC2DOU98SGLOEGIEB,3S3AMIZX3YLERYAWFLS5GRWS5B1CDH,8,7
179,2,object_06,object_01,808.5,3,2,97.099999904633,0.5555555555555556,1,object_03,1,2189,0,5,2,forest_8,1,memory-2step-stake-s,674,2446124,0.0-19.0-0.1-0.179,A2VGFS03KCCR1Q,3SNR5F7RA597AOC2DOU98SGLOEGIEB,3S3AMIZX3YLERYAWFLS5GRWS5B1CDH,4,3
180,2,object_01,object_06,715.20000004768,4,2,36.600000023842,0.0,2,object_10,5,2189,0,6,0,forest_1,1,memory-2step-stake-s,675,2453468,0.0-19.0-0.1-0.180,A2VGFS03KCCR1Q,3SNR5F7RA597AOC2DOU98SGLOEGIEB,3S3AMIZX3YLERYAWFLS5GRWS5B1CDH,3,4
181,2,object_06,object_01,994.30000007153,4,1,251.19999992847,0.1111111111111111,2,object_10,1,2190,0,8,1,forest_1,1,memory-2step-stake-s,676,2461119,0.0-19.0-0.1-0.181,A2VGFS03KCCR1Q,3SNR5F7RA597AOC2DOU98SGLOEGIEB,3S3AMIZX3YLERYAWFLS5GRWS5B1CDH,4,3
182,2,object_06,object_01,408.39999997616,4,1,289.89999997616,0.1111111111111111,2,object_10,1,2191,0,8,1,forest_2,1,memory-2step-stake-s,677,2468807,0.0-19.0-0.1-0.182,A2VGFS03KCCR1Q,3SNR5F7RA597AOC2DOU98SGLOEGIEB,3S3AMIZX3YLERYAWFLS5GRWS5B1CDH,4,3
183,1,object_02,object_04,423.0,1,1,300.19999992847,1.0,1,object_03,5,2236,0,9,4,desert_2,1,memory-2step-stake-s,678,2477348,0.0-19.0-0.1-0.183,A2VGFS03KCCR1Q,3SNR5F7RA597AOC2DOU98SGLOEGIEB,3S3AMIZX3YLERYAWFLS5GRWS5B1CDH,1,2
184,4,object_09,object_07,899.79999995232,7,1,316.19999992847,0.8888888888888888,1,object_03,5,2276,0,8,5,restaurant_8,1,memory-2step-stake-s,679,2485836,0.0-19.0-0.1-0.184,A2VGFS03KCCR1Q,3SNR5F7RA597AOC2DOU98SGLOEGIEB,3S3AMIZX3YLERYAWFLS5GRWS5B1CDH,7,8
185,2,object_01,object_06,457.10000002384,3,1,400.0,0.8888888888888888,1,object_03,1,2284,0,8,5,forest_1,1,memory-2step-stake-s,680,2494430,0.0-19.0-0.1-0.185,A2VGFS03KCCR1Q,3SNR5F7RA597AOC2DOU98SGLOEGIEB,3S3AMIZX3YLERYAWFLS5GRWS5B1CDH,3,4
186,1,object_02,object_04,959.39999997616,1,1,1145.6999999285,0.8888888888888888,1,object_03,5,2324,0,8,7,desert_1,1,memory-2step-stake-s,681,2503764,0.0-19.0-0.1-0.186,A2VGFS03KCCR1Q,3SNR5F7RA597AOC2DOU98SGLOEGIEB,3S3AMIZX3YLERYAWFLS5GRWS5B1CDH,1,2
187,4,object_07,object_09,715.70000004768,7,2,413.39999997616,0.8888888888888888,1,object_03,1,2332,0,8,8,restaurant_8,1,memory-2step-stake-s,682,2512362,0.0-19.0-0.1-0.187,A2VGFS03KCCR1Q,3SNR5F7RA597AOC2DOU98SGLOEGIEB,3S3AMIZX3YLERYAWFLS5GRWS5B1CDH,8,7
188,2,object_01,object_06,721.79999995232,4,2,588.60000002384,0.6666666666666666,2,object_10,1,2338,0,8,6,forest_1,1,memory-2step-stake-s,683,2520923,0.0-19.0-0.1-0.188,A2VGFS03KCCR1Q,3SNR5F7RA597AOC2DOU98SGLOEGIEB,3S3AMIZX3YLERYAWFLS5GRWS5B1CDH,3,4
189,1,object_02,object_04,634.79999995232,1,1,423.20000004768,0.7777777777777778,1,object_03,1,2345,0,7,7,desert_8,1,memory-2step-stake-s,684,2529421,0.0-19.0-0.1-0.189,A2VGFS03KCCR1Q,3SNR5F7RA597AOC2DOU98SGLOEGIEB,3S3AMIZX3YLERYAWFLS5GRWS5B1CDH,1,2
190,1,object_04,object_02,489.0,1,2,381.10000002384,0.8888888888888888,1,object_03,1,2353,0,8,5,desert_7,1,memory-2step-stake-s,685,2537958,0.0-19.0-0.1-0.190,A2VGFS03KCCR1Q,3SNR5F7RA597AOC2DOU98SGLOEGIEB,3S3AMIZX3YLERYAWFLS5GRWS5B1CDH,2,1
191,1,object_04,object_02,555.20000004768,1,2,461.20000004768,1.0,1,object_03,1,2362,0,9,7,desert_7,1,memory-2step-stake-s,686,2546678,0.0-19.0-0.1-0.191,A2VGFS03KCCR1Q,3SNR5F7RA597AOC2DOU98SGLOEGIEB,3S3AMIZX3YLERYAWFLS5GRWS5B1CDH,2,1
192,2,object_01,object_06,888.40000009537,4,2,300.10000002384,0.6666666666666666,2,object_10,1,2368,0,6,6,forest_8,1,memory-2step-stake-s,687,2554927,0.0-19.0-0.1-0.192,A2VGFS03KCCR1Q,3SNR5F7RA597AOC2DOU98SGLOEGIEB,3S3AMIZX3YLERYAWFLS5GRWS5B1CDH,3,4
193,3,object_05,object_08,687.10000002384,5,2,329.10000002384,0.7777777777777778,1,object_03,5,2403,0,7,6,library_1,1,memory-2step-stake-s,688,2563357,0.0-19.0-0.1-0.193,A2VGFS03KCCR1Q,3SNR5F7RA597AOC2DOU98SGLOEGIEB,3S3AMIZX3YLERYAWFLS5GRWS5B1CDH,6,5
194,3,object_08,object_05,592.39999997616,6,2,401.79999995232,0.8888888888888888,2,object_10,5,2443,0,6,8,library_3,1,memory-2step-stake-s,689,2571945,0.0-19.0-0.1-0.194,A2VGFS03KCCR1Q,3SNR5F7RA597AOC2DOU98SGLOEGIEB,3S3AMIZX3YLERYAWFLS5GRWS5B1CDH,5,6
195,1,object_04,object_02,498.39999997616,1,2,323.70000004768,0.6666666666666666,1,object_03,1,2449,0,6,6,desert_8,1,memory-2step-stake-s,690,2580220,0.0-19.0-0.1-0.195,A2VGFS03KCCR1Q,3SNR5F7RA597AOC2DOU98SGLOEGIEB,3S3AMIZX3YLERYAWFLS5GRWS5B1CDH,2,1
196,4,object_07,object_09,1242.3999999762,7,2,404.20000004768,0.5555555555555556,1,object_03,5,2474,0,5,8,restaurant_5,1,memory-2step-stake-s,691,2588489,0.0-19.0-0.1-0.196,A2VGFS03KCCR1Q,3SNR5F7RA597AOC2DOU98SGLOEGIEB,3S3AMIZX3YLERYAWFLS5GRWS5B1CDH,8,7
197,4,object_09,object_07,659.89999997616,7,1,382.0,0.4444444444444444,1,object_03,5,2494,0,4,8,restaurant_5,1,memory-2step-stake-s,692,2596584,0.0-19.0-0.1-0.197,A2VGFS03KCCR1Q,3SNR5F7RA597AOC2DOU98SGLOEGIEB,3S3AMIZX3YLERYAWFLS5GRWS5B1CDH,7,8
198,3,object_05,object_08,1353.7000000477,6,1,750.39999997616,0.7777777777777778,2,object_10,5,2529,0,1,7,library_4,1,memory-2step-stake-s,693,2605377,0.0-19.0-0.1-0.198,A2VGFS03KCCR1Q,3SNR5F7RA597AOC2DOU98SGLOEGIEB,3S3AMIZX3YLERYAWFLS5GRWS5B1CDH,6,5
199,2,object_06,object_01,701.40000009537,4,1,466.39999997616,0.8888888888888888,2,object_10,1,2537,0,1,8,forest_8,1,memory-2step-stake-s,694,2614039,0.0-19.0-0.1-0.199,A2VGFS03KCCR1Q,3SNR5F7RA597AOC2DOU98SGLOEGIEB,3S3AMIZX3YLERYAWFLS5GRWS5B1CDH,4,3
200,2,object_06,object_01,431.40000009537,4,1,398.89999997616,0.5555555555555556,2,object_10,1,2542,0,2,5,forest_8,1,memory-2step-stake-s,695,2622299,0.0-19.0-0.1-0.200,A2VGFS03KCCR1Q,3SNR5F7RA597AOC2DOU98SGLOEGIEB,3S3AMIZX3YLERYAWFLS5GRWS5B1CDH,4,3
201,1,object_04,object_02,642.39999997616,1,2,1314.0,0.2222222222222222,1,object_03,5,2552,0,2,2,desert_8,1,memory-2step-stake-s,696,2631119,0.0-19.0-0.1-0.201,A2VGFS03KCCR1Q,3SNR5F7RA597AOC2DOU98SGLOEGIEB,3S3AMIZX3YLERYAWFLS5GRWS5B1CDH,2,1
202,3,object_08,object_05,519.29999995232,6,2,638.30000007153,0.5555555555555556,2,object_10,5,2577,0,4,5,library_1,1,memory-2step-stake-s,697,2639597,0.0-19.0-0.1-0.202,A2VGFS03KCCR1Q,3SNR5F7RA597AOC2DOU98SGLOEGIEB,3S3AMIZX3YLERYAWFLS5GRWS5B1CDH,5,6
203,3,object_08,object_05,649.89999997616,6,2,575.79999995232,0.4444444444444444,2,object_10,1,2581,0,3,4,library_1,1,memory-2step-stake-s,698,2647914,0.0-19.0-0.1-0.203,A2VGFS03KCCR1Q,3SNR5F7RA597AOC2DOU98SGLOEGIEB,3S3AMIZX3YLERYAWFLS5GRWS5B1CDH,5,6
204,3,object_08,object_05,467.5,6,2,350.10000002384,0.7777777777777778,2,object_10,5,2616,0,1,7,library_4,1,memory-2step-stake-s,699,2656316,0.0-19.0-0.1-0.204,A2VGFS03KCCR1Q,3SNR5F7RA597AOC2DOU98SGLOEGIEB,3S3AMIZX3YLERYAWFLS5GRWS5B1CDH,5,6
205,1,object_02,object_04,513.60000002384,1,1,441.20000004768,0.1111111111111111,1,object_03,1,2617,0,1,4,desert_8,1,memory-2step-stake-s,700,2664160,0.0-19.0-0.1-0.205,A2VGFS03KCCR1Q,3SNR5F7RA597AOC2DOU98SGLOEGIEB,3S3AMIZX3YLERYAWFLS5GRWS5B1CDH,1,2
206,2,object_01,object_06,568.39999997616,4,2,252.0,0.4444444444444444,2,object_10,1,2621,0,1,4,forest_8,1,memory-2step-stake-s,701,2672176,0.0-19.0-0.1-0.206,A2VGFS03KCCR1Q,3SNR5F7RA597AOC2DOU98SGLOEGIEB,3S3AMIZX3YLERYAWFLS5GRWS5B1CDH,3,4
207,2,object_06,object_01,694.70000004768,4,1,292.89999997616,0.3333333333333333,2,object_10,5,2636,0,5,3,forest_3,1,memory-2step-stake-s,702,2680130,0.0-19.0-0.1-0.207,A2VGFS03KCCR1Q,3SNR5F7RA597AOC2DOU98SGLOEGIEB,3S3AMIZX3YLERYAWFLS5GRWS5B1CDH,4,3
208,1,object_02,object_04,475.20000004768,1,1,314.5,0.2222222222222222,1,object_03,1,2638,0,2,6,desert_8,1,memory-2step-stake-s,703,2687959,0.0-19.0-0.1-0.208,A2VGFS03KCCR1Q,3SNR5F7RA597AOC2DOU98SGLOEGIEB,3S3AMIZX3YLERYAWFLS5GRWS5B1CDH,1,2
209,2,object_01,object_06,645.70000004768,4,2,91.299999952316,1.0,2,object_10,5,2683,0,5,9,forest_2,1,memory-2step-stake-s,704,2696333,0.0-19.0-0.1-0.209,A2VGFS03KCCR1Q,3SNR5F7RA597AOC2DOU98SGLOEGIEB,3S3AMIZX3YLERYAWFLS5GRWS5B1CDH,3,4
210,4,object_07,object_09,721.19999992847,7,2,229.80000007153,0.5555555555555556,1,object_03,5,2708,0,5,9,restaurant_8,1,memory-2step-stake-s,705,2704414,0.0-19.0-0.1-0.210,A2VGFS03KCCR1Q,3SNR5F7RA597AOC2DOU98SGLOEGIEB,3S3AMIZX3YLERYAWFLS5GRWS5B1CDH,8,7
211,3,object_08,object_05,767.10000002384,6,2,372.79999995232,1.0,2,object_10,5,2753,0,7,9,library_3,1,memory-2step-stake-s,706,2713053,0.0-19.0-0.1-0.211,A2VGFS03KCCR1Q,3SNR5F7RA597AOC2DOU98SGLOEGIEB,3S3AMIZX3YLERYAWFLS5GRWS5B1CDH,5,6
212,4,object_07,object_09,430.79999995232,7,2,25.600000023842,1.0,1,object_03,5,2798,0,9,7,restaurant_5,1,memory-2step-stake-s,707,2721314,0.0-19.0-0.1-0.212,A2VGFS03KCCR1Q,3SNR5F7RA597AOC2DOU98SGLOEGIEB,3S3AMIZX3YLERYAWFLS5GRWS5B1CDH,8,7
213,2,object_06,object_01,812.89999997616,4,1,257.10000002384,0.7777777777777778,2,object_10,1,2805,0,9,7,forest_1,1,memory-2step-stake-s,708,2729622,0.0-19.0-0.1-0.213,A2VGFS03KCCR1Q,3SNR5F7RA597AOC2DOU98SGLOEGIEB,3S3AMIZX3YLERYAWFLS5GRWS5B1CDH,4,3
214,3,object_08,object_05,632.79999995232,6,2,283.39999997616,1.0,2,object_10,5,2850,0,9,9,library_3,1,memory-2step-stake-s,709,2738205,0.0-19.0-0.1-0.214,A2VGFS03KCCR1Q,3SNR5F7RA597AOC2DOU98SGLOEGIEB,3S3AMIZX3YLERYAWFLS5GRWS5B1CDH,5,6
215,4,object_07,object_09,663.89999997616,7,2,794.70000004768,0.8888888888888888,1,object_03,5,2890,0,8,7,restaurant_8,1,memory-2step-stake-s,710,2747183,0.0-19.0-0.1-0.215,A2VGFS03KCCR1Q,3SNR5F7RA597AOC2DOU98SGLOEGIEB,3S3AMIZX3YLERYAWFLS5GRWS5B1CDH,8,7
216,1,object_04,object_02,376.59999990463,1,2,504.19999992847,0.8888888888888888,1,object_03,1,2898,0,8,9,desert_2,1,memory-2step-stake-s,711,2755900,0.0-19.0-0.1-0.216,A2VGFS03KCCR1Q,3SNR5F7RA597AOC2DOU98SGLOEGIEB,3S3AMIZX3YLERYAWFLS5GRWS5B1CDH,2,1
217,4,object_07,object_09,570.10000002384,7,2,340.89999997616,0.6666666666666666,1,object_03,1,2904,0,6,8,restaurant_3,1,memory-2step-stake-s,712,2764181,0.0-19.0-0.1-0.217,A2VGFS03KCCR1Q,3SNR5F7RA597AOC2DOU98SGLOEGIEB,3S3AMIZX3YLERYAWFLS5GRWS5B1CDH,8,7
218,2,object_01,object_06,680.30000007153,4,2,370.89999997616,1.0,2,object_10,1,2913,0,6,9,forest_2,1,memory-2step-stake-s,713,2772814,0.0-19.0-0.1-0.218,A2VGFS03KCCR1Q,3SNR5F7RA597AOC2DOU98SGLOEGIEB,3S3AMIZX3YLERYAWFLS5GRWS5B1CDH,3,4
219,4,object_07,object_09,579.39999997616,7,2,290.5,0.6666666666666666,1,object_03,5,2943,0,6,6,restaurant_5,1,memory-2step-stake-s,714,2781026,0.0-19.0-0.1-0.219,A2VGFS03KCCR1Q,3SNR5F7RA597AOC2DOU98SGLOEGIEB,3S3AMIZX3YLERYAWFLS5GRWS5B1CDH,8,7
220,4,object_07,object_09,462.59999990463,7,2,462.69999992847,0.5555555555555556,1,object_03,1,2948,0,5,7,restaurant_3,1,memory-2step-stake-s,715,2789352,0.0-19.0-0.1-0.220,A2VGFS03KCCR1Q,3SNR5F7RA597AOC2DOU98SGLOEGIEB,3S3AMIZX3YLERYAWFLS5GRWS5B1CDH,8,7
221,1,object_04,object_02,326.0,1,2,320.09999990463,0.3333333333333333,1,object_03,1,2951,0,3,9,desert_1,1,memory-2step-stake-s,716,2797295,0.0-19.0-0.1-0.221,A2VGFS03KCCR1Q,3SNR5F7RA597AOC2DOU98SGLOEGIEB,3S3AMIZX3YLERYAWFLS5GRWS5B1CDH,2,1
222,4,object_09,object_07,710.69999992847,7,1,350.59999990463,0.0,1,object_03,5,2951,0,0,9,restaurant_8,1,memory-2step-stake-s,717,2804908,0.0-19.0-0.1-0.222,A2VGFS03KCCR1Q,3SNR5F7RA597AOC2DOU98SGLOEGIEB,3S3AMIZX3YLERYAWFLS5GRWS5B1CDH,7,8
223,3,object_05,object_08,593.60000002384,5,2,263.39999997616,0.4444444444444444,1,object_03,5,2971,0,4,9,library_1,1,memory-2step-stake-s,718,2812907,0.0-19.0-0.1-0.223,A2VGFS03KCCR1Q,3SNR5F7RA597AOC2DOU98SGLOEGIEB,3S3AMIZX3YLERYAWFLS5GRWS5B1CDH,6,5
224,2,object_06,object_01,866.19999992847,4,1,358.5,0.8888888888888888,2,object_10,5,3011,0,4,8,forest_1,1,memory-2step-stake-s,719,2821500,0.0-19.0-0.1-0.224,A2VGFS03KCCR1Q,3SNR5F7RA597AOC2DOU98SGLOEGIEB,3S3AMIZX3YLERYAWFLS5GRWS5B1CDH,4,3
225,1,object_04,object_02,417.19999992847,1,2,267.60000002384,0.5555555555555556,1,object_03,5,3036,0,5,8,desert_8,1,memory-2step-stake-s,720,2829613,0.0-19.0-0.1-0.225,A2VGFS03KCCR1Q,3SNR5F7RA597AOC2DOU98SGLOEGIEB,3S3AMIZX3YLERYAWFLS5GRWS5B1CDH,2,1
226,2,object_06,object_01,495.29999995232,3,2,635.69999992847,0.5555555555555556,1,object_03,1,3041,0,5,4,forest_1,1,memory-2step-stake-s,721,2838068,0.0-19.0-0.1-0.226,A2VGFS03KCCR1Q,3SNR5F7RA597AOC2DOU98SGLOEGIEB,3S3AMIZX3YLERYAWFLS5GRWS5B1CDH,4,3
227,2,object_01,object_06,722.59999990463,4,2,480.80000007153,0.4444444444444444,2,object_10,1,3045,0,5,4,forest_1,1,memory-2step-stake-s,722,2846246,0.0-19.0-0.1-0.227,A2VGFS03KCCR1Q,3SNR5F7RA597AOC2DOU98SGLOEGIEB,3S3AMIZX3YLERYAWFLS5GRWS5B1CDH,3,4
228,3,object_08,object_05,685.80000007153,5,1,368.59999990463,0.4444444444444444,1,object_03,5,3065,0,4,6,library_1,1,memory-2step-stake-s,723,2854364,0.0-19.0-0.1-0.228,A2VGFS03KCCR1Q,3SNR5F7RA597AOC2DOU98SGLOEGIEB,3S3AMIZX3YLERYAWFLS5GRWS5B1CDH,5,6
229,2,object_06,object_01,658.5,3,2,212.79999995232,0.4444444444444444,1,object_03,1,3069,0,4,4,forest_8,1,memory-2step-stake-s,724,2862309,0.0-19.0-0.1-0.229,A2VGFS03KCCR1Q,3SNR5F7RA597AOC2DOU98SGLOEGIEB,3S3AMIZX3YLERYAWFLS5GRWS5B1CDH,4,3
230,3,object_08,object_05,480.30000007153,5,1,113.80000007153,0.6666666666666666,1,object_03,5,3099,0,6,4,library_4,1,memory-2step-stake-s,725,2870376,0.0-19.0-0.1-0.230,A2VGFS03KCCR1Q,3SNR5F7RA597AOC2DOU98SGLOEGIEB,3S3AMIZX3YLERYAWFLS5GRWS5B1CDH,5,6
231,1,object_02,object_04,-1.0,-1,-1,-1.0,0.0,-,0,5,3099,0,6,4,desert_2,1,memory-2step-stake-s,726,2876936,0.0-19.0-0.1-0.231,A2VGFS03KCCR1Q,3SNR5F7RA597AOC2DOU98SGLOEGIEB,3S3AMIZX3YLERYAWFLS5GRWS5B1CDH,1,2
232,1,object_02,object_04,404.29999995232,1,1,334.70000004768,0.4444444444444444,1,object_03,1,3103,0,4,7,desert_2,1,memory-2step-stake-s,727,2884997,0.0-19.0-0.1-0.232,A2VGFS03KCCR1Q,3SNR5F7RA597AOC2DOU98SGLOEGIEB,3S3AMIZX3YLERYAWFLS5GRWS5B1CDH,1,2
233,1,object_02,object_04,393.39999997616,1,1,265.5,0.3333333333333333,1,object_03,1,3106,0,3,5,desert_1,1,memory-2step-stake-s,728,2892897,0.0-19.0-0.1-0.233,A2VGFS03KCCR1Q,3SNR5F7RA597AOC2DOU98SGLOEGIEB,3S3AMIZX3YLERYAWFLS5GRWS5B1CDH,1,2
234,1,object_02,object_04,564.0,1,1,297.0,0.2222222222222222,1,object_03,5,3116,0,2,6,desert_1,1,memory-2step-stake-s,729,2900710,0.0-19.0-0.1-0.234,A2VGFS03KCCR1Q,3SNR5F7RA597AOC2DOU98SGLOEGIEB,3S3AMIZX3YLERYAWFLS5GRWS5B1CDH,1,2
235,3,object_08,object_05,374.5,6,2,469.5,0.2222222222222222,2,object_10,5,3126,0,3,2,library_4,1,memory-2step-stake-s,730,2908672,0.0-19.0-0.1-0.235,A2VGFS03KCCR1Q,3SNR5F7RA597AOC2DOU98SGLOEGIEB,3S3AMIZX3YLERYAWFLS5GRWS5B1CDH,5,6
236,4,object_07,object_09,303.29999995232,7,2,311.60000002384,0.0,1,object_03,5,3126,0,0,4,restaurant_1,1,memory-2step-stake-s,731,2916267,0.0-19.0-0.1-0.236,A2VGFS03KCCR1Q,3SNR5F7RA597AOC2DOU98SGLOEGIEB,3S3AMIZX3YLERYAWFLS5GRWS5B1CDH,8,7
237,1,object_02,object_04,528.20000004768,1,1,377.79999995232,0.1111111111111111,1,object_03,1,3127,0,1,6,desert_2,1,memory-2step-stake-s,732,2924064,0.0-19.0-0.1-0.237,A2VGFS03KCCR1Q,3SNR5F7RA597AOC2DOU98SGLOEGIEB,3S3AMIZX3YLERYAWFLS5GRWS5B1CDH,1,2
238,2,object_06,object_01,523.5,3,2,427.69999992847,0.4444444444444444,1,object_03,1,3131,0,4,7,forest_3,1,memory-2step-stake-s,733,2932257,0.0-19.0-0.1-0.238,A2VGFS03KCCR1Q,3SNR5F7RA597AOC2DOU98SGLOEGIEB,3S3AMIZX3YLERYAWFLS5GRWS5B1CDH,4,3
239,3,object_08,object_05,396.0,6,2,277.5,0.7777777777777778,2,object_10,5,3166,0,1,7,library_4,1,memory-2step-stake-s,734,2940658,0.0-19.0-0.1-0.239,A2VGFS03KCCR1Q,3SNR5F7RA597AOC2DOU98SGLOEGIEB,3S3AMIZX3YLERYAWFLS5GRWS5B1CDH,5,6
240,1,object_04,object_02,691.0,1,2,307.10000002384,0.1111111111111111,1,object_03,1,3167,0,1,8,desert_1,1,memory-2step-stake-s,735,2948372,0.0-19.0-0.1-0.240,A2VGFS03KCCR1Q,3SNR5F7RA597AOC2DOU98SGLOEGIEB,3S3AMIZX3YLERYAWFLS5GRWS5B1CDH,2,1
241,1,object_04,object_02,385.0,2,1,302.89999997616,0.8888888888888888,2,object_10,1,3175,0,0,8,desert_7,1,memory-2step-stake-s,736,2956827,0.0-19.0-0.1-0.241,A2VGFS03KCCR1Q,3SNR5F7RA597AOC2DOU98SGLOEGIEB,3S3AMIZX3YLERYAWFLS5GRWS5B1CDH,2,1
242,2,object_01,object_06,1222.7999999523,4,2,581.10000002384,0.8888888888888888,2,object_10,5,3215,0,1,8,forest_3,1,memory-2step-stake-s,737,2965559,0.0-19.0-0.1-0.242,A2VGFS03KCCR1Q,3SNR5F7RA597AOC2DOU98SGLOEGIEB,3S3AMIZX3YLERYAWFLS5GRWS5B1CDH,3,4
243,1,object_02,object_04,652.80000007153,2,2,549.0,0.8888888888888888,2,object_10,5,3255,0,4,8,desert_7,1,memory-2step-stake-s,738,2974280,0.0-19.0-0.1-0.243,A2VGFS03KCCR1Q,3SNR5F7RA597AOC2DOU98SGLOEGIEB,3S3AMIZX3YLERYAWFLS5GRWS5B1CDH,1,2
244,3,object_08,object_05,932.10000002384,6,2,291.89999997616,0.8888888888888888,2,object_10,5,3295,0,5,8,library_6,1,memory-2step-stake-s,739,2982795,0.0-19.0-0.1-0.244,A2VGFS03KCCR1Q,3SNR5F7RA597AOC2DOU98SGLOEGIEB,3S3AMIZX3YLERYAWFLS5GRWS5B1CDH,5,6
245,3,object_08,object_05,594.10000002384,6,2,281.30000007153,0.8888888888888888,2,object_10,5,3335,0,9,8,library_3,1,memory-2step-stake-s,740,2991296,0.0-19.0-0.1-0.245,A2VGFS03KCCR1Q,3SNR5F7RA597AOC2DOU98SGLOEGIEB,3S3AMIZX3YLERYAWFLS5GRWS5B1CDH,5,6
246,2,object_01,object_06,708.0,3,1,224.79999995232,0.8888888888888888,1,object_03,1,3343,0,8,5,forest_2,1,memory-2step-stake-s,741,2999728,0.0-19.0-0.1-0.246,A2VGFS03KCCR1Q,3SNR5F7RA597AOC2DOU98SGLOEGIEB,3S3AMIZX3YLERYAWFLS5GRWS5B1CDH,3,4
247,1,object_04,object_02,525.60000002384,2,1,253.70000004768,0.7777777777777778,2,object_10,1,3350,0,8,7,desert_2,1,memory-2step-stake-s,742,3008073,0.0-19.0-0.1-0.247,A2VGFS03KCCR1Q,3SNR5F7RA597AOC2DOU98SGLOEGIEB,3S3AMIZX3YLERYAWFLS5GRWS5B1CDH,2,1
248,3,object_08,object_05,387.79999995232,6,2,362.10000002384,0.8888888888888888,2,object_10,1,3358,0,8,8,library_6,1,memory-2step-stake-s,743,3016597,0.0-19.0-0.1-0.248,A2VGFS03KCCR1Q,3SNR5F7RA597AOC2DOU98SGLOEGIEB,3S3AMIZX3YLERYAWFLS5GRWS5B1CDH,5,6
249,3,object_08,object_05,574.40000009537,5,1,309.29999995232,0.8888888888888888,1,object_03,1,3366,0,8,9,library_1,1,memory-2step-stake-s,744,3025037,0.0-19.0-0.1-0.249,A2VGFS03KCCR1Q,3SNR5F7RA597AOC2DOU98SGLOEGIEB,3S3AMIZX3YLERYAWFLS5GRWS5B1CDH,5,6
250,3,object_05,object_08,867.80000007153,5,2,312.60000002384,1.0,1,object_03,5,3411,0,9,9,library_4,1,memory-2step-stake-s,745,3033681,0.0-19.0-0.1-0.250,A2VGFS03KCCR1Q,3SNR5F7RA597AOC2DOU98SGLOEGIEB,3S3AMIZX3YLERYAWFLS5GRWS5B1CDH,6,5
251,4,object_07,object_09,466.89999997616,7,2,681.10000002384,0.8888888888888888,1,object_03,5,3451,0,8,9,restaurant_5,1,memory-2step-stake-s,746,3042575,0.0-19.0-0.1-0.251,A2VGFS03KCCR1Q,3SNR5F7RA597AOC2DOU98SGLOEGIEB,3S3AMIZX3YLERYAWFLS5GRWS5B1CDH,8,7
252,2,object_01,object_06,741.79999995232,3,1,374.39999997616,0.6666666666666666,1,object_03,1,3457,0,6,7,forest_8,1,memory-2step-stake-s,747,3050945,0.0-19.0-0.1-0.252,A2VGFS03KCCR1Q,3SNR5F7RA597AOC2DOU98SGLOEGIEB,3S3AMIZX3YLERYAWFLS5GRWS5B1CDH,3,4
253,4,object_09,object_07,468.39999997616,7,1,276.70000004768,0.6666666666666666,1,object_03,5,3487,0,6,7,restaurant_3,1,memory-2step-stake-s,748,3059189,0.0-19.0-0.1-0.253,A2VGFS03KCCR1Q,3SNR5F7RA597AOC2DOU98SGLOEGIEB,3S3AMIZX3YLERYAWFLS5GRWS5B1CDH,7,8
254,2,object_06,object_01,760.60000002384,3,2,446.5,0.8888888888888888,1,object_03,5,3527,0,8,7,forest_3,1,memory-2step-stake-s,749,3067836,0.0-19.0-0.1-0.254,A2VGFS03KCCR1Q,3SNR5F7RA597AOC2DOU98SGLOEGIEB,3S3AMIZX3YLERYAWFLS5GRWS5B1CDH,4,3
255,3,object_05,object_08,577.80000007153,5,2,758.0,1.0,1,object_03,1,3536,0,9,8,library_1,1,memory-2step-stake-s,750,3076898,0.0-19.0-0.1-0.255,A2VGFS03KCCR1Q,3SNR5F7RA597AOC2DOU98SGLOEGIEB,3S3AMIZX3YLERYAWFLS5GRWS5B1CDH,6,5
