,state1,stim_left,stim_right,rt_1,choice1,response1,rt_2,points,state2,stim_state2,stake,score,practice,rews1,rews2,background,high_arm,trial_type,trial_index,time_elapsed,internal_node_id,subid,hitid,assignmentid,stim_left_num,stim_right_num
0,3,object_08,object_02,-1.0,-1,-1,-1.0,0.0,-,0,1,0,0,1,1,library_1,2,memory-2step-stake-s,505,1542058,0.0-19.0-0.0-0.0,AKFOCQ8TQZDDG,3SA4EMRVKYI00KKCICLEW0FTGRS0PA,3J2UYBXQQPSVCX01TIR7FKKZFY560A,6,5
1,2,object_10,object_07,761.69999998808,3,1,-1.0,0.0,1,object_03,5,0,0,1,2,forest_7,2,memory-2step-stake-s,506,1550591,0.0-19.0-0.0-0.1,AKFOCQ8TQZDDG,3SA4EMRVKYI00KKCICLEW0FTGRS0PA,3J2UYBXQQPSVCX01TIR7FKKZFY560A,3,4
2,2,object_07,object_10,1363.7000000179,4,1,1027.400000006,0.3333333333333333,2,object_06,1,3,0,3,3,forest_5,2,memory-2step-stake-s,507,1559159,0.0-19.0-0.0-0.2,AKFOCQ8TQZDDG,3SA4EMRVKYI00KKCICLEW0FTGRS0PA,3J2UYBXQQPSVCX01TIR7FKKZFY560A,4,3
3,4,object_09,object_05,1228.6999999881,7,2,1293.2999999821,0.6666666666666666,1,object_03,1,9,0,6,3,restaurant_4,2,memory-2step-stake-s,508,1568306,0.0-19.0-0.0-0.3,AKFOCQ8TQZDDG,3SA4EMRVKYI00KKCICLEW0FTGRS0PA,3J2UYBXQQPSVCX01TIR7FKKZFY560A,8,7
4,3,object_08,object_02,867.90000000596,6,1,852.89999997616,1.0,2,object_06,1,18,0,7,9,library_4,2,memory-2step-stake-s,509,1577328,0.0-19.0-0.0-0.4,AKFOCQ8TQZDDG,3SA4EMRVKYI00KKCICLEW0FTGRS0PA,3J2UYBXQQPSVCX01TIR7FKKZFY560A,6,5
5,1,object_01,object_04,1042.5,2,1,544.90000000596,1.0,2,object_06,5,63,0,6,9,desert_6,2,memory-2step-stake-s,510,1586041,0.0-19.0-0.0-0.5,AKFOCQ8TQZDDG,3SA4EMRVKYI00KKCICLEW0FTGRS0PA,3J2UYBXQQPSVCX01TIR7FKKZFY560A,2,1
6,1,object_04,object_01,1295.599999994,2,2,755.90000000596,0.8888888888888888,2,object_06,5,103,0,5,8,desert_5,2,memory-2step-stake-s,511,1594857,0.0-19.0-0.0-0.6,AKFOCQ8TQZDDG,3SA4EMRVKYI00KKCICLEW0FTGRS0PA,3J2UYBXQQPSVCX01TIR7FKKZFY560A,1,2
7,1,object_01,object_04,1016.099999994,2,1,420.40000000596,0.5555555555555556,2,object_06,5,128,0,4,5,desert_7,2,memory-2step-stake-s,512,1603031,0.0-19.0-0.0-0.7,AKFOCQ8TQZDDG,3SA4EMRVKYI00KKCICLEW0FTGRS0PA,3J2UYBXQQPSVCX01TIR7FKKZFY560A,2,1
8,3,object_02,object_08,815.20000001788,5,1,637.30000001192,0.4444444444444444,1,object_03,1,132,0,4,8,library_7,2,memory-2step-stake-s,513,1611320,0.0-19.0-0.0-0.8,AKFOCQ8TQZDDG,3SA4EMRVKYI00KKCICLEW0FTGRS0PA,3J2UYBXQQPSVCX01TIR7FKKZFY560A,5,6
9,1,object_04,object_01,639.0,1,1,406.90000000596,0.5555555555555556,1,object_03,5,157,0,5,8,desert_5,2,memory-2step-stake-s,514,1619481,0.0-19.0-0.0-0.9,AKFOCQ8TQZDDG,3SA4EMRVKYI00KKCICLEW0FTGRS0PA,3J2UYBXQQPSVCX01TIR7FKKZFY560A,1,2
10,3,object_02,object_08,1016.0,6,2,491.60000002384,1.0,2,object_06,1,166,0,5,9,library_8,2,memory-2step-stake-s,515,1628137,0.0-19.0-0.0-0.10,AKFOCQ8TQZDDG,3SA4EMRVKYI00KKCICLEW0FTGRS0PA,3J2UYBXQQPSVCX01TIR7FKKZFY560A,5,6
11,4,object_05,object_09,1107.2999999821,8,2,457.40000000596,0.5555555555555556,2,object_06,1,171,0,6,5,restaurant_4,2,memory-2step-stake-s,516,1636344,0.0-19.0-0.0-0.11,AKFOCQ8TQZDDG,3SA4EMRVKYI00KKCICLEW0FTGRS0PA,3J2UYBXQQPSVCX01TIR7FKKZFY560A,7,8
12,4,object_05,object_09,-1.0,-1,-1,-1.0,0.0,-,0,1,171,0,7,9,restaurant_4,2,memory-2step-stake-s,517,1642869,0.0-19.0-0.0-0.12,AKFOCQ8TQZDDG,3SA4EMRVKYI00KKCICLEW0FTGRS0PA,3J2UYBXQQPSVCX01TIR7FKKZFY560A,7,8
13,2,object_07,object_10,677.30000001192,3,2,481.19999998808,1.0,1,object_03,5,216,0,9,6,forest_8,2,memory-2step-stake-s,518,1651512,0.0-19.0-0.0-0.13,AKFOCQ8TQZDDG,3SA4EMRVKYI00KKCICLEW0FTGRS0PA,3J2UYBXQQPSVCX01TIR7FKKZFY560A,4,3
14,3,object_08,object_02,562.40000000596,6,1,390.30000001192,0.7777777777777778,2,object_06,5,251,0,8,7,library_7,2,memory-2step-stake-s,519,1659852,0.0-19.0-0.0-0.14,AKFOCQ8TQZDDG,3SA4EMRVKYI00KKCICLEW0FTGRS0PA,3J2UYBXQQPSVCX01TIR7FKKZFY560A,6,5
15,2,object_10,object_07,594.90000000596,4,2,505.59999999404,0.2222222222222222,2,object_06,1,253,0,8,2,forest_7,2,memory-2step-stake-s,520,1667800,0.0-19.0-0.0-0.15,AKFOCQ8TQZDDG,3SA4EMRVKYI00KKCICLEW0FTGRS0PA,3J2UYBXQQPSVCX01TIR7FKKZFY560A,3,4
16,4,object_09,object_05,1019.2000000179,7,2,420.39999997616,0.8888888888888888,1,object_03,5,293,0,8,2,restaurant_1,2,memory-2step-stake-s,521,1676281,0.0-19.0-0.0-0.16,AKFOCQ8TQZDDG,3SA4EMRVKYI00KKCICLEW0FTGRS0PA,3J2UYBXQQPSVCX01TIR7FKKZFY560A,8,7
17,4,object_05,object_09,954.70000001788,7,1,395.70000001788,0.4444444444444444,1,object_03,1,297,0,4,2,restaurant_1,2,memory-2step-stake-s,522,1684326,0.0-19.0-0.0-0.17,AKFOCQ8TQZDDG,3SA4EMRVKYI00KKCICLEW0FTGRS0PA,3J2UYBXQQPSVCX01TIR7FKKZFY560A,7,8
18,4,object_05,object_09,485.20000001788,8,2,520.80000001192,0.0,2,object_06,5,297,0,4,0,restaurant_4,2,memory-2step-stake-s,523,1692083,0.0-19.0-0.0-0.18,AKFOCQ8TQZDDG,3SA4EMRVKYI00KKCICLEW0FTGRS0PA,3J2UYBXQQPSVCX01TIR7FKKZFY560A,7,8
19,1,object_01,object_04,572.80000001192,2,1,484.80000001192,0.2222222222222222,2,object_06,1,299,0,5,2,desert_6,2,memory-2step-stake-s,524,1700005,0.0-19.0-0.0-0.19,AKFOCQ8TQZDDG,3SA4EMRVKYI00KKCICLEW0FTGRS0PA,3J2UYBXQQPSVCX01TIR7FKKZFY560A,2,1
20,1,object_04,object_01,438.69999998808,2,2,384.40000000596,0.5555555555555556,2,object_06,5,324,0,1,5,desert_7,2,memory-2step-stake-s,525,1708143,0.0-19.0-0.0-0.20,AKFOCQ8TQZDDG,3SA4EMRVKYI00KKCICLEW0FTGRS0PA,3J2UYBXQQPSVCX01TIR7FKKZFY560A,1,2
21,2,object_07,object_10,475.40000000596,4,1,497.5,0.2222222222222222,2,object_06,5,334,0,2,2,forest_7,2,memory-2step-stake-s,526,1716084,0.0-19.0-0.0-0.21,AKFOCQ8TQZDDG,3SA4EMRVKYI00KKCICLEW0FTGRS0PA,3J2UYBXQQPSVCX01TIR7FKKZFY560A,4,3
22,1,object_01,object_04,774.80000001192,2,1,344.80000001192,0.1111111111111111,2,object_06,5,339,0,1,1,desert_7,2,memory-2step-stake-s,527,1723764,0.0-19.0-0.0-0.22,AKFOCQ8TQZDDG,3SA4EMRVKYI00KKCICLEW0FTGRS0PA,3J2UYBXQQPSVCX01TIR7FKKZFY560A,2,1
23,1,object_01,object_04,778.80000001192,1,2,477.5,0.1111111111111111,1,object_03,5,344,0,1,1,desert_5,2,memory-2step-stake-s,528,1731577,0.0-19.0-0.0-0.23,AKFOCQ8TQZDDG,3SA4EMRVKYI00KKCICLEW0FTGRS0PA,3J2UYBXQQPSVCX01TIR7FKKZFY560A,2,1
24,2,object_10,object_07,654.80000001192,3,1,389.59999999404,0.1111111111111111,1,object_03,5,349,0,1,1,forest_8,2,memory-2step-stake-s,529,1739303,0.0-19.0-0.0-0.24,AKFOCQ8TQZDDG,3SA4EMRVKYI00KKCICLEW0FTGRS0PA,3J2UYBXQQPSVCX01TIR7FKKZFY560A,3,4
25,4,object_05,object_09,662.29999998212,8,2,511.40000000596,0.1111111111111111,2,object_06,1,350,0,2,1,restaurant_7,2,memory-2step-stake-s,530,1747157,0.0-19.0-0.0-0.25,AKFOCQ8TQZDDG,3SA4EMRVKYI00KKCICLEW0FTGRS0PA,3J2UYBXQQPSVCX01TIR7FKKZFY560A,7,8
26,1,object_01,object_04,470.30000001192,2,1,420.39999997616,0.3333333333333333,2,object_06,1,353,0,1,3,desert_6,2,memory-2step-stake-s,531,1755120,0.0-19.0-0.0-0.26,AKFOCQ8TQZDDG,3SA4EMRVKYI00KKCICLEW0FTGRS0PA,3J2UYBXQQPSVCX01TIR7FKKZFY560A,2,1
27,2,object_07,object_10,863.40000000596,3,2,352.10000002384,0.2222222222222222,1,object_03,5,363,0,2,4,forest_7,2,memory-2step-stake-s,532,1762917,0.0-19.0-0.0-0.27,AKFOCQ8TQZDDG,3SA4EMRVKYI00KKCICLEW0FTGRS0PA,3J2UYBXQQPSVCX01TIR7FKKZFY560A,4,3
28,4,object_05,object_09,1001.900000006,8,2,418.90000000596,0.1111111111111111,2,object_06,1,364,0,1,1,restaurant_5,2,memory-2step-stake-s,533,1770672,0.0-19.0-0.0-0.28,AKFOCQ8TQZDDG,3SA4EMRVKYI00KKCICLEW0FTGRS0PA,3J2UYBXQQPSVCX01TIR7FKKZFY560A,7,8
29,1,object_04,object_01,540.09999999404,1,1,573.90000000596,0.3333333333333333,1,object_03,1,367,0,3,0,desert_7,2,memory-2step-stake-s,534,1778793,0.0-19.0-0.0-0.29,AKFOCQ8TQZDDG,3SA4EMRVKYI00KKCICLEW0FTGRS0PA,3J2UYBXQQPSVCX01TIR7FKKZFY560A,1,2
30,2,object_10,object_07,910.59999999404,4,2,644.0,0.0,2,object_06,1,367,0,2,0,forest_5,2,memory-2step-stake-s,535,1786669,0.0-19.0-0.0-0.30,AKFOCQ8TQZDDG,3SA4EMRVKYI00KKCICLEW0FTGRS0PA,3J2UYBXQQPSVCX01TIR7FKKZFY560A,3,4
31,3,object_02,object_08,631.80000001192,5,1,507.59999999404,0.1111111111111111,1,object_03,1,368,0,1,0,library_8,2,memory-2step-stake-s,536,1794512,0.0-19.0-0.0-0.31,AKFOCQ8TQZDDG,3SA4EMRVKYI00KKCICLEW0FTGRS0PA,3J2UYBXQQPSVCX01TIR7FKKZFY560A,5,6
32,1,object_01,object_04,510.59999999404,2,1,452.80000001192,0.1111111111111111,2,object_06,5,373,0,5,1,desert_7,2,memory-2step-stake-s,537,1802302,0.0-19.0-0.0-0.32,AKFOCQ8TQZDDG,3SA4EMRVKYI00KKCICLEW0FTGRS0PA,3J2UYBXQQPSVCX01TIR7FKKZFY560A,2,1
33,4,object_09,object_05,958.59999999404,7,2,483.30000001192,1.0,1,object_03,5,418,0,9,1,restaurant_4,2,memory-2step-stake-s,538,1810950,0.0-19.0-0.0-0.33,AKFOCQ8TQZDDG,3SA4EMRVKYI00KKCICLEW0FTGRS0PA,3J2UYBXQQPSVCX01TIR7FKKZFY560A,8,7
34,4,object_09,object_05,808.70000001788,7,2,932.90000000596,0.7777777777777778,1,object_03,1,425,0,7,2,restaurant_5,2,memory-2step-stake-s,539,1819843,0.0-19.0-0.0-0.34,AKFOCQ8TQZDDG,3SA4EMRVKYI00KKCICLEW0FTGRS0PA,3J2UYBXQQPSVCX01TIR7FKKZFY560A,8,7
35,3,object_02,object_08,800.5,5,1,289.29999998212,0.8888888888888888,1,object_03,5,465,0,8,4,library_1,2,memory-2step-stake-s,540,1828190,0.0-19.0-0.0-0.35,AKFOCQ8TQZDDG,3SA4EMRVKYI00KKCICLEW0FTGRS0PA,3J2UYBXQQPSVCX01TIR7FKKZFY560A,5,6
36,3,object_08,object_02,690.09999999404,6,1,421.09999999404,0.1111111111111111,2,object_06,1,466,0,9,1,library_7,2,memory-2step-stake-s,541,1835948,0.0-19.0-0.0-0.36,AKFOCQ8TQZDDG,3SA4EMRVKYI00KKCICLEW0FTGRS0PA,3J2UYBXQQPSVCX01TIR7FKKZFY560A,6,5
37,2,object_10,object_07,1282.7999999821,4,2,360.5,0.1111111111111111,2,object_06,5,471,0,4,1,forest_2,2,memory-2step-stake-s,542,1843648,0.0-19.0-0.0-0.37,AKFOCQ8TQZDDG,3SA4EMRVKYI00KKCICLEW0FTGRS0PA,3J2UYBXQQPSVCX01TIR7FKKZFY560A,3,4
38,3,object_02,object_08,1220.0,5,1,425.09999999404,0.4444444444444444,1,object_03,5,491,0,4,1,library_8,2,memory-2step-stake-s,543,1851723,0.0-19.0-0.0-0.38,AKFOCQ8TQZDDG,3SA4EMRVKYI00KKCICLEW0FTGRS0PA,3J2UYBXQQPSVCX01TIR7FKKZFY560A,5,6
39,1,object_01,object_04,963.30000001192,1,2,286.59999999404,0.1111111111111111,1,object_03,5,496,0,1,1,desert_7,2,memory-2step-stake-s,544,1859339,0.0-19.0-0.0-0.39,AKFOCQ8TQZDDG,3SA4EMRVKYI00KKCICLEW0FTGRS0PA,3J2UYBXQQPSVCX01TIR7FKKZFY560A,2,1
40,3,object_02,object_08,935.19999998808,5,1,231.19999998808,0.2222222222222222,1,object_03,1,498,0,2,1,library_1,2,memory-2step-stake-s,545,1867007,0.0-19.0-0.0-0.40,AKFOCQ8TQZDDG,3SA4EMRVKYI00KKCICLEW0FTGRS0PA,3J2UYBXQQPSVCX01TIR7FKKZFY560A,5,6
41,1,object_01,object_04,893.0,1,2,422.80000001192,0.4444444444444444,1,object_03,5,518,0,4,1,desert_6,2,memory-2step-stake-s,546,1875076,0.0-19.0-0.0-0.41,AKFOCQ8TQZDDG,3SA4EMRVKYI00KKCICLEW0FTGRS0PA,3J2UYBXQQPSVCX01TIR7FKKZFY560A,2,1
42,2,object_10,object_07,871.59999999404,3,1,575.69999998808,0.3333333333333333,1,object_03,5,533,0,3,1,forest_7,2,memory-2step-stake-s,547,1883196,0.0-19.0-0.0-0.42,AKFOCQ8TQZDDG,3SA4EMRVKYI00KKCICLEW0FTGRS0PA,3J2UYBXQQPSVCX01TIR7FKKZFY560A,3,4
43,3,object_02,object_08,709.90000000596,6,2,636.40000000596,0.0,2,object_06,1,533,0,4,0,library_1,2,memory-2step-stake-s,548,1891063,0.0-19.0-0.0-0.43,AKFOCQ8TQZDDG,3SA4EMRVKYI00KKCICLEW0FTGRS0PA,3J2UYBXQQPSVCX01TIR7FKKZFY560A,5,6
44,2,object_07,object_10,714.89999997616,4,1,450.10000002384,0.2222222222222222,2,object_06,5,543,0,1,2,forest_7,2,memory-2step-stake-s,549,1898954,0.0-19.0-0.0-0.44,AKFOCQ8TQZDDG,3SA4EMRVKYI00KKCICLEW0FTGRS0PA,3J2UYBXQQPSVCX01TIR7FKKZFY560A,4,3
45,4,object_05,object_09,586.0,7,1,456.40000000596,0.3333333333333333,1,object_03,1,546,0,3,3,restaurant_1,2,memory-2step-stake-s,550,1906950,0.0-19.0-0.0-0.45,AKFOCQ8TQZDDG,3SA4EMRVKYI00KKCICLEW0FTGRS0PA,3J2UYBXQQPSVCX01TIR7FKKZFY560A,7,8
46,4,object_05,object_09,783.5,7,1,448.40000000596,0.4444444444444444,1,object_03,1,550,0,4,2,restaurant_1,2,memory-2step-stake-s,551,1915047,0.0-19.0-0.0-0.46,AKFOCQ8TQZDDG,3SA4EMRVKYI00KKCICLEW0FTGRS0PA,3J2UYBXQQPSVCX01TIR7FKKZFY560A,7,8
47,4,object_05,object_09,568.09999999404,8,2,240.5,0.1111111111111111,2,object_06,1,551,0,3,1,restaurant_5,2,memory-2step-stake-s,552,1922622,0.0-19.0-0.0-0.47,AKFOCQ8TQZDDG,3SA4EMRVKYI00KKCICLEW0FTGRS0PA,3J2UYBXQQPSVCX01TIR7FKKZFY560A,7,8
48,4,object_05,object_09,510.09999999404,7,1,253.09999999404,0.3333333333333333,1,object_03,5,566,0,3,1,restaurant_7,2,memory-2step-stake-s,553,1930424,0.0-19.0-0.0-0.48,AKFOCQ8TQZDDG,3SA4EMRVKYI00KKCICLEW0FTGRS0PA,3J2UYBXQQPSVCX01TIR7FKKZFY560A,7,8
49,1,object_04,object_01,941.80000001192,1,1,338.0,0.4444444444444444,1,object_03,5,586,0,4,3,desert_7,2,memory-2step-stake-s,554,1938417,0.0-19.0-0.0-0.49,AKFOCQ8TQZDDG,3SA4EMRVKYI00KKCICLEW0FTGRS0PA,3J2UYBXQQPSVCX01TIR7FKKZFY560A,1,2
50,4,object_09,object_05,593.89999997616,7,2,400.69999998808,0.4444444444444444,1,object_03,1,590,0,4,2,restaurant_5,2,memory-2step-stake-s,555,1946468,0.0-19.0-0.0-0.50,AKFOCQ8TQZDDG,3SA4EMRVKYI00KKCICLEW0FTGRS0PA,3J2UYBXQQPSVCX01TIR7FKKZFY560A,8,7
51,1,object_04,object_01,632.90000000596,1,1,261.40000000596,0.2222222222222222,1,object_03,5,600,0,2,0,desert_7,2,memory-2step-stake-s,556,1954170,0.0-19.0-0.0-0.51,AKFOCQ8TQZDDG,3SA4EMRVKYI00KKCICLEW0FTGRS0PA,3J2UYBXQQPSVCX01TIR7FKKZFY560A,1,2
52,4,object_09,object_05,439.40000000596,8,1,290.19999998808,0.1111111111111111,2,object_06,1,601,0,3,1,restaurant_7,2,memory-2step-stake-s,557,1961799,0.0-19.0-0.0-0.52,AKFOCQ8TQZDDG,3SA4EMRVKYI00KKCICLEW0FTGRS0PA,3J2UYBXQQPSVCX01TIR7FKKZFY560A,8,7
53,2,object_07,object_10,935.30000001192,4,1,514.5,0.2222222222222222,2,object_06,5,611,0,4,2,forest_5,2,memory-2step-stake-s,558,1969751,0.0-19.0-0.0-0.53,AKFOCQ8TQZDDG,3SA4EMRVKYI00KKCICLEW0FTGRS0PA,3J2UYBXQQPSVCX01TIR7FKKZFY560A,4,3
54,3,object_08,object_02,852.5,5,2,408.30000001192,0.2222222222222222,1,object_03,1,613,0,2,1,library_7,2,memory-2step-stake-s,559,1977599,0.0-19.0-0.0-0.54,AKFOCQ8TQZDDG,3SA4EMRVKYI00KKCICLEW0FTGRS0PA,3J2UYBXQQPSVCX01TIR7FKKZFY560A,6,5
55,4,object_05,object_09,724.40000000596,8,2,272.0,0.0,2,object_06,5,613,0,2,0,restaurant_5,2,memory-2step-stake-s,560,1985099,0.0-19.0-0.0-0.55,AKFOCQ8TQZDDG,3SA4EMRVKYI00KKCICLEW0FTGRS0PA,3J2UYBXQQPSVCX01TIR7FKKZFY560A,7,8
56,4,object_05,object_09,851.5,8,2,302.59999999404,0.5555555555555556,2,object_06,1,618,0,3,5,restaurant_7,2,memory-2step-stake-s,561,1993150,0.0-19.0-0.0-0.56,AKFOCQ8TQZDDG,3SA4EMRVKYI00KKCICLEW0FTGRS0PA,3J2UYBXQQPSVCX01TIR7FKKZFY560A,7,8
57,3,object_08,object_02,974.40000000596,5,2,278.80000001192,0.4444444444444444,1,object_03,1,622,0,4,7,library_4,2,memory-2step-stake-s,562,2001073,0.0-19.0-0.0-0.57,AKFOCQ8TQZDDG,3SA4EMRVKYI00KKCICLEW0FTGRS0PA,3J2UYBXQQPSVCX01TIR7FKKZFY560A,6,5
58,2,object_07,object_10,439.19999998808,4,1,409.40000000596,0.7777777777777778,2,object_06,1,629,0,4,7,forest_8,2,memory-2step-stake-s,563,2009444,0.0-19.0-0.0-0.58,AKFOCQ8TQZDDG,3SA4EMRVKYI00KKCICLEW0FTGRS0PA,3J2UYBXQQPSVCX01TIR7FKKZFY560A,4,3
59,2,object_10,object_07,839.0,4,2,328.5,0.7777777777777778,2,object_06,5,664,0,5,7,forest_5,2,memory-2step-stake-s,564,2017732,0.0-19.0-0.0-0.59,AKFOCQ8TQZDDG,3SA4EMRVKYI00KKCICLEW0FTGRS0PA,3J2UYBXQQPSVCX01TIR7FKKZFY560A,3,4
60,4,object_05,object_09,1174.900000006,7,1,602.40000000596,0.6666666666666666,1,object_03,1,670,0,6,5,restaurant_7,2,memory-2step-stake-s,565,2026182,0.0-19.0-0.0-0.60,AKFOCQ8TQZDDG,3SA4EMRVKYI00KKCICLEW0FTGRS0PA,3J2UYBXQQPSVCX01TIR7FKKZFY560A,7,8
61,1,object_01,object_04,725.59999999404,1,2,283.69999998808,0.4444444444444444,1,object_03,1,674,0,4,3,desert_1,2,memory-2step-stake-s,566,2034114,0.0-19.0-0.0-0.61,AKFOCQ8TQZDDG,3SA4EMRVKYI00KKCICLEW0FTGRS0PA,3J2UYBXQQPSVCX01TIR7FKKZFY560A,2,1
62,1,object_04,object_01,950.40000000596,1,1,336.0,0.2222222222222222,1,object_03,5,684,0,2,1,desert_5,2,memory-2step-stake-s,567,2041892,0.0-19.0-0.0-0.62,AKFOCQ8TQZDDG,3SA4EMRVKYI00KKCICLEW0FTGRS0PA,3J2UYBXQQPSVCX01TIR7FKKZFY560A,1,2
63,1,object_04,object_01,646.69999998808,2,2,284.5,0.2222222222222222,2,object_06,5,694,0,1,2,desert_5,2,memory-2step-stake-s,568,2049618,0.0-19.0-0.0-0.63,AKFOCQ8TQZDDG,3SA4EMRVKYI00KKCICLEW0FTGRS0PA,3J2UYBXQQPSVCX01TIR7FKKZFY560A,1,2
64,2,object_10,object_07,914.69999998808,4,2,255.30000001192,0.5555555555555556,2,object_06,5,719,0,1,5,forest_8,2,memory-2step-stake-s,569,2057625,0.0-19.0-0.0-0.64,AKFOCQ8TQZDDG,3SA4EMRVKYI00KKCICLEW0FTGRS0PA,3J2UYBXQQPSVCX01TIR7FKKZFY560A,3,4
65,3,object_08,object_02,838.70000001788,5,2,339.29999998212,0.6666666666666666,1,object_03,1,725,0,6,5,library_1,2,memory-2step-stake-s,570,2065821,0.0-19.0-0.0-0.65,AKFOCQ8TQZDDG,3SA4EMRVKYI00KKCICLEW0FTGRS0PA,3J2UYBXQQPSVCX01TIR7FKKZFY560A,6,5
66,4,object_09,object_05,680.40000000596,7,2,288.69999998808,0.2222222222222222,1,object_03,1,727,0,2,4,restaurant_7,2,memory-2step-stake-s,571,2073551,0.0-19.0-0.0-0.66,AKFOCQ8TQZDDG,3SA4EMRVKYI00KKCICLEW0FTGRS0PA,3J2UYBXQQPSVCX01TIR7FKKZFY560A,8,7
67,2,object_10,object_07,749.90000000596,3,1,313.0,0.4444444444444444,1,object_03,1,731,0,4,5,forest_2,2,memory-2step-stake-s,572,2081509,0.0-19.0-0.0-0.67,AKFOCQ8TQZDDG,3SA4EMRVKYI00KKCICLEW0FTGRS0PA,3J2UYBXQQPSVCX01TIR7FKKZFY560A,3,4
68,3,object_02,object_08,933.5,6,2,298.09999999404,0.7777777777777778,2,object_06,1,738,0,1,7,library_8,2,memory-2step-stake-s,573,2089765,0.0-19.0-0.0-0.68,AKFOCQ8TQZDDG,3SA4EMRVKYI00KKCICLEW0FTGRS0PA,3J2UYBXQQPSVCX01TIR7FKKZFY560A,5,6
69,4,object_05,object_09,977.40000000596,7,1,326.39999997616,0.2222222222222222,1,object_03,5,748,0,2,8,restaurant_5,2,memory-2step-stake-s,574,2097531,0.0-19.0-0.0-0.69,AKFOCQ8TQZDDG,3SA4EMRVKYI00KKCICLEW0FTGRS0PA,3J2UYBXQQPSVCX01TIR7FKKZFY560A,7,8
70,1,object_01,object_04,665.0,1,2,328.40000000596,0.2222222222222222,1,object_03,5,758,0,2,8,desert_7,2,memory-2step-stake-s,575,2105303,0.0-19.0-0.0-0.70,AKFOCQ8TQZDDG,3SA4EMRVKYI00KKCICLEW0FTGRS0PA,3J2UYBXQQPSVCX01TIR7FKKZFY560A,2,1
71,1,object_04,object_01,609.59999999404,1,1,416.09999999404,0.0,1,object_03,5,758,0,0,7,desert_5,2,memory-2step-stake-s,576,2112954,0.0-19.0-0.0-0.71,AKFOCQ8TQZDDG,3SA4EMRVKYI00KKCICLEW0FTGRS0PA,3J2UYBXQQPSVCX01TIR7FKKZFY560A,1,2
72,2,object_07,object_10,891.59999999404,4,1,458.20000001788,0.7777777777777778,2,object_06,5,793,0,4,7,forest_8,2,memory-2step-stake-s,577,2121376,0.0-19.0-0.0-0.72,AKFOCQ8TQZDDG,3SA4EMRVKYI00KKCICLEW0FTGRS0PA,3J2UYBXQQPSVCX01TIR7FKKZFY560A,4,3
73,3,object_08,object_02,1409.5,5,2,383.30000001192,0.5555555555555556,1,object_03,1,798,0,5,6,library_7,2,memory-2step-stake-s,578,2129504,0.0-19.0-0.0-0.73,AKFOCQ8TQZDDG,3SA4EMRVKYI00KKCICLEW0FTGRS0PA,3J2UYBXQQPSVCX01TIR7FKKZFY560A,6,5
74,1,object_01,object_04,836.59999999404,1,2,372.5,0.6666666666666666,1,object_03,1,804,0,6,7,desert_6,2,memory-2step-stake-s,579,2137740,0.0-19.0-0.0-0.74,AKFOCQ8TQZDDG,3SA4EMRVKYI00KKCICLEW0FTGRS0PA,3J2UYBXQQPSVCX01TIR7FKKZFY560A,2,1
75,2,object_07,object_10,839.80000001192,4,1,305.80000001192,0.8888888888888888,2,object_06,5,844,0,7,8,forest_5,2,memory-2step-stake-s,580,2146111,0.0-19.0-0.0-0.75,AKFOCQ8TQZDDG,3SA4EMRVKYI00KKCICLEW0FTGRS0PA,3J2UYBXQQPSVCX01TIR7FKKZFY560A,4,3
76,2,object_07,object_10,444.69999998808,4,1,341.5,0.6666666666666666,2,object_06,5,874,0,5,6,forest_5,2,memory-2step-stake-s,581,2154306,0.0-19.0-0.0-0.76,AKFOCQ8TQZDDG,3SA4EMRVKYI00KKCICLEW0FTGRS0PA,3J2UYBXQQPSVCX01TIR7FKKZFY560A,4,3
77,2,object_07,object_10,410.60000002384,4,1,-1.0,0.0,2,object_06,5,874,0,6,6,forest_2,2,memory-2step-stake-s,582,2162836,0.0-19.0-0.0-0.77,AKFOCQ8TQZDDG,3SA4EMRVKYI00KKCICLEW0FTGRS0PA,3J2UYBXQQPSVCX01TIR7FKKZFY560A,4,3
78,3,object_08,object_02,821.59999999404,5,2,372.0,0.4444444444444444,1,object_03,1,878,0,4,7,library_7,2,memory-2step-stake-s,583,2170856,0.0-19.0-0.0-0.78,AKFOCQ8TQZDDG,3SA4EMRVKYI00KKCICLEW0FTGRS0PA,3J2UYBXQQPSVCX01TIR7FKKZFY560A,6,5
79,2,object_10,object_07,524.30000001192,4,2,293.19999998808,0.7777777777777778,2,object_06,5,913,0,4,7,forest_7,2,memory-2step-stake-s,584,2179104,0.0-19.0-0.0-0.79,AKFOCQ8TQZDDG,3SA4EMRVKYI00KKCICLEW0FTGRS0PA,3J2UYBXQQPSVCX01TIR7FKKZFY560A,3,4
80,4,object_05,object_09,825.19999998808,7,1,382.59999999404,0.6666666666666666,1,object_03,5,943,0,6,8,restaurant_4,2,memory-2step-stake-s,585,2187345,0.0-19.0-0.0-0.80,AKFOCQ8TQZDDG,3SA4EMRVKYI00KKCICLEW0FTGRS0PA,3J2UYBXQQPSVCX01TIR7FKKZFY560A,7,8
81,3,object_02,object_08,868.39999997616,6,2,412.09999999404,0.5555555555555556,2,object_06,1,948,0,8,5,library_4,2,memory-2step-stake-s,586,2195515,0.0-19.0-0.0-0.81,AKFOCQ8TQZDDG,3SA4EMRVKYI00KKCICLEW0FTGRS0PA,3J2UYBXQQPSVCX01TIR7FKKZFY560A,5,6
82,1,object_01,object_04,729.69999998808,1,2,273.60000002384,0.6666666666666666,1,object_03,5,978,0,6,5,desert_1,2,memory-2step-stake-s,587,2203647,0.0-19.0-0.0-0.82,AKFOCQ8TQZDDG,3SA4EMRVKYI00KKCICLEW0FTGRS0PA,3J2UYBXQQPSVCX01TIR7FKKZFY560A,2,1
83,4,object_05,object_09,638.40000000596,7,1,438.80000001192,0.8888888888888888,1,object_03,5,1018,0,8,7,restaurant_1,2,memory-2step-stake-s,588,2212145,0.0-19.0-0.0-0.83,AKFOCQ8TQZDDG,3SA4EMRVKYI00KKCICLEW0FTGRS0PA,3J2UYBXQQPSVCX01TIR7FKKZFY560A,7,8
84,4,object_05,object_09,689.40000000596,7,1,270.70000001788,0.6666666666666666,1,object_03,1,1024,0,6,8,restaurant_1,2,memory-2step-stake-s,589,2220277,0.0-19.0-0.0-0.84,AKFOCQ8TQZDDG,3SA4EMRVKYI00KKCICLEW0FTGRS0PA,3J2UYBXQQPSVCX01TIR7FKKZFY560A,7,8
85,2,object_10,object_07,427.59999999404,4,2,272.09999999404,0.8888888888888888,2,object_06,5,1064,0,6,8,forest_7,2,memory-2step-stake-s,590,2228609,0.0-19.0-0.0-0.85,AKFOCQ8TQZDDG,3SA4EMRVKYI00KKCICLEW0FTGRS0PA,3J2UYBXQQPSVCX01TIR7FKKZFY560A,3,4
86,2,object_07,object_10,493.90000000596,4,1,250.29999998212,1.0,2,object_06,5,1109,0,8,9,forest_5,2,memory-2step-stake-s,591,2237030,0.0-19.0-0.0-0.86,AKFOCQ8TQZDDG,3SA4EMRVKYI00KKCICLEW0FTGRS0PA,3J2UYBXQQPSVCX01TIR7FKKZFY560A,4,3
87,1,object_04,object_01,796.79999998212,1,1,237.39999997616,0.4444444444444444,1,object_03,5,1129,0,4,9,desert_7,2,memory-2step-stake-s,592,2244918,0.0-19.0-0.0-0.87,AKFOCQ8TQZDDG,3SA4EMRVKYI00KKCICLEW0FTGRS0PA,3J2UYBXQQPSVCX01TIR7FKKZFY560A,1,2
88,3,object_08,object_02,594.19999998808,5,2,239.90000000596,0.3333333333333333,1,object_03,1,1132,0,3,9,library_7,2,memory-2step-stake-s,593,2252709,0.0-19.0-0.0-0.88,AKFOCQ8TQZDDG,3SA4EMRVKYI00KKCICLEW0FTGRS0PA,3J2UYBXQQPSVCX01TIR7FKKZFY560A,6,5
89,2,object_07,object_10,426.20000001788,4,1,254.80000001192,0.6666666666666666,2,object_06,5,1162,0,3,6,forest_8,2,memory-2step-stake-s,594,2260821,0.0-19.0-0.0-0.89,AKFOCQ8TQZDDG,3SA4EMRVKYI00KKCICLEW0FTGRS0PA,3J2UYBXQQPSVCX01TIR7FKKZFY560A,4,3
90,3,object_02,object_08,737.0,6,2,480.40000000596,0.8888888888888888,2,object_06,1,1170,0,6,8,library_4,2,memory-2step-stake-s,595,2269362,0.0-19.0-0.0-0.90,AKFOCQ8TQZDDG,3SA4EMRVKYI00KKCICLEW0FTGRS0PA,3J2UYBXQQPSVCX01TIR7FKKZFY560A,5,6
91,4,object_05,object_09,749.09999999404,7,1,355.90000000596,0.7777777777777778,1,object_03,1,1177,0,7,7,restaurant_1,2,memory-2step-stake-s,596,2277687,0.0-19.0-0.0-0.91,AKFOCQ8TQZDDG,3SA4EMRVKYI00KKCICLEW0FTGRS0PA,3J2UYBXQQPSVCX01TIR7FKKZFY560A,7,8
92,4,object_09,object_05,617.29999998212,8,1,216.30000001192,0.5555555555555556,2,object_06,1,1182,0,6,5,restaurant_1,2,memory-2step-stake-s,597,2285651,0.0-19.0-0.0-0.92,AKFOCQ8TQZDDG,3SA4EMRVKYI00KKCICLEW0FTGRS0PA,3J2UYBXQQPSVCX01TIR7FKKZFY560A,8,7
93,1,object_01,object_04,741.5,1,2,244.40000000596,0.3333333333333333,1,object_03,1,1185,0,3,5,desert_1,2,memory-2step-stake-s,598,2293440,0.0-19.0-0.0-0.93,AKFOCQ8TQZDDG,3SA4EMRVKYI00KKCICLEW0FTGRS0PA,3J2UYBXQQPSVCX01TIR7FKKZFY560A,2,1
94,4,object_09,object_05,1355.2000000179,8,1,482.89999997616,0.7777777777777778,2,object_06,5,1220,0,0,7,restaurant_7,2,memory-2step-stake-s,599,2301886,0.0-19.0-0.0-0.94,AKFOCQ8TQZDDG,3SA4EMRVKYI00KKCICLEW0FTGRS0PA,3J2UYBXQQPSVCX01TIR7FKKZFY560A,8,7
95,1,object_04,object_01,1097.1999999881,2,2,404.5,1.0,2,object_06,5,1265,0,0,9,desert_6,2,memory-2step-stake-s,600,2310459,0.0-19.0-0.0-0.95,AKFOCQ8TQZDDG,3SA4EMRVKYI00KKCICLEW0FTGRS0PA,3J2UYBXQQPSVCX01TIR7FKKZFY560A,1,2
96,3,object_02,object_08,1103.400000006,5,1,316.29999998212,0.0,1,object_03,1,1265,0,0,3,library_1,2,memory-2step-stake-s,601,2318004,0.0-19.0-0.0-0.96,AKFOCQ8TQZDDG,3SA4EMRVKYI00KKCICLEW0FTGRS0PA,3J2UYBXQQPSVCX01TIR7FKKZFY560A,5,6
97,2,object_10,object_07,1175.400000006,4,2,411.19999998808,0.5555555555555556,2,object_06,5,1290,0,1,5,forest_8,2,memory-2step-stake-s,602,2326162,0.0-19.0-0.0-0.97,AKFOCQ8TQZDDG,3SA4EMRVKYI00KKCICLEW0FTGRS0PA,3J2UYBXQQPSVCX01TIR7FKKZFY560A,3,4
98,2,object_07,object_10,690.70000001788,4,1,310.09999999404,0.5555555555555556,2,object_06,5,1315,0,1,5,forest_7,2,memory-2step-stake-s,603,2334224,0.0-19.0-0.0-0.98,AKFOCQ8TQZDDG,3SA4EMRVKYI00KKCICLEW0FTGRS0PA,3J2UYBXQQPSVCX01TIR7FKKZFY560A,4,3
99,2,object_10,object_07,740.70000001788,3,1,276.69999998808,0.2222222222222222,1,object_03,5,1325,0,2,2,forest_5,2,memory-2step-stake-s,604,2341944,0.0-19.0-0.0-0.99,AKFOCQ8TQZDDG,3SA4EMRVKYI00KKCICLEW0FTGRS0PA,3J2UYBXQQPSVCX01TIR7FKKZFY560A,3,4
100,1,object_01,object_04,618.69999998808,2,1,287.30000001192,0.2222222222222222,2,object_06,5,1335,0,1,2,desert_5,2,memory-2step-stake-s,605,2349671,0.0-19.0-0.0-0.100,AKFOCQ8TQZDDG,3SA4EMRVKYI00KKCICLEW0FTGRS0PA,3J2UYBXQQPSVCX01TIR7FKKZFY560A,2,1
101,1,object_04,object_01,962.90000000596,1,1,285.30000001192,0.0,1,object_03,1,1335,0,0,1,desert_6,2,memory-2step-stake-s,606,2357190,0.0-19.0-0.0-0.101,AKFOCQ8TQZDDG,3SA4EMRVKYI00KKCICLEW0FTGRS0PA,3J2UYBXQQPSVCX01TIR7FKKZFY560A,1,2
102,2,object_10,object_07,741.70000001788,4,2,429.29999998212,0.2222222222222222,2,object_06,5,1345,0,1,2,forest_2,2,memory-2step-stake-s,607,2365059,0.0-19.0-0.0-0.102,AKFOCQ8TQZDDG,3SA4EMRVKYI00KKCICLEW0FTGRS0PA,3J2UYBXQQPSVCX01TIR7FKKZFY560A,3,4
103,1,object_01,object_04,1151.2999999821,1,2,279.09999999404,0.0,1,object_03,5,1345,0,0,3,desert_6,2,memory-2step-stake-s,608,2372571,0.0-19.0-0.0-0.103,AKFOCQ8TQZDDG,3SA4EMRVKYI00KKCICLEW0FTGRS0PA,3J2UYBXQQPSVCX01TIR7FKKZFY560A,2,1
104,1,object_04,object_01,887.0,2,2,129.80000001192,0.3333333333333333,2,object_06,5,1360,0,1,3,desert_1,2,memory-2step-stake-s,609,2380250,0.0-19.0-0.0-0.104,AKFOCQ8TQZDDG,3SA4EMRVKYI00KKCICLEW0FTGRS0PA,3J2UYBXQQPSVCX01TIR7FKKZFY560A,1,2
105,2,object_10,object_07,948.5,3,1,239.5,0.5555555555555556,1,object_03,1,1365,0,5,2,forest_2,2,memory-2step-stake-s,610,2388233,0.0-19.0-0.0-0.105,AKFOCQ8TQZDDG,3SA4EMRVKYI00KKCICLEW0FTGRS0PA,3J2UYBXQQPSVCX01TIR7FKKZFY560A,3,4
106,1,object_04,object_01,1157.7999999821,1,1,434.5,0.7777777777777778,1,object_03,1,1372,0,7,2,desert_6,2,memory-2step-stake-s,611,2396626,0.0-19.0-0.0-0.106,AKFOCQ8TQZDDG,3SA4EMRVKYI00KKCICLEW0FTGRS0PA,3J2UYBXQQPSVCX01TIR7FKKZFY560A,1,2
107,2,object_10,object_07,805.60000002384,3,1,306.09999999404,0.7777777777777778,1,object_03,5,1407,0,7,1,forest_7,2,memory-2step-stake-s,612,2404891,0.0-19.0-0.0-0.107,AKFOCQ8TQZDDG,3SA4EMRVKYI00KKCICLEW0FTGRS0PA,3J2UYBXQQPSVCX01TIR7FKKZFY560A,3,4
108,2,object_10,object_07,569.10000002384,3,1,351.09999999404,0.5555555555555556,1,object_03,5,1432,0,5,4,forest_7,2,memory-2step-stake-s,613,2412995,0.0-19.0-0.0-0.108,AKFOCQ8TQZDDG,3SA4EMRVKYI00KKCICLEW0FTGRS0PA,3J2UYBXQQPSVCX01TIR7FKKZFY560A,3,4
109,1,object_04,object_01,935.30000001192,2,2,214.70000001788,0.7777777777777778,2,object_06,5,1467,0,7,7,desert_6,2,memory-2step-stake-s,614,2421180,0.0-19.0-0.0-0.109,AKFOCQ8TQZDDG,3SA4EMRVKYI00KKCICLEW0FTGRS0PA,3J2UYBXQQPSVCX01TIR7FKKZFY560A,1,2
110,4,object_09,object_05,987.90000000596,7,2,299.30000001192,0.7777777777777778,1,object_03,5,1502,0,7,8,restaurant_1,2,memory-2step-stake-s,615,2429433,0.0-19.0-0.0-0.110,AKFOCQ8TQZDDG,3SA4EMRVKYI00KKCICLEW0FTGRS0PA,3J2UYBXQQPSVCX01TIR7FKKZFY560A,8,7
111,2,object_07,object_10,776.70000001788,3,2,140.70000001788,0.5555555555555556,1,object_03,1,1507,0,5,8,forest_2,2,memory-2step-stake-s,616,2437327,0.0-19.0-0.0-0.111,AKFOCQ8TQZDDG,3SA4EMRVKYI00KKCICLEW0FTGRS0PA,3J2UYBXQQPSVCX01TIR7FKKZFY560A,4,3
112,4,object_09,object_05,698.0,8,1,358.0,0.8888888888888888,2,object_06,1,1515,0,6,8,restaurant_1,2,memory-2step-stake-s,617,2445757,0.0-19.0-0.0-0.112,AKFOCQ8TQZDDG,3SA4EMRVKYI00KKCICLEW0FTGRS0PA,3J2UYBXQQPSVCX01TIR7FKKZFY560A,8,7
113,2,object_07,object_10,1141.599999994,3,2,303.0,0.7777777777777778,1,object_03,5,1550,0,7,7,forest_7,2,memory-2step-stake-s,618,2454011,0.0-19.0-0.0-0.113,AKFOCQ8TQZDDG,3SA4EMRVKYI00KKCICLEW0FTGRS0PA,3J2UYBXQQPSVCX01TIR7FKKZFY560A,4,3
114,1,object_04,object_01,1482.0,2,2,292.39999997616,0.7777777777777778,2,object_06,5,1585,0,7,7,desert_5,2,memory-2step-stake-s,619,2462264,0.0-19.0-0.0-0.114,AKFOCQ8TQZDDG,3SA4EMRVKYI00KKCICLEW0FTGRS0PA,3J2UYBXQQPSVCX01TIR7FKKZFY560A,1,2
115,4,object_05,object_09,985.19999998808,7,1,246.40000000596,0.7777777777777778,1,object_03,1,1592,0,7,5,restaurant_7,2,memory-2step-stake-s,620,2470473,0.0-19.0-0.0-0.115,AKFOCQ8TQZDDG,3SA4EMRVKYI00KKCICLEW0FTGRS0PA,3J2UYBXQQPSVCX01TIR7FKKZFY560A,7,8
116,1,object_04,object_01,1002.2999999821,1,1,178.09999999404,0.7777777777777778,1,object_03,5,1627,0,7,6,desert_5,2,memory-2step-stake-s,621,2478618,0.0-19.0-0.0-0.116,AKFOCQ8TQZDDG,3SA4EMRVKYI00KKCICLEW0FTGRS0PA,3J2UYBXQQPSVCX01TIR7FKKZFY560A,1,2
117,4,object_05,object_09,944.30000001192,8,2,124.59999999404,0.6666666666666666,2,object_06,1,1633,0,5,6,restaurant_5,2,memory-2step-stake-s,622,2486598,0.0-19.0-0.0-0.117,AKFOCQ8TQZDDG,3SA4EMRVKYI00KKCICLEW0FTGRS0PA,3J2UYBXQQPSVCX01TIR7FKKZFY560A,7,8
118,2,object_10,object_07,988.29999998212,4,2,332.09999999404,0.4444444444444444,2,object_06,5,1653,0,5,4,forest_8,2,memory-2step-stake-s,623,2494581,0.0-19.0-0.0-0.118,AKFOCQ8TQZDDG,3SA4EMRVKYI00KKCICLEW0FTGRS0PA,3J2UYBXQQPSVCX01TIR7FKKZFY560A,3,4
119,3,object_02,object_08,633.40000000596,5,1,308.40000000596,0.3333333333333333,1,object_03,1,1656,0,3,2,library_7,2,memory-2step-stake-s,624,2502434,0.0-19.0-0.0-0.119,AKFOCQ8TQZDDG,3SA4EMRVKYI00KKCICLEW0FTGRS0PA,3J2UYBXQQPSVCX01TIR7FKKZFY560A,5,6
120,1,object_04,object_01,1280.0,2,2,284.30000001192,0.2222222222222222,2,object_06,5,1666,0,1,2,desert_1,2,memory-2step-stake-s,625,2510161,0.0-19.0-0.0-0.120,AKFOCQ8TQZDDG,3SA4EMRVKYI00KKCICLEW0FTGRS0PA,3J2UYBXQQPSVCX01TIR7FKKZFY560A,1,2
121,4,object_09,object_05,1040.2000000179,7,2,278.79999998212,0.1111111111111111,1,object_03,1,1667,0,1,4,restaurant_7,2,memory-2step-stake-s,626,2517776,0.0-19.0-0.0-0.121,AKFOCQ8TQZDDG,3SA4EMRVKYI00KKCICLEW0FTGRS0PA,3J2UYBXQQPSVCX01TIR7FKKZFY560A,8,7
122,3,object_08,object_02,671.30000001192,6,1,302.09999999404,0.1111111111111111,2,object_06,1,1668,0,1,1,library_1,2,memory-2step-stake-s,627,2525410,0.0-19.0-0.0-0.122,AKFOCQ8TQZDDG,3SA4EMRVKYI00KKCICLEW0FTGRS0PA,3J2UYBXQQPSVCX01TIR7FKKZFY560A,6,5
123,4,object_05,object_09,915.5,8,2,262.09999999404,0.0,2,object_06,1,1668,0,2,0,restaurant_4,2,memory-2step-stake-s,628,2532903,0.0-19.0-0.0-0.123,AKFOCQ8TQZDDG,3SA4EMRVKYI00KKCICLEW0FTGRS0PA,3J2UYBXQQPSVCX01TIR7FKKZFY560A,7,8
124,3,object_02,object_08,640.59999999404,5,1,473.69999998808,0.2222222222222222,1,object_03,1,1670,0,2,0,library_8,2,memory-2step-stake-s,629,2540811,0.0-19.0-0.0-0.124,AKFOCQ8TQZDDG,3SA4EMRVKYI00KKCICLEW0FTGRS0PA,3J2UYBXQQPSVCX01TIR7FKKZFY560A,5,6
125,3,object_08,object_02,864.19999998808,6,1,326.69999998808,0.5555555555555556,2,object_06,1,1675,0,5,5,library_8,2,memory-2step-stake-s,630,2548884,0.0-19.0-0.0-0.125,AKFOCQ8TQZDDG,3SA4EMRVKYI00KKCICLEW0FTGRS0PA,3J2UYBXQQPSVCX01TIR7FKKZFY560A,6,5
126,1,object_04,object_01,899.90000000596,1,1,208.19999998808,0.4444444444444444,1,object_03,5,1695,0,4,5,desert_1,2,memory-2step-stake-s,631,2556743,0.0-19.0-0.0-0.126,AKFOCQ8TQZDDG,3SA4EMRVKYI00KKCICLEW0FTGRS0PA,3J2UYBXQQPSVCX01TIR7FKKZFY560A,1,2
127,3,object_02,object_08,1109.400000006,6,2,265.70000001788,0.5555555555555556,2,object_06,5,1720,0,2,5,library_8,2,memory-2step-stake-s,632,2564765,0.0-19.0-0.0-0.127,AKFOCQ8TQZDDG,3SA4EMRVKYI00KKCICLEW0FTGRS0PA,3J2UYBXQQPSVCX01TIR7FKKZFY560A,5,6
128,4,object_05,object_09,618.59999999404,7,1,304.59999999404,0.2222222222222222,1,object_03,1,1722,0,2,6,restaurant_5,2,memory-2step-stake-s,634,2599954,0.0-19.0-0.1-0.128,AKFOCQ8TQZDDG,3SA4EMRVKYI00KKCICLEW0FTGRS0PA,3J2UYBXQQPSVCX01TIR7FKKZFY560A,7,8
129,4,object_09,object_05,1146.099999994,8,1,319.79999998212,0.7777777777777778,2,object_06,5,1757,0,2,7,restaurant_1,2,memory-2step-stake-s,635,2608227,0.0-19.0-0.1-0.129,AKFOCQ8TQZDDG,3SA4EMRVKYI00KKCICLEW0FTGRS0PA,3J2UYBXQQPSVCX01TIR7FKKZFY560A,8,7
130,4,object_09,object_05,1083.1999999881,8,1,301.59999999404,0.8888888888888888,2,object_06,1,1765,0,8,8,restaurant_4,2,memory-2step-stake-s,636,2616587,0.0-19.0-0.1-0.130,AKFOCQ8TQZDDG,3SA4EMRVKYI00KKCICLEW0FTGRS0PA,3J2UYBXQQPSVCX01TIR7FKKZFY560A,8,7
131,4,object_05,object_09,514.0,8,2,250.29999998212,0.8888888888888888,2,object_06,1,1773,0,9,8,restaurant_7,2,memory-2step-stake-s,637,2624908,0.0-19.0-0.1-0.131,AKFOCQ8TQZDDG,3SA4EMRVKYI00KKCICLEW0FTGRS0PA,3J2UYBXQQPSVCX01TIR7FKKZFY560A,7,8
132,2,object_07,object_10,1308.1999999881,4,1,527.19999998808,0.5555555555555556,2,object_06,5,1798,0,9,5,forest_5,2,memory-2step-stake-s,638,2633191,0.0-19.0-0.1-0.132,AKFOCQ8TQZDDG,3SA4EMRVKYI00KKCICLEW0FTGRS0PA,3J2UYBXQQPSVCX01TIR7FKKZFY560A,4,3
133,4,object_05,object_09,596.40000000596,8,2,234.60000002384,0.2222222222222222,2,object_06,1,1800,0,5,2,restaurant_4,2,memory-2step-stake-s,639,2640866,0.0-19.0-0.1-0.133,AKFOCQ8TQZDDG,3SA4EMRVKYI00KKCICLEW0FTGRS0PA,3J2UYBXQQPSVCX01TIR7FKKZFY560A,7,8
134,1,object_04,object_01,1326.5,1,1,337.40000000596,0.6666666666666666,1,object_03,5,1830,0,6,0,desert_6,2,memory-2step-stake-s,640,2649060,0.0-19.0-0.1-0.134,AKFOCQ8TQZDDG,3SA4EMRVKYI00KKCICLEW0FTGRS0PA,3J2UYBXQQPSVCX01TIR7FKKZFY560A,1,2
135,1,object_01,object_04,940.0,1,2,248.79999998212,0.5555555555555556,1,object_03,5,1855,0,5,0,desert_1,2,memory-2step-stake-s,641,2657063,0.0-19.0-0.1-0.135,AKFOCQ8TQZDDG,3SA4EMRVKYI00KKCICLEW0FTGRS0PA,3J2UYBXQQPSVCX01TIR7FKKZFY560A,2,1
136,3,object_08,object_02,-1.0,-1,-1,-1.0,0.0,-,0,1,1855,0,3,1,library_7,2,memory-2step-stake-s,642,2663595,0.0-19.0-0.1-0.136,AKFOCQ8TQZDDG,3SA4EMRVKYI00KKCICLEW0FTGRS0PA,3J2UYBXQQPSVCX01TIR7FKKZFY560A,6,5
137,3,object_02,object_08,726.59999999404,6,2,300.0,0.1111111111111111,2,object_06,5,1860,0,6,1,library_7,2,memory-2step-stake-s,643,2671230,0.0-19.0-0.1-0.137,AKFOCQ8TQZDDG,3SA4EMRVKYI00KKCICLEW0FTGRS0PA,3J2UYBXQQPSVCX01TIR7FKKZFY560A,5,6
138,4,object_05,object_09,989.19999998808,8,2,320.59999999404,0.0,2,object_06,1,1860,0,5,0,restaurant_5,2,memory-2step-stake-s,644,2678772,0.0-19.0-0.1-0.138,AKFOCQ8TQZDDG,3SA4EMRVKYI00KKCICLEW0FTGRS0PA,3J2UYBXQQPSVCX01TIR7FKKZFY560A,7,8
139,3,object_08,object_02,749.40000000596,5,2,369.09999999404,0.7777777777777778,1,object_03,1,1867,0,7,4,library_1,2,memory-2step-stake-s,645,2687106,0.0-19.0-0.1-0.139,AKFOCQ8TQZDDG,3SA4EMRVKYI00KKCICLEW0FTGRS0PA,3J2UYBXQQPSVCX01TIR7FKKZFY560A,6,5
140,1,object_01,object_04,1133.2000000179,1,2,198.30000001192,0.8888888888888888,1,object_03,5,1907,0,8,3,desert_7,2,memory-2step-stake-s,646,2695371,0.0-19.0-0.1-0.140,AKFOCQ8TQZDDG,3SA4EMRVKYI00KKCICLEW0FTGRS0PA,3J2UYBXQQPSVCX01TIR7FKKZFY560A,2,1
141,4,object_09,object_05,1174.099999994,8,1,281.79999998212,0.5555555555555556,2,object_06,1,1912,0,5,5,restaurant_5,2,memory-2step-stake-s,647,2703400,0.0-19.0-0.1-0.141,AKFOCQ8TQZDDG,3SA4EMRVKYI00KKCICLEW0FTGRS0PA,3J2UYBXQQPSVCX01TIR7FKKZFY560A,8,7
142,1,object_04,object_01,994.69999998808,1,1,229.59999999404,0.5555555555555556,1,object_03,5,1937,0,5,3,desert_1,2,memory-2step-stake-s,648,2711387,0.0-19.0-0.1-0.142,AKFOCQ8TQZDDG,3SA4EMRVKYI00KKCICLEW0FTGRS0PA,3J2UYBXQQPSVCX01TIR7FKKZFY560A,1,2
143,2,object_10,object_07,931.70000001788,3,1,397.20000001788,1.0,1,object_03,5,1982,0,9,4,forest_2,2,memory-2step-stake-s,649,2719960,0.0-19.0-0.1-0.143,AKFOCQ8TQZDDG,3SA4EMRVKYI00KKCICLEW0FTGRS0PA,3J2UYBXQQPSVCX01TIR7FKKZFY560A,3,4
144,2,object_10,object_07,902.0,3,1,307.19999998808,0.7777777777777778,1,object_03,5,2017,0,7,1,forest_2,2,memory-2step-stake-s,650,2728221,0.0-19.0-0.1-0.144,AKFOCQ8TQZDDG,3SA4EMRVKYI00KKCICLEW0FTGRS0PA,3J2UYBXQQPSVCX01TIR7FKKZFY560A,3,4
145,1,object_04,object_01,1112.1000000238,2,2,228.20000001788,0.1111111111111111,2,object_06,5,2022,0,5,1,desert_6,2,memory-2step-stake-s,651,2735785,0.0-19.0-0.1-0.145,AKFOCQ8TQZDDG,3SA4EMRVKYI00KKCICLEW0FTGRS0PA,3J2UYBXQQPSVCX01TIR7FKKZFY560A,1,2
146,1,object_01,object_04,863.90000000596,1,2,291.40000000596,0.4444444444444444,1,object_03,5,2042,0,4,0,desert_1,2,memory-2step-stake-s,652,2743726,0.0-19.0-0.1-0.146,AKFOCQ8TQZDDG,3SA4EMRVKYI00KKCICLEW0FTGRS0PA,3J2UYBXQQPSVCX01TIR7FKKZFY560A,2,1
147,4,object_05,object_09,989.80000001192,7,1,526.09999999404,0.6666666666666666,1,object_03,1,2048,0,6,4,restaurant_4,2,memory-2step-stake-s,653,2752107,0.0-19.0-0.1-0.147,AKFOCQ8TQZDDG,3SA4EMRVKYI00KKCICLEW0FTGRS0PA,3J2UYBXQQPSVCX01TIR7FKKZFY560A,7,8
148,2,object_07,object_10,828.19999998808,3,2,330.19999998808,1.0,1,object_03,5,2093,0,9,6,forest_2,2,memory-2step-stake-s,654,2760606,0.0-19.0-0.1-0.148,AKFOCQ8TQZDDG,3SA4EMRVKYI00KKCICLEW0FTGRS0PA,3J2UYBXQQPSVCX01TIR7FKKZFY560A,4,3
149,3,object_08,object_02,697.5,6,1,315.29999998212,0.6666666666666666,2,object_06,1,2099,0,7,6,library_1,2,memory-2step-stake-s,655,2768779,0.0-19.0-0.1-0.149,AKFOCQ8TQZDDG,3SA4EMRVKYI00KKCICLEW0FTGRS0PA,3J2UYBXQQPSVCX01TIR7FKKZFY560A,6,5
150,3,object_08,object_02,629.09999999404,5,2,298.59999999404,0.8888888888888888,1,object_03,5,2139,0,8,8,library_4,2,memory-2step-stake-s,656,2777144,0.0-19.0-0.1-0.150,AKFOCQ8TQZDDG,3SA4EMRVKYI00KKCICLEW0FTGRS0PA,3J2UYBXQQPSVCX01TIR7FKKZFY560A,6,5
151,2,object_07,object_10,754.90000000596,3,2,280.90000000596,0.8888888888888888,1,object_03,5,2179,0,8,8,forest_7,2,memory-2step-stake-s,657,2785484,0.0-19.0-0.1-0.151,AKFOCQ8TQZDDG,3SA4EMRVKYI00KKCICLEW0FTGRS0PA,3J2UYBXQQPSVCX01TIR7FKKZFY560A,4,3
152,2,object_07,object_10,866.0,3,2,271.0,0.5555555555555556,1,object_03,1,2184,0,5,6,forest_7,2,memory-2step-stake-s,658,2793506,0.0-19.0-0.1-0.152,AKFOCQ8TQZDDG,3SA4EMRVKYI00KKCICLEW0FTGRS0PA,3J2UYBXQQPSVCX01TIR7FKKZFY560A,4,3
153,4,object_05,object_09,1249.5,8,2,251.60000002384,0.4444444444444444,2,object_06,1,2188,0,6,4,restaurant_7,2,memory-2step-stake-s,659,2801406,0.0-19.0-0.1-0.153,AKFOCQ8TQZDDG,3SA4EMRVKYI00KKCICLEW0FTGRS0PA,3J2UYBXQQPSVCX01TIR7FKKZFY560A,7,8
154,3,object_08,object_02,838.80000001192,5,2,157.90000000596,0.5555555555555556,1,object_03,5,2213,0,5,6,library_4,2,memory-2step-stake-s,660,2809315,0.0-19.0-0.1-0.154,AKFOCQ8TQZDDG,3SA4EMRVKYI00KKCICLEW0FTGRS0PA,3J2UYBXQQPSVCX01TIR7FKKZFY560A,6,5
155,1,object_04,object_01,793.19999998808,1,1,169.40000000596,0.3333333333333333,1,object_03,5,2228,0,3,8,desert_1,2,memory-2step-stake-s,661,2817022,0.0-19.0-0.1-0.155,AKFOCQ8TQZDDG,3SA4EMRVKYI00KKCICLEW0FTGRS0PA,3J2UYBXQQPSVCX01TIR7FKKZFY560A,1,2
156,3,object_02,object_08,763.5,6,2,279.90000000596,0.8888888888888888,2,object_06,5,2268,0,5,8,library_1,2,memory-2step-stake-s,662,2825369,0.0-19.0-0.1-0.156,AKFOCQ8TQZDDG,3SA4EMRVKYI00KKCICLEW0FTGRS0PA,3J2UYBXQQPSVCX01TIR7FKKZFY560A,5,6
157,3,object_08,object_02,877.40000000596,6,1,184.89999997616,0.4444444444444444,2,object_06,1,2272,0,5,4,library_7,2,memory-2step-stake-s,663,2833206,0.0-19.0-0.1-0.157,AKFOCQ8TQZDDG,3SA4EMRVKYI00KKCICLEW0FTGRS0PA,3J2UYBXQQPSVCX01TIR7FKKZFY560A,6,5
158,4,object_05,object_09,1314.0,7,1,523.10000002384,0.7777777777777778,1,object_03,1,2279,0,7,2,restaurant_5,2,memory-2step-stake-s,664,2841692,0.0-19.0-0.1-0.158,AKFOCQ8TQZDDG,3SA4EMRVKYI00KKCICLEW0FTGRS0PA,3J2UYBXQQPSVCX01TIR7FKKZFY560A,7,8
159,4,object_09,object_05,661.90000000596,7,2,491.59999999404,0.7777777777777778,1,object_03,1,2286,0,7,2,restaurant_4,2,memory-2step-stake-s,665,2850144,0.0-19.0-0.1-0.159,AKFOCQ8TQZDDG,3SA4EMRVKYI00KKCICLEW0FTGRS0PA,3J2UYBXQQPSVCX01TIR7FKKZFY560A,8,7
160,4,object_05,object_09,673.0,7,1,199.0,1.0,1,object_03,1,2295,0,9,8,restaurant_4,2,memory-2step-stake-s,666,2858502,0.0-19.0-0.1-0.160,AKFOCQ8TQZDDG,3SA4EMRVKYI00KKCICLEW0FTGRS0PA,3J2UYBXQQPSVCX01TIR7FKKZFY560A,7,8
161,4,object_09,object_05,466.40000000596,7,2,279.5,0.6666666666666666,1,object_03,5,2325,0,6,7,restaurant_4,2,memory-2step-stake-s,667,2866638,0.0-19.0-0.1-0.161,AKFOCQ8TQZDDG,3SA4EMRVKYI00KKCICLEW0FTGRS0PA,3J2UYBXQQPSVCX01TIR7FKKZFY560A,8,7
162,2,object_07,object_10,821.09999999404,3,2,253.79999998212,0.8888888888888888,1,object_03,5,2365,0,8,9,forest_7,2,memory-2step-stake-s,668,2874958,0.0-19.0-0.1-0.162,AKFOCQ8TQZDDG,3SA4EMRVKYI00KKCICLEW0FTGRS0PA,3J2UYBXQQPSVCX01TIR7FKKZFY560A,4,3
163,4,object_09,object_05,748.0,7,2,611.0,0.8888888888888888,1,object_03,1,2373,0,8,6,restaurant_4,2,memory-2step-stake-s,669,2883632,0.0-19.0-0.1-0.163,AKFOCQ8TQZDDG,3SA4EMRVKYI00KKCICLEW0FTGRS0PA,3J2UYBXQQPSVCX01TIR7FKKZFY560A,8,7
164,2,object_10,object_07,619.5,3,1,260.90000000596,0.8888888888888888,1,object_03,5,2413,0,8,9,forest_7,2,memory-2step-stake-s,670,2891961,0.0-19.0-0.1-0.164,AKFOCQ8TQZDDG,3SA4EMRVKYI00KKCICLEW0FTGRS0PA,3J2UYBXQQPSVCX01TIR7FKKZFY560A,3,4
165,3,object_02,object_08,1286.7999999821,5,1,299.10000002384,0.4444444444444444,1,object_03,1,2417,0,4,7,library_4,2,memory-2step-stake-s,671,2899902,0.0-19.0-0.1-0.165,AKFOCQ8TQZDDG,3SA4EMRVKYI00KKCICLEW0FTGRS0PA,3J2UYBXQQPSVCX01TIR7FKKZFY560A,5,6
166,3,object_02,object_08,796.69999998808,6,2,233.59999999404,0.8888888888888888,2,object_06,1,2425,0,6,8,library_4,2,memory-2step-stake-s,672,2908198,0.0-19.0-0.1-0.166,AKFOCQ8TQZDDG,3SA4EMRVKYI00KKCICLEW0FTGRS0PA,3J2UYBXQQPSVCX01TIR7FKKZFY560A,5,6
167,4,object_09,object_05,535.70000001788,8,1,223.80000001192,0.8888888888888888,2,object_06,1,2433,0,0,8,restaurant_1,2,memory-2step-stake-s,673,2916492,0.0-19.0-0.1-0.167,AKFOCQ8TQZDDG,3SA4EMRVKYI00KKCICLEW0FTGRS0PA,3J2UYBXQQPSVCX01TIR7FKKZFY560A,8,7
168,1,object_01,object_04,760.30000001192,1,2,260.0,0.2222222222222222,1,object_03,5,2443,0,2,5,desert_1,2,memory-2step-stake-s,674,2924195,0.0-19.0-0.1-0.168,AKFOCQ8TQZDDG,3SA4EMRVKYI00KKCICLEW0FTGRS0PA,3J2UYBXQQPSVCX01TIR7FKKZFY560A,2,1
169,2,object_10,object_07,895.09999999404,4,2,259.69999998808,0.7777777777777778,2,object_06,1,2450,0,5,7,forest_5,2,memory-2step-stake-s,675,2932419,0.0-19.0-0.1-0.169,AKFOCQ8TQZDDG,3SA4EMRVKYI00KKCICLEW0FTGRS0PA,3J2UYBXQQPSVCX01TIR7FKKZFY560A,3,4
170,1,object_04,object_01,862.19999998808,2,2,261.40000000596,0.4444444444444444,2,object_06,5,2470,0,5,4,desert_5,2,memory-2step-stake-s,676,2940322,0.0-19.0-0.1-0.170,AKFOCQ8TQZDDG,3SA4EMRVKYI00KKCICLEW0FTGRS0PA,3J2UYBXQQPSVCX01TIR7FKKZFY560A,1,2
171,3,object_08,object_02,1197.3000000119,5,2,262.69999998808,0.8888888888888888,1,object_03,1,2478,0,8,3,library_1,2,memory-2step-stake-s,677,2948656,0.0-19.0-0.1-0.171,AKFOCQ8TQZDDG,3SA4EMRVKYI00KKCICLEW0FTGRS0PA,3J2UYBXQQPSVCX01TIR7FKKZFY560A,6,5
172,4,object_09,object_05,612.5,8,1,284.70000001788,0.0,2,object_06,1,2478,0,9,0,restaurant_7,2,memory-2step-stake-s,678,2956169,0.0-19.0-0.1-0.172,AKFOCQ8TQZDDG,3SA4EMRVKYI00KKCICLEW0FTGRS0PA,3J2UYBXQQPSVCX01TIR7FKKZFY560A,8,7
173,1,object_01,object_04,995.39999997616,1,2,152.29999998212,0.8888888888888888,1,object_03,5,2518,0,8,0,desert_1,2,memory-2step-stake-s,679,2964381,0.0-19.0-0.1-0.173,AKFOCQ8TQZDDG,3SA4EMRVKYI00KKCICLEW0FTGRS0PA,3J2UYBXQQPSVCX01TIR7FKKZFY560A,2,1
174,3,object_02,object_08,652.5,5,1,413.5,0.7777777777777778,1,object_03,1,2525,0,7,1,library_8,2,memory-2step-stake-s,680,2972757,0.0-19.0-0.1-0.174,AKFOCQ8TQZDDG,3SA4EMRVKYI00KKCICLEW0FTGRS0PA,3J2UYBXQQPSVCX01TIR7FKKZFY560A,5,6
175,2,object_10,object_07,1204.1000000238,3,1,321.10000002384,0.5555555555555556,1,object_03,5,2550,0,5,3,forest_2,2,memory-2step-stake-s,681,2980831,0.0-19.0-0.1-0.175,AKFOCQ8TQZDDG,3SA4EMRVKYI00KKCICLEW0FTGRS0PA,3J2UYBXQQPSVCX01TIR7FKKZFY560A,3,4
176,3,object_08,object_02,1015.400000006,6,1,262.79999998212,0.1111111111111111,2,object_06,5,2555,0,2,1,library_7,2,memory-2step-stake-s,682,2988428,0.0-19.0-0.1-0.176,AKFOCQ8TQZDDG,3SA4EMRVKYI00KKCICLEW0FTGRS0PA,3J2UYBXQQPSVCX01TIR7FKKZFY560A,6,5
177,3,object_02,object_08,643.90000000596,5,1,192.0,0.1111111111111111,1,object_03,1,2556,0,1,7,library_4,2,memory-2step-stake-s,683,2995958,0.0-19.0-0.1-0.177,AKFOCQ8TQZDDG,3SA4EMRVKYI00KKCICLEW0FTGRS0PA,3J2UYBXQQPSVCX01TIR7FKKZFY560A,5,6
178,1,object_01,object_04,566.19999998808,2,1,201.09999999404,0.8888888888888888,2,object_06,5,2596,0,2,8,desert_6,2,memory-2step-stake-s,684,3004230,0.0-19.0-0.1-0.178,AKFOCQ8TQZDDG,3SA4EMRVKYI00KKCICLEW0FTGRS0PA,3J2UYBXQQPSVCX01TIR7FKKZFY560A,2,1
179,3,object_08,object_02,895.29999998212,6,1,235.70000001788,0.8888888888888888,2,object_06,1,2604,0,2,8,library_1,2,memory-2step-stake-s,685,3012531,0.0-19.0-0.1-0.179,AKFOCQ8TQZDDG,3SA4EMRVKYI00KKCICLEW0FTGRS0PA,3J2UYBXQQPSVCX01TIR7FKKZFY560A,6,5
180,1,object_01,object_04,902.5,2,1,240.30000001192,1.0,2,object_06,5,2649,0,2,9,desert_7,2,memory-2step-stake-s,686,3020937,0.0-19.0-0.1-0.180,AKFOCQ8TQZDDG,3SA4EMRVKYI00KKCICLEW0FTGRS0PA,3J2UYBXQQPSVCX01TIR7FKKZFY560A,2,1
181,2,object_10,object_07,838.59999999404,4,2,526.79999998212,0.7777777777777778,2,object_06,5,2684,0,2,7,forest_8,2,memory-2step-stake-s,687,3029423,0.0-19.0-0.1-0.181,AKFOCQ8TQZDDG,3SA4EMRVKYI00KKCICLEW0FTGRS0PA,3J2UYBXQQPSVCX01TIR7FKKZFY560A,3,4
182,4,object_05,object_09,898.5,8,2,432.20000001788,0.6666666666666666,2,object_06,1,2690,0,2,6,restaurant_1,2,memory-2step-stake-s,688,3037712,0.0-19.0-0.1-0.182,AKFOCQ8TQZDDG,3SA4EMRVKYI00KKCICLEW0FTGRS0PA,3J2UYBXQQPSVCX01TIR7FKKZFY560A,7,8
183,4,object_05,object_09,736.5,8,2,580.80000001192,0.5555555555555556,2,object_06,1,2695,0,6,5,restaurant_5,2,memory-2step-stake-s,689,3046047,0.0-19.0-0.1-0.183,AKFOCQ8TQZDDG,3SA4EMRVKYI00KKCICLEW0FTGRS0PA,3J2UYBXQQPSVCX01TIR7FKKZFY560A,7,8
184,4,object_09,object_05,990.5,7,2,218.09999999404,0.3333333333333333,1,object_03,5,2710,0,3,1,restaurant_7,2,memory-2step-stake-s,690,3053797,0.0-19.0-0.1-0.184,AKFOCQ8TQZDDG,3SA4EMRVKYI00KKCICLEW0FTGRS0PA,3J2UYBXQQPSVCX01TIR7FKKZFY560A,8,7
185,1,object_01,object_04,783.40000000596,1,2,224.40000000596,0.1111111111111111,1,object_03,1,2711,0,1,1,desert_1,2,memory-2step-stake-s,691,3061355,0.0-19.0-0.1-0.185,AKFOCQ8TQZDDG,3SA4EMRVKYI00KKCICLEW0FTGRS0PA,3J2UYBXQQPSVCX01TIR7FKKZFY560A,2,1
186,2,object_07,object_10,1264.6999999881,4,1,330.09999999404,0.1111111111111111,2,object_06,1,2712,0,1,1,forest_8,2,memory-2step-stake-s,692,3069023,0.0-19.0-0.1-0.186,AKFOCQ8TQZDDG,3SA4EMRVKYI00KKCICLEW0FTGRS0PA,3J2UYBXQQPSVCX01TIR7FKKZFY560A,4,3
187,4,object_05,object_09,917.79999998212,7,1,269.0,0.0,1,object_03,1,2712,0,0,3,restaurant_5,2,memory-2step-stake-s,693,3076524,0.0-19.0-0.1-0.187,AKFOCQ8TQZDDG,3SA4EMRVKYI00KKCICLEW0FTGRS0PA,3J2UYBXQQPSVCX01TIR7FKKZFY560A,7,8
188,3,object_08,object_02,888.90000000596,6,1,81.600000023842,0.4444444444444444,2,object_06,1,2716,0,2,4,library_4,2,memory-2step-stake-s,694,3084254,0.0-19.0-0.1-0.188,AKFOCQ8TQZDDG,3SA4EMRVKYI00KKCICLEW0FTGRS0PA,3J2UYBXQQPSVCX01TIR7FKKZFY560A,6,5
189,3,object_02,object_08,1120.3000000119,6,2,239.20000001788,0.6666666666666666,2,object_06,1,2722,0,4,6,library_8,2,memory-2step-stake-s,695,3092346,0.0-19.0-0.1-0.189,AKFOCQ8TQZDDG,3SA4EMRVKYI00KKCICLEW0FTGRS0PA,3J2UYBXQQPSVCX01TIR7FKKZFY560A,5,6
190,2,object_07,object_10,789.70000001788,4,1,151.90000000596,0.8888888888888888,2,object_06,5,2762,0,4,8,forest_2,2,memory-2step-stake-s,696,3100565,0.0-19.0-0.1-0.190,AKFOCQ8TQZDDG,3SA4EMRVKYI00KKCICLEW0FTGRS0PA,3J2UYBXQQPSVCX01TIR7FKKZFY560A,4,3
191,2,object_07,object_10,741.70000001788,4,1,282.30000001192,0.8888888888888888,2,object_06,5,2802,0,5,8,forest_5,2,memory-2step-stake-s,697,3108913,0.0-19.0-0.1-0.191,AKFOCQ8TQZDDG,3SA4EMRVKYI00KKCICLEW0FTGRS0PA,3J2UYBXQQPSVCX01TIR7FKKZFY560A,4,3
192,2,object_10,object_07,803.70000001788,4,2,201.90000000596,0.8888888888888888,2,object_06,1,2810,0,6,8,forest_2,2,memory-2step-stake-s,698,3117180,0.0-19.0-0.1-0.192,AKFOCQ8TQZDDG,3SA4EMRVKYI00KKCICLEW0FTGRS0PA,3J2UYBXQQPSVCX01TIR7FKKZFY560A,3,4
193,1,object_04,object_01,566.59999999404,2,2,0.30000001192093,0.8888888888888888,2,object_06,1,2818,0,7,8,desert_1,2,memory-2step-stake-s,699,3125244,0.0-19.0-0.1-0.193,AKFOCQ8TQZDDG,3SA4EMRVKYI00KKCICLEW0FTGRS0PA,3J2UYBXQQPSVCX01TIR7FKKZFY560A,1,2
194,3,object_02,object_08,772.89999997616,6,2,103.59999999404,0.5555555555555556,2,object_06,1,2823,0,8,5,library_4,2,memory-2step-stake-s,700,3133096,0.0-19.0-0.1-0.194,AKFOCQ8TQZDDG,3SA4EMRVKYI00KKCICLEW0FTGRS0PA,3J2UYBXQQPSVCX01TIR7FKKZFY560A,5,6
195,2,object_07,object_10,762.89999997616,4,1,236.40000000596,0.5555555555555556,2,object_06,5,2848,0,8,5,forest_8,2,memory-2step-stake-s,701,3141076,0.0-19.0-0.1-0.195,AKFOCQ8TQZDDG,3SA4EMRVKYI00KKCICLEW0FTGRS0PA,3J2UYBXQQPSVCX01TIR7FKKZFY560A,4,3
196,4,object_05,object_09,804.59999999404,8,2,325.79999998212,0.8888888888888888,2,object_06,1,2856,0,8,8,restaurant_5,2,memory-2step-stake-s,702,3149471,0.0-19.0-0.1-0.196,AKFOCQ8TQZDDG,3SA4EMRVKYI00KKCICLEW0FTGRS0PA,3J2UYBXQQPSVCX01TIR7FKKZFY560A,7,8
197,1,object_01,object_04,600.70000001788,2,1,45.59999999404,0.6666666666666666,2,object_06,5,2886,0,9,6,desert_5,2,memory-2step-stake-s,703,3157371,0.0-19.0-0.1-0.197,AKFOCQ8TQZDDG,3SA4EMRVKYI00KKCICLEW0FTGRS0PA,3J2UYBXQQPSVCX01TIR7FKKZFY560A,2,1
198,2,object_10,object_07,704.90000000596,4,2,260.30000001192,0.4444444444444444,2,object_06,5,2906,0,6,4,forest_2,2,memory-2step-stake-s,704,3165280,0.0-19.0-0.1-0.198,AKFOCQ8TQZDDG,3SA4EMRVKYI00KKCICLEW0FTGRS0PA,3J2UYBXQQPSVCX01TIR7FKKZFY560A,3,4
199,3,object_02,object_08,885.5,5,1,283.19999998808,0.4444444444444444,1,object_03,1,2910,0,4,4,library_4,2,memory-2step-stake-s,705,3173201,0.0-19.0-0.1-0.199,AKFOCQ8TQZDDG,3SA4EMRVKYI00KKCICLEW0FTGRS0PA,3J2UYBXQQPSVCX01TIR7FKKZFY560A,5,6
200,1,object_04,object_01,804.09999999404,1,1,648.30000001192,0.0,1,object_03,5,2910,0,0,6,desert_5,2,memory-2step-stake-s,706,3181078,0.0-19.0-0.1-0.200,AKFOCQ8TQZDDG,3SA4EMRVKYI00KKCICLEW0FTGRS0PA,3J2UYBXQQPSVCX01TIR7FKKZFY560A,1,2
201,4,object_05,object_09,807.5,8,2,236.59999999404,0.7777777777777778,2,object_06,5,2945,0,1,7,restaurant_7,2,memory-2step-stake-s,707,3189277,0.0-19.0-0.1-0.201,AKFOCQ8TQZDDG,3SA4EMRVKYI00KKCICLEW0FTGRS0PA,3J2UYBXQQPSVCX01TIR7FKKZFY560A,7,8
202,2,object_10,object_07,660.29999998212,4,2,262.5,0.8888888888888888,2,object_06,1,2953,0,2,8,forest_5,2,memory-2step-stake-s,708,3197604,0.0-19.0-0.1-0.202,AKFOCQ8TQZDDG,3SA4EMRVKYI00KKCICLEW0FTGRS0PA,3J2UYBXQQPSVCX01TIR7FKKZFY560A,3,4
203,3,object_02,object_08,749.70000001788,6,2,212.40000000596,0.4444444444444444,2,object_06,1,2957,0,3,4,library_1,2,memory-2step-stake-s,709,3205463,0.0-19.0-0.1-0.203,AKFOCQ8TQZDDG,3SA4EMRVKYI00KKCICLEW0FTGRS0PA,3J2UYBXQQPSVCX01TIR7FKKZFY560A,5,6
204,3,object_08,object_02,460.5,5,2,208.40000000596,0.3333333333333333,1,object_03,1,2960,0,3,5,library_7,2,memory-2step-stake-s,710,3213213,0.0-19.0-0.1-0.204,AKFOCQ8TQZDDG,3SA4EMRVKYI00KKCICLEW0FTGRS0PA,3J2UYBXQQPSVCX01TIR7FKKZFY560A,6,5
205,3,object_08,object_02,591.90000000596,6,1,-1.0,0.0,2,object_06,1,2960,0,3,6,library_4,2,memory-2step-stake-s,711,3224980,0.0-19.0-0.1-0.205,AKFOCQ8TQZDDG,3SA4EMRVKYI00KKCICLEW0FTGRS0PA,3J2UYBXQQPSVCX01TIR7FKKZFY560A,6,5
206,1,object_04,object_01,-1.0,-1,-1,-1.0,0.0,-,0,5,2960,0,4,5,desert_7,2,memory-2step-stake-s,712,3233971,0.0-19.0-0.1-0.206,AKFOCQ8TQZDDG,3SA4EMRVKYI00KKCICLEW0FTGRS0PA,3J2UYBXQQPSVCX01TIR7FKKZFY560A,1,2
207,2,object_07,object_10,-1.0,-1,-1,-1.0,0.0,-,0,5,2960,0,3,6,forest_2,2,memory-2step-stake-s,713,3243814,0.0-19.0-0.1-0.207,AKFOCQ8TQZDDG,3SA4EMRVKYI00KKCICLEW0FTGRS0PA,3J2UYBXQQPSVCX01TIR7FKKZFY560A,4,3
208,1,object_01,object_04,-1.0,-1,-1,-1.0,0.0,-,0,5,2960,0,3,9,desert_6,2,memory-2step-stake-s,714,3253739,0.0-19.0-0.1-0.208,AKFOCQ8TQZDDG,3SA4EMRVKYI00KKCICLEW0FTGRS0PA,3J2UYBXQQPSVCX01TIR7FKKZFY560A,2,1
209,3,object_08,object_02,-1.0,-1,-1,-1.0,0.0,-,0,5,2960,0,2,8,library_8,2,memory-2step-stake-s,715,3263721,0.0-19.0-0.1-0.209,AKFOCQ8TQZDDG,3SA4EMRVKYI00KKCICLEW0FTGRS0PA,3J2UYBXQQPSVCX01TIR7FKKZFY560A,6,5
210,4,object_09,object_05,-1.0,-1,-1,-1.0,0.0,-,0,1,2960,0,6,6,restaurant_4,2,memory-2step-stake-s,716,3272717,0.0-19.0-0.1-0.210,AKFOCQ8TQZDDG,3SA4EMRVKYI00KKCICLEW0FTGRS0PA,3J2UYBXQQPSVCX01TIR7FKKZFY560A,8,7
211,3,object_02,object_08,-1.0,-1,-1,-1.0,0.0,-,0,1,2960,0,4,8,library_4,2,memory-2step-stake-s,717,3281716,0.0-19.0-0.1-0.211,AKFOCQ8TQZDDG,3SA4EMRVKYI00KKCICLEW0FTGRS0PA,3J2UYBXQQPSVCX01TIR7FKKZFY560A,5,6
212,2,object_07,object_10,-1.0,-1,-1,-1.0,0.0,-,0,5,2960,0,0,7,forest_8,2,memory-2step-stake-s,718,3290725,0.0-19.0-0.1-0.212,AKFOCQ8TQZDDG,3SA4EMRVKYI00KKCICLEW0FTGRS0PA,3J2UYBXQQPSVCX01TIR7FKKZFY560A,4,3
213,1,object_01,object_04,-1.0,-1,-1,-1.0,0.0,-,0,1,2960,0,1,5,desert_7,2,memory-2step-stake-s,719,3299734,0.0-19.0-0.1-0.213,AKFOCQ8TQZDDG,3SA4EMRVKYI00KKCICLEW0FTGRS0PA,3J2UYBXQQPSVCX01TIR7FKKZFY560A,2,1
214,2,object_07,object_10,-1.0,-1,-1,-1.0,0.0,-,0,5,2960,0,2,5,forest_5,2,memory-2step-stake-s,720,3308742,0.0-19.0-0.1-0.214,AKFOCQ8TQZDDG,3SA4EMRVKYI00KKCICLEW0FTGRS0PA,3J2UYBXQQPSVCX01TIR7FKKZFY560A,4,3
215,3,object_08,object_02,-1.0,-1,-1,-1.0,0.0,-,0,1,2960,0,1,3,library_1,2,memory-2step-stake-s,721,3318733,0.0-19.0-0.1-0.215,AKFOCQ8TQZDDG,3SA4EMRVKYI00KKCICLEW0FTGRS0PA,3J2UYBXQQPSVCX01TIR7FKKZFY560A,6,5
216,1,object_04,object_01,-1.0,-1,-1,-1.0,0.0,-,0,5,2960,0,1,6,desert_5,2,memory-2step-stake-s,722,3328715,0.0-19.0-0.1-0.216,AKFOCQ8TQZDDG,3SA4EMRVKYI00KKCICLEW0FTGRS0PA,3J2UYBXQQPSVCX01TIR7FKKZFY560A,1,2
217,1,object_04,object_01,-1.0,-1,-1,-1.0,0.0,-,0,5,2960,0,3,6,desert_7,2,memory-2step-stake-s,723,3337719,0.0-19.0-0.1-0.217,AKFOCQ8TQZDDG,3SA4EMRVKYI00KKCICLEW0FTGRS0PA,3J2UYBXQQPSVCX01TIR7FKKZFY560A,1,2
218,4,object_05,object_09,-1.0,-1,-1,-1.0,0.0,-,0,1,2960,0,2,3,restaurant_5,2,memory-2step-stake-s,724,3346734,0.0-19.0-0.1-0.218,AKFOCQ8TQZDDG,3SA4EMRVKYI00KKCICLEW0FTGRS0PA,3J2UYBXQQPSVCX01TIR7FKKZFY560A,7,8
219,1,object_01,object_04,-1.0,-1,-1,-1.0,0.0,-,0,5,2960,0,1,3,desert_6,2,memory-2step-stake-s,725,3355740,0.0-19.0-0.1-0.219,AKFOCQ8TQZDDG,3SA4EMRVKYI00KKCICLEW0FTGRS0PA,3J2UYBXQQPSVCX01TIR7FKKZFY560A,2,1
220,2,object_07,object_10,-1.0,-1,-1,-1.0,0.0,-,0,1,2960,0,3,4,forest_5,2,memory-2step-stake-s,726,3365725,0.0-19.0-0.1-0.220,AKFOCQ8TQZDDG,3SA4EMRVKYI00KKCICLEW0FTGRS0PA,3J2UYBXQQPSVCX01TIR7FKKZFY560A,4,3
221,2,object_10,object_07,-1.0,-1,-1,-1.0,0.0,-,0,5,2960,0,4,3,forest_2,2,memory-2step-stake-s,727,3375723,0.0-19.0-0.1-0.221,AKFOCQ8TQZDDG,3SA4EMRVKYI00KKCICLEW0FTGRS0PA,3J2UYBXQQPSVCX01TIR7FKKZFY560A,3,4
222,4,object_09,object_05,-1.0,-1,-1,-1.0,0.0,-,0,1,2960,0,6,1,restaurant_7,2,memory-2step-stake-s,728,3384735,0.0-19.0-0.1-0.222,AKFOCQ8TQZDDG,3SA4EMRVKYI00KKCICLEW0FTGRS0PA,3J2UYBXQQPSVCX01TIR7FKKZFY560A,8,7
223,2,object_07,object_10,-1.0,-1,-1,-1.0,0.0,-,0,5,2960,0,5,2,forest_8,2,memory-2step-stake-s,729,3393746,0.0-19.0-0.1-0.223,AKFOCQ8TQZDDG,3SA4EMRVKYI00KKCICLEW0FTGRS0PA,3J2UYBXQQPSVCX01TIR7FKKZFY560A,4,3
224,2,object_07,object_10,-1.0,-1,-1,-1.0,0.0,-,0,5,2960,0,5,1,forest_8,2,memory-2step-stake-s,730,3403726,0.0-19.0-0.1-0.224,AKFOCQ8TQZDDG,3SA4EMRVKYI00KKCICLEW0FTGRS0PA,3J2UYBXQQPSVCX01TIR7FKKZFY560A,4,3
225,1,object_04,object_01,-1.0,-1,-1,-1.0,0.0,-,0,5,2960,0,6,2,desert_1,2,memory-2step-stake-s,731,3413716,0.0-19.0-0.1-0.225,AKFOCQ8TQZDDG,3SA4EMRVKYI00KKCICLEW0FTGRS0PA,3J2UYBXQQPSVCX01TIR7FKKZFY560A,1,2
226,3,object_02,object_08,-1.0,-1,-1,-1.0,0.0,-,0,1,2960,0,8,3,library_4,2,memory-2step-stake-s,732,3422724,0.0-19.0-0.1-0.226,AKFOCQ8TQZDDG,3SA4EMRVKYI00KKCICLEW0FTGRS0PA,3J2UYBXQQPSVCX01TIR7FKKZFY560A,5,6
227,4,object_09,object_05,-1.0,-1,-1,-1.0,0.0,-,0,1,2960,0,5,5,restaurant_7,2,memory-2step-stake-s,733,3431723,0.0-19.0-0.1-0.227,AKFOCQ8TQZDDG,3SA4EMRVKYI00KKCICLEW0FTGRS0PA,3J2UYBXQQPSVCX01TIR7FKKZFY560A,8,7
228,3,object_08,object_02,-1.0,-1,-1,-1.0,0.0,-,0,5,2960,0,1,6,library_1,2,memory-2step-stake-s,734,3441729,0.0-19.0-0.1-0.228,AKFOCQ8TQZDDG,3SA4EMRVKYI00KKCICLEW0FTGRS0PA,3J2UYBXQQPSVCX01TIR7FKKZFY560A,6,5
229,1,object_01,object_04,-1.0,-1,-1,-1.0,0.0,-,0,5,2960,0,1,8,desert_1,2,memory-2step-stake-s,735,3451712,0.0-19.0-0.1-0.229,AKFOCQ8TQZDDG,3SA4EMRVKYI00KKCICLEW0FTGRS0PA,3J2UYBXQQPSVCX01TIR7FKKZFY560A,2,1
230,4,object_09,object_05,-1.0,-1,-1,-1.0,0.0,-,0,1,2960,0,3,6,restaurant_1,2,memory-2step-stake-s,736,3460712,0.0-19.0-0.1-0.230,AKFOCQ8TQZDDG,3SA4EMRVKYI00KKCICLEW0FTGRS0PA,3J2UYBXQQPSVCX01TIR7FKKZFY560A,8,7
231,3,object_08,object_02,-1.0,-1,-1,-1.0,0.0,-,0,5,2960,0,1,6,library_8,2,memory-2step-stake-s,737,3469722,0.0-19.0-0.1-0.231,AKFOCQ8TQZDDG,3SA4EMRVKYI00KKCICLEW0FTGRS0PA,3J2UYBXQQPSVCX01TIR7FKKZFY560A,6,5
232,3,object_08,object_02,-1.0,-1,-1,-1.0,0.0,-,0,1,2960,0,1,5,library_8,2,memory-2step-stake-s,738,3478734,0.0-19.0-0.1-0.232,AKFOCQ8TQZDDG,3SA4EMRVKYI00KKCICLEW0FTGRS0PA,3J2UYBXQQPSVCX01TIR7FKKZFY560A,6,5
233,1,object_01,object_04,-1.0,-1,-1,-1.0,0.0,-,0,1,2960,0,0,5,desert_6,2,memory-2step-stake-s,739,3488719,0.0-19.0-0.1-0.233,AKFOCQ8TQZDDG,3SA4EMRVKYI00KKCICLEW0FTGRS0PA,3J2UYBXQQPSVCX01TIR7FKKZFY560A,2,1
234,3,object_08,object_02,-1.0,-1,-1,-1.0,0.0,-,0,5,2960,0,2,1,library_8,2,memory-2step-stake-s,740,3498710,0.0-19.0-0.1-0.234,AKFOCQ8TQZDDG,3SA4EMRVKYI00KKCICLEW0FTGRS0PA,3J2UYBXQQPSVCX01TIR7FKKZFY560A,6,5
235,1,object_04,object_01,-1.0,-1,-1,-1.0,0.0,-,0,5,2960,0,0,1,desert_5,2,memory-2step-stake-s,741,3507718,0.0-19.0-0.1-0.235,AKFOCQ8TQZDDG,3SA4EMRVKYI00KKCICLEW0FTGRS0PA,3J2UYBXQQPSVCX01TIR7FKKZFY560A,1,2
236,2,object_07,object_10,-1.0,-1,-1,-1.0,0.0,-,0,5,2960,0,1,2,forest_2,2,memory-2step-stake-s,742,3538707,0.0-19.0-0.1-0.236,AKFOCQ8TQZDDG,3SA4EMRVKYI00KKCICLEW0FTGRS0PA,3J2UYBXQQPSVCX01TIR7FKKZFY560A,4,3
237,3,object_02,object_08,-1.0,-1,-1,-1.0,0.0,-,0,1,2960,0,1,1,library_7,2,memory-2step-stake-s,743,3699800,0.0-19.0-0.1-0.237,AKFOCQ8TQZDDG,3SA4EMRVKYI00KKCICLEW0FTGRS0PA,3J2UYBXQQPSVCX01TIR7FKKZFY560A,5,6
238,4,object_05,object_09,784.20000001788,7,1,344.69999998808,0.3333333333333333,1,object_03,1,2963,0,3,0,restaurant_1,2,memory-2step-stake-s,744,3711725,0.0-19.0-0.1-0.238,AKFOCQ8TQZDDG,3SA4EMRVKYI00KKCICLEW0FTGRS0PA,3J2UYBXQQPSVCX01TIR7FKKZFY560A,7,8
239,3,object_02,object_08,-1.0,-1,-1,-1.0,0.0,-,0,1,2963,0,4,3,library_7,2,memory-2step-stake-s,745,3720209,0.0-19.0-0.1-0.239,AKFOCQ8TQZDDG,3SA4EMRVKYI00KKCICLEW0FTGRS0PA,3J2UYBXQQPSVCX01TIR7FKKZFY560A,5,6
240,3,object_08,object_02,1243.0,6,1,252.5,0.3333333333333333,2,object_06,1,2966,0,8,3,library_8,2,memory-2step-stake-s,746,3731974,0.0-19.0-0.1-0.240,AKFOCQ8TQZDDG,3SA4EMRVKYI00KKCICLEW0FTGRS0PA,3J2UYBXQQPSVCX01TIR7FKKZFY560A,6,5
241,2,object_07,object_10,459.0,4,1,251.69999998808,0.3333333333333333,2,object_06,5,2981,0,7,3,forest_8,2,memory-2step-stake-s,747,3740343,0.0-19.0-0.1-0.241,AKFOCQ8TQZDDG,3SA4EMRVKYI00KKCICLEW0FTGRS0PA,3J2UYBXQQPSVCX01TIR7FKKZFY560A,4,3
242,2,object_07,object_10,658.10000002384,4,1,228.39999997616,0.5555555555555556,2,object_06,5,3006,0,9,5,forest_8,2,memory-2step-stake-s,748,3748328,0.0-19.0-0.1-0.242,AKFOCQ8TQZDDG,3SA4EMRVKYI00KKCICLEW0FTGRS0PA,3J2UYBXQQPSVCX01TIR7FKKZFY560A,4,3
243,4,object_05,object_09,367.70000001788,8,2,300.59999999404,0.4444444444444444,2,object_06,1,3010,0,7,4,restaurant_1,2,memory-2step-stake-s,749,3756281,0.0-19.0-0.1-0.243,AKFOCQ8TQZDDG,3SA4EMRVKYI00KKCICLEW0FTGRS0PA,3J2UYBXQQPSVCX01TIR7FKKZFY560A,7,8
244,2,object_07,object_10,632.0,4,1,235.90000000596,0.3333333333333333,2,object_06,5,3025,0,8,3,forest_5,2,memory-2step-stake-s,750,3764059,0.0-19.0-0.1-0.244,AKFOCQ8TQZDDG,3SA4EMRVKYI00KKCICLEW0FTGRS0PA,3J2UYBXQQPSVCX01TIR7FKKZFY560A,4,3
245,1,object_04,object_01,909.69999998808,1,1,244.30000001192,0.7777777777777778,1,object_03,1,3032,0,7,1,desert_7,2,memory-2step-stake-s,751,3772261,0.0-19.0-0.1-0.245,AKFOCQ8TQZDDG,3SA4EMRVKYI00KKCICLEW0FTGRS0PA,3J2UYBXQQPSVCX01TIR7FKKZFY560A,1,2
246,3,object_08,object_02,712.30000001192,5,2,249.0,0.8888888888888888,1,object_03,1,3040,0,8,4,library_1,2,memory-2step-stake-s,752,3780573,0.0-19.0-0.1-0.246,AKFOCQ8TQZDDG,3SA4EMRVKYI00KKCICLEW0FTGRS0PA,3J2UYBXQQPSVCX01TIR7FKKZFY560A,6,5
247,3,object_08,object_02,776.0,5,2,255.89999997616,0.6666666666666666,1,object_03,5,3070,0,6,3,library_8,2,memory-2step-stake-s,753,3788688,0.0-19.0-0.1-0.247,AKFOCQ8TQZDDG,3SA4EMRVKYI00KKCICLEW0FTGRS0PA,3J2UYBXQQPSVCX01TIR7FKKZFY560A,6,5
248,2,object_10,object_07,748.70000001788,3,1,18.300000011921,0.3333333333333333,1,object_03,5,3085,0,3,2,forest_5,2,memory-2step-stake-s,754,3796251,0.0-19.0-0.1-0.248,AKFOCQ8TQZDDG,3SA4EMRVKYI00KKCICLEW0FTGRS0PA,3J2UYBXQQPSVCX01TIR7FKKZFY560A,3,4
249,3,object_08,object_02,794.30000001192,6,1,243.90000000596,0.0,2,object_06,1,3085,0,3,0,library_7,2,memory-2step-stake-s,755,3803723,0.0-19.0-0.1-0.249,AKFOCQ8TQZDDG,3SA4EMRVKYI00KKCICLEW0FTGRS0PA,3J2UYBXQQPSVCX01TIR7FKKZFY560A,6,5
250,3,object_02,object_08,551.59999999404,6,2,305.80000001192,0.3333333333333333,2,object_06,1,3088,0,3,3,library_4,2,memory-2step-stake-s,756,3811571,0.0-19.0-0.1-0.250,AKFOCQ8TQZDDG,3SA4EMRVKYI00KKCICLEW0FTGRS0PA,3J2UYBXQQPSVCX01TIR7FKKZFY560A,5,6
251,3,object_08,object_02,700.90000000596,6,1,359.5,0.1111111111111111,2,object_06,1,3089,0,3,1,library_8,2,memory-2step-stake-s,757,3819256,0.0-19.0-0.1-0.251,AKFOCQ8TQZDDG,3SA4EMRVKYI00KKCICLEW0FTGRS0PA,3J2UYBXQQPSVCX01TIR7FKKZFY560A,6,5
252,4,object_05,object_09,810.40000000596,8,2,291.5,0.2222222222222222,2,object_06,1,3091,0,5,2,restaurant_4,2,memory-2step-stake-s,758,3826988,0.0-19.0-0.1-0.252,AKFOCQ8TQZDDG,3SA4EMRVKYI00KKCICLEW0FTGRS0PA,3J2UYBXQQPSVCX01TIR7FKKZFY560A,7,8
253,1,object_04,object_01,757.90000000596,1,1,370.40000000596,0.7777777777777778,1,object_03,5,3126,0,7,2,desert_5,2,memory-2step-stake-s,759,3835323,0.0-19.0-0.1-0.253,AKFOCQ8TQZDDG,3SA4EMRVKYI00KKCICLEW0FTGRS0PA,3J2UYBXQQPSVCX01TIR7FKKZFY560A,1,2
254,4,object_09,object_05,855.5,7,2,340.69999998808,0.8888888888888888,1,object_03,1,3134,0,8,1,restaurant_5,2,memory-2step-stake-s,760,3843729,0.0-19.0-0.1-0.254,AKFOCQ8TQZDDG,3SA4EMRVKYI00KKCICLEW0FTGRS0PA,3J2UYBXQQPSVCX01TIR7FKKZFY560A,8,7
255,1,object_04,object_01,671.70000001788,1,1,250.60000002384,0.8888888888888888,1,object_03,1,3142,0,8,3,desert_5,2,memory-2step-stake-s,761,3852048,0.0-19.0-0.1-0.255,AKFOCQ8TQZDDG,3SA4EMRVKYI00KKCICLEW0FTGRS0PA,3J2UYBXQQPSVCX01TIR7FKKZFY560A,1,2
