,state1,stim_left,stim_right,rt_1,choice1,response1,rt_2,points,state2,stim_state2,stake,score,practice,rews1,rews2,background,high_arm,trial_type,trial_index,time_elapsed,internal_node_id,subid,hitid,assignmentid,stim_left_num,stim_right_num
0,4,object_07,object_01,1131.8000000119,8,2,-1.0,0.0,2,object_03,1,0,0,5,3,restaurant_7,2,memory-2step-stake-s,495,982084,0.0-19.0-0.0-0.0,A37PUSY6CJ7TQ0,30UZJB2PPKSSO21QHKUJ0S8JS3B35M,3OXV7EAXLI6RTPZYC59QHII6IAN633,7,8
1,3,object_02,object_09,877.19999998808,6,2,-1.0,0.0,2,object_03,1,0,0,6,7,library_3,2,memory-2step-stake-s,496,990669,0.0-19.0-0.0-0.1,A37PUSY6CJ7TQ0,30UZJB2PPKSSO21QHKUJ0S8JS3B35M,3OXV7EAXLI6RTPZYC59QHII6IAN633,5,6
2,1,object_04,object_10,900.29999995232,1,1,323.09999996424,0.5555555555555556,1,object_06,1,5,0,5,9,desert_7,2,memory-2step-stake-s,497,998884,0.0-19.0-0.0-0.2,A37PUSY6CJ7TQ0,30UZJB2PPKSSO21QHKUJ0S8JS3B35M,3OXV7EAXLI6RTPZYC59QHII6IAN633,1,2
3,2,object_05,object_08,680.60000002384,4,2,737.69999998808,0.6666666666666666,2,object_03,5,35,0,1,6,forest_8,2,memory-2step-stake-s,498,1007579,0.0-19.0-0.0-0.3,A37PUSY6CJ7TQ0,30UZJB2PPKSSO21QHKUJ0S8JS3B35M,3OXV7EAXLI6RTPZYC59QHII6IAN633,3,4
4,4,object_07,object_01,496.10000002384,7,1,323.79999995232,0.3333333333333333,1,object_06,1,38,0,3,7,restaurant_8,2,memory-2step-stake-s,499,1015559,0.0-19.0-0.0-0.4,A37PUSY6CJ7TQ0,30UZJB2PPKSSO21QHKUJ0S8JS3B35M,3OXV7EAXLI6RTPZYC59QHII6IAN633,7,8
5,1,object_10,object_04,1026.0,2,1,391.10000002384,0.7777777777777778,2,object_03,5,73,0,2,7,desert_8,2,memory-2step-stake-s,500,1023991,0.0-19.0-0.0-0.5,A37PUSY6CJ7TQ0,30UZJB2PPKSSO21QHKUJ0S8JS3B35M,3OXV7EAXLI6RTPZYC59QHII6IAN633,2,1
6,2,object_05,object_08,575.80000001192,4,2,484.19999998808,0.4444444444444444,2,object_03,1,77,0,3,4,forest_2,2,memory-2step-stake-s,501,1032208,0.0-19.0-0.0-0.6,A37PUSY6CJ7TQ0,30UZJB2PPKSSO21QHKUJ0S8JS3B35M,3OXV7EAXLI6RTPZYC59QHII6IAN633,3,4
7,4,object_07,object_01,1184.8000000119,8,2,509.60000002384,0.6666666666666666,2,object_03,1,83,0,6,6,restaurant_7,2,memory-2step-stake-s,502,1040644,0.0-19.0-0.0-0.7,A37PUSY6CJ7TQ0,30UZJB2PPKSSO21QHKUJ0S8JS3B35M,3OXV7EAXLI6RTPZYC59QHII6IAN633,7,8
8,1,object_04,object_10,929.90000003576,1,1,387.40000003576,1.0,1,object_06,1,92,0,9,8,desert_8,2,memory-2step-stake-s,503,1049274,0.0-19.0-0.0-0.8,A37PUSY6CJ7TQ0,30UZJB2PPKSSO21QHKUJ0S8JS3B35M,3OXV7EAXLI6RTPZYC59QHII6IAN633,1,2
9,4,object_01,object_07,740.30000001192,7,2,442.79999995232,0.6666666666666666,1,object_06,5,122,0,6,7,restaurant_5,2,memory-2step-stake-s,504,1057685,0.0-19.0-0.0-0.9,A37PUSY6CJ7TQ0,30UZJB2PPKSSO21QHKUJ0S8JS3B35M,3OXV7EAXLI6RTPZYC59QHII6IAN633,8,7
10,3,object_09,object_02,653.39999997616,6,1,447.40000003576,0.8888888888888888,2,object_03,1,130,0,3,8,library_1,2,memory-2step-stake-s,505,1066304,0.0-19.0-0.0-0.10,A37PUSY6CJ7TQ0,30UZJB2PPKSSO21QHKUJ0S8JS3B35M,3OXV7EAXLI6RTPZYC59QHII6IAN633,6,5
11,4,object_07,object_01,632.09999996424,8,2,447.69999998808,0.5555555555555556,2,object_03,1,135,0,5,5,restaurant_8,2,memory-2step-stake-s,506,1074585,0.0-19.0-0.0-0.11,A37PUSY6CJ7TQ0,30UZJB2PPKSSO21QHKUJ0S8JS3B35M,3OXV7EAXLI6RTPZYC59QHII6IAN633,7,8
12,1,object_04,object_10,897.79999995232,2,2,752.30000001192,0.5555555555555556,2,object_03,5,160,0,6,5,desert_6,2,memory-2step-stake-s,507,1083153,0.0-19.0-0.0-0.12,A37PUSY6CJ7TQ0,30UZJB2PPKSSO21QHKUJ0S8JS3B35M,3OXV7EAXLI6RTPZYC59QHII6IAN633,1,2
13,2,object_05,object_08,732.69999998808,3,1,520.29999995232,0.7777777777777778,1,object_06,5,195,0,7,8,forest_2,2,memory-2step-stake-s,508,1091742,0.0-19.0-0.0-0.13,A37PUSY6CJ7TQ0,30UZJB2PPKSSO21QHKUJ0S8JS3B35M,3OXV7EAXLI6RTPZYC59QHII6IAN633,3,4
14,2,object_08,object_05,591.90000003576,4,1,673.89999997616,0.8888888888888888,2,object_03,5,235,0,6,8,forest_8,2,memory-2step-stake-s,509,1100592,0.0-19.0-0.0-0.14,A37PUSY6CJ7TQ0,30UZJB2PPKSSO21QHKUJ0S8JS3B35M,3OXV7EAXLI6RTPZYC59QHII6IAN633,4,3
15,4,object_07,object_01,599.70000004768,7,1,403.39999997616,0.1111111111111111,1,object_06,5,240,0,1,8,restaurant_2,2,memory-2step-stake-s,510,1108394,0.0-19.0-0.0-0.15,A37PUSY6CJ7TQ0,30UZJB2PPKSSO21QHKUJ0S8JS3B35M,3OXV7EAXLI6RTPZYC59QHII6IAN633,7,8
16,2,object_08,object_05,986.10000002384,3,2,432.80000001192,0.5555555555555556,1,object_06,5,265,0,5,7,forest_2,2,memory-2step-stake-s,511,1116644,0.0-19.0-0.0-0.16,A37PUSY6CJ7TQ0,30UZJB2PPKSSO21QHKUJ0S8JS3B35M,3OXV7EAXLI6RTPZYC59QHII6IAN633,4,3
17,1,object_10,object_04,848.39999997616,2,1,395.30000001192,0.8888888888888888,2,object_03,5,305,0,3,8,desert_6,2,memory-2step-stake-s,512,1125163,0.0-19.0-0.0-0.17,A37PUSY6CJ7TQ0,30UZJB2PPKSSO21QHKUJ0S8JS3B35M,3OXV7EAXLI6RTPZYC59QHII6IAN633,2,1
18,3,object_02,object_09,598.0,6,2,497.40000003576,0.8888888888888888,2,object_03,1,313,0,6,8,library_1,2,memory-2step-stake-s,513,1133851,0.0-19.0-0.0-0.18,A37PUSY6CJ7TQ0,30UZJB2PPKSSO21QHKUJ0S8JS3B35M,3OXV7EAXLI6RTPZYC59QHII6IAN633,5,6
19,2,object_08,object_05,820.39999997616,4,1,552.89999997616,0.8888888888888888,2,object_03,1,321,0,8,8,forest_8,2,memory-2step-stake-s,514,1142568,0.0-19.0-0.0-0.19,A37PUSY6CJ7TQ0,30UZJB2PPKSSO21QHKUJ0S8JS3B35M,3OXV7EAXLI6RTPZYC59QHII6IAN633,4,3
20,2,object_08,object_05,896.5,3,2,886.5,1.0,1,object_06,5,366,0,9,6,forest_1,2,memory-2step-stake-s,515,1151724,0.0-19.0-0.0-0.20,A37PUSY6CJ7TQ0,30UZJB2PPKSSO21QHKUJ0S8JS3B35M,3OXV7EAXLI6RTPZYC59QHII6IAN633,4,3
21,4,object_01,object_07,636.40000003576,8,1,618.0,0.4444444444444444,2,object_03,1,370,0,8,4,restaurant_5,2,memory-2step-stake-s,516,1160075,0.0-19.0-0.0-0.21,A37PUSY6CJ7TQ0,30UZJB2PPKSSO21QHKUJ0S8JS3B35M,3OXV7EAXLI6RTPZYC59QHII6IAN633,8,7
22,2,object_05,object_08,804.39999997616,4,2,451.40000003576,0.4444444444444444,2,object_03,1,374,0,5,4,forest_1,2,memory-2step-stake-s,517,1168230,0.0-19.0-0.0-0.22,A37PUSY6CJ7TQ0,30UZJB2PPKSSO21QHKUJ0S8JS3B35M,3OXV7EAXLI6RTPZYC59QHII6IAN633,3,4
23,1,object_04,object_10,905.89999997616,1,1,534.60000002384,0.4444444444444444,1,object_06,5,394,0,4,5,desert_4,2,memory-2step-stake-s,518,1176462,0.0-19.0-0.0-0.23,A37PUSY6CJ7TQ0,30UZJB2PPKSSO21QHKUJ0S8JS3B35M,3OXV7EAXLI6RTPZYC59QHII6IAN633,1,2
24,4,object_01,object_07,778.39999997616,7,2,391.80000001192,0.5555555555555556,1,object_06,5,419,0,5,2,restaurant_5,2,memory-2step-stake-s,519,1184676,0.0-19.0-0.0-0.24,A37PUSY6CJ7TQ0,30UZJB2PPKSSO21QHKUJ0S8JS3B35M,3OXV7EAXLI6RTPZYC59QHII6IAN633,8,7
25,3,object_09,object_02,532.89999997616,6,1,404.80000001192,0.2222222222222222,2,object_03,1,421,0,3,2,library_3,2,memory-2step-stake-s,520,1192595,0.0-19.0-0.0-0.25,A37PUSY6CJ7TQ0,30UZJB2PPKSSO21QHKUJ0S8JS3B35M,3OXV7EAXLI6RTPZYC59QHII6IAN633,6,5
26,1,object_10,object_04,915.09999996424,2,1,-1.0,0.0,2,object_03,5,421,0,3,4,desert_6,2,memory-2step-stake-s,521,1201165,0.0-19.0-0.0-0.26,A37PUSY6CJ7TQ0,30UZJB2PPKSSO21QHKUJ0S8JS3B35M,3OXV7EAXLI6RTPZYC59QHII6IAN633,2,1
27,4,object_07,object_01,734.5,7,1,625.09999996424,0.2222222222222222,1,object_06,1,423,0,2,3,restaurant_5,2,memory-2step-stake-s,522,1209302,0.0-19.0-0.0-0.27,A37PUSY6CJ7TQ0,30UZJB2PPKSSO21QHKUJ0S8JS3B35M,3OXV7EAXLI6RTPZYC59QHII6IAN633,7,8
28,4,object_01,object_07,805.30000001192,8,1,347.10000002384,0.3333333333333333,2,object_03,5,438,0,1,3,restaurant_2,2,memory-2step-stake-s,523,1217269,0.0-19.0-0.0-0.28,A37PUSY6CJ7TQ0,30UZJB2PPKSSO21QHKUJ0S8JS3B35M,3OXV7EAXLI6RTPZYC59QHII6IAN633,8,7
29,3,object_02,object_09,847.39999997616,5,1,601.39999997616,0.3333333333333333,1,object_06,5,453,0,3,4,library_6,2,memory-2step-stake-s,524,1225488,0.0-19.0-0.0-0.29,A37PUSY6CJ7TQ0,30UZJB2PPKSSO21QHKUJ0S8JS3B35M,3OXV7EAXLI6RTPZYC59QHII6IAN633,5,6
30,3,object_02,object_09,827.19999998808,5,1,308.30000001192,0.1111111111111111,1,object_06,1,454,0,1,3,library_8,2,memory-2step-stake-s,525,1233185,0.0-19.0-0.0-0.30,A37PUSY6CJ7TQ0,30UZJB2PPKSSO21QHKUJ0S8JS3B35M,3OXV7EAXLI6RTPZYC59QHII6IAN633,5,6
31,3,object_02,object_09,794.30000001192,6,2,579.69999998808,0.4444444444444444,2,object_03,5,474,0,2,4,library_8,2,memory-2step-stake-s,526,1241488,0.0-19.0-0.0-0.31,A37PUSY6CJ7TQ0,30UZJB2PPKSSO21QHKUJ0S8JS3B35M,3OXV7EAXLI6RTPZYC59QHII6IAN633,5,6
32,3,object_02,object_09,728.5,6,2,345.09999996424,0.6666666666666666,2,object_03,1,480,0,2,6,library_6,2,memory-2step-stake-s,527,1249803,0.0-19.0-0.0-0.32,A37PUSY6CJ7TQ0,30UZJB2PPKSSO21QHKUJ0S8JS3B35M,3OXV7EAXLI6RTPZYC59QHII6IAN633,5,6
33,1,object_04,object_10,628.19999998808,2,2,1426.3000000119,0.8888888888888888,2,object_03,5,520,0,2,8,desert_7,2,memory-2step-stake-s,528,1259397,0.0-19.0-0.0-0.33,A37PUSY6CJ7TQ0,30UZJB2PPKSSO21QHKUJ0S8JS3B35M,3OXV7EAXLI6RTPZYC59QHII6IAN633,1,2
34,1,object_10,object_04,649.69999998808,2,1,717.39999997616,0.7777777777777778,2,object_03,5,555,0,1,7,desert_8,2,memory-2step-stake-s,529,1268159,0.0-19.0-0.0-0.34,A37PUSY6CJ7TQ0,30UZJB2PPKSSO21QHKUJ0S8JS3B35M,3OXV7EAXLI6RTPZYC59QHII6IAN633,2,1
35,1,object_10,object_04,466.0,1,2,547.59999996424,0.3333333333333333,1,object_06,5,570,0,3,7,desert_4,2,memory-2step-stake-s,530,1276336,0.0-19.0-0.0-0.35,A37PUSY6CJ7TQ0,30UZJB2PPKSSO21QHKUJ0S8JS3B35M,3OXV7EAXLI6RTPZYC59QHII6IAN633,2,1
36,1,object_04,object_10,552.0,1,1,452.09999996424,0.6666666666666666,1,object_06,5,600,0,6,6,desert_7,2,memory-2step-stake-s,531,1284717,0.0-19.0-0.0-0.36,A37PUSY6CJ7TQ0,30UZJB2PPKSSO21QHKUJ0S8JS3B35M,3OXV7EAXLI6RTPZYC59QHII6IAN633,1,2
37,1,object_04,object_10,822.40000003576,2,2,443.30000001192,0.5555555555555556,2,object_03,1,605,0,7,5,desert_4,2,memory-2step-stake-s,532,1293033,0.0-19.0-0.0-0.37,A37PUSY6CJ7TQ0,30UZJB2PPKSSO21QHKUJ0S8JS3B35M,3OXV7EAXLI6RTPZYC59QHII6IAN633,1,2
38,3,object_02,object_09,763.59999996424,6,2,726.90000003576,0.4444444444444444,2,object_03,1,609,0,9,4,library_1,2,memory-2step-stake-s,533,1301468,0.0-19.0-0.0-0.38,A37PUSY6CJ7TQ0,30UZJB2PPKSSO21QHKUJ0S8JS3B35M,3OXV7EAXLI6RTPZYC59QHII6IAN633,5,6
39,3,object_02,object_09,586.39999997616,5,1,552.5,1.0,1,object_06,5,654,0,9,4,library_1,2,memory-2step-stake-s,534,1310281,0.0-19.0-0.0-0.39,A37PUSY6CJ7TQ0,30UZJB2PPKSSO21QHKUJ0S8JS3B35M,3OXV7EAXLI6RTPZYC59QHII6IAN633,5,6
40,3,object_02,object_09,691.30000001192,6,2,1043.0,0.2222222222222222,2,object_03,1,656,0,8,2,library_1,2,memory-2step-stake-s,535,1318821,0.0-19.0-0.0-0.40,A37PUSY6CJ7TQ0,30UZJB2PPKSSO21QHKUJ0S8JS3B35M,3OXV7EAXLI6RTPZYC59QHII6IAN633,5,6
41,3,object_09,object_02,621.09999996424,6,1,391.89999997616,0.2222222222222222,2,object_03,1,658,0,7,2,library_1,2,memory-2step-stake-s,536,1326706,0.0-19.0-0.0-0.41,A37PUSY6CJ7TQ0,30UZJB2PPKSSO21QHKUJ0S8JS3B35M,3OXV7EAXLI6RTPZYC59QHII6IAN633,6,5
42,1,object_04,object_10,482.40000003576,2,2,412.39999997616,0.1111111111111111,2,object_03,5,663,0,8,1,desert_8,2,memory-2step-stake-s,537,1334491,0.0-19.0-0.0-0.42,A37PUSY6CJ7TQ0,30UZJB2PPKSSO21QHKUJ0S8JS3B35M,3OXV7EAXLI6RTPZYC59QHII6IAN633,1,2
43,4,object_01,object_07,651.5,8,1,469.79999995232,0.3333333333333333,2,object_03,5,678,0,4,3,restaurant_8,2,memory-2step-stake-s,538,1342591,0.0-19.0-0.0-0.43,A37PUSY6CJ7TQ0,30UZJB2PPKSSO21QHKUJ0S8JS3B35M,3OXV7EAXLI6RTPZYC59QHII6IAN633,8,7
44,3,object_02,object_09,976.79999995232,5,1,288.40000003576,0.5555555555555556,1,object_06,1,683,0,5,2,library_3,2,memory-2step-stake-s,539,1350695,0.0-19.0-0.0-0.44,A37PUSY6CJ7TQ0,30UZJB2PPKSSO21QHKUJ0S8JS3B35M,3OXV7EAXLI6RTPZYC59QHII6IAN633,5,6
45,4,object_01,object_07,994.80000001192,7,2,900.39999997616,0.5555555555555556,1,object_06,1,688,0,5,2,restaurant_8,2,memory-2step-stake-s,540,1359429,0.0-19.0-0.0-0.45,A37PUSY6CJ7TQ0,30UZJB2PPKSSO21QHKUJ0S8JS3B35M,3OXV7EAXLI6RTPZYC59QHII6IAN633,8,7
46,1,object_10,object_04,803.30000001192,2,1,773.60000002384,0.2222222222222222,2,object_03,5,698,0,6,2,desert_7,2,memory-2step-stake-s,541,1367699,0.0-19.0-0.0-0.46,A37PUSY6CJ7TQ0,30UZJB2PPKSSO21QHKUJ0S8JS3B35M,3OXV7EAXLI6RTPZYC59QHII6IAN633,2,1
47,3,object_09,object_02,653.60000002384,6,1,524.80000001192,0.0,2,object_03,1,698,0,7,0,library_3,2,memory-2step-stake-s,542,1375523,0.0-19.0-0.0-0.47,A37PUSY6CJ7TQ0,30UZJB2PPKSSO21QHKUJ0S8JS3B35M,3OXV7EAXLI6RTPZYC59QHII6IAN633,6,5
48,2,object_05,object_08,900.79999995232,4,2,409.90000003576,0.4444444444444444,2,object_03,5,718,0,5,4,forest_4,2,memory-2step-stake-s,543,1383685,0.0-19.0-0.0-0.48,A37PUSY6CJ7TQ0,30UZJB2PPKSSO21QHKUJ0S8JS3B35M,3OXV7EAXLI6RTPZYC59QHII6IAN633,3,4
49,2,object_08,object_05,934.0,4,1,367.80000001192,0.0,2,object_03,5,718,0,6,0,forest_2,2,memory-2step-stake-s,544,1391354,0.0-19.0-0.0-0.49,A37PUSY6CJ7TQ0,30UZJB2PPKSSO21QHKUJ0S8JS3B35M,3OXV7EAXLI6RTPZYC59QHII6IAN633,4,3
50,2,object_08,object_05,588.59999996424,3,2,487.69999998808,0.7777777777777778,1,object_06,5,753,0,7,0,forest_4,2,memory-2step-stake-s,545,1399920,0.0-19.0-0.0-0.50,A37PUSY6CJ7TQ0,30UZJB2PPKSSO21QHKUJ0S8JS3B35M,3OXV7EAXLI6RTPZYC59QHII6IAN633,4,3
51,2,object_05,object_08,563.80000001192,3,1,719.29999995232,1.0,1,object_06,1,762,0,9,2,forest_8,2,memory-2step-stake-s,546,1408937,0.0-19.0-0.0-0.51,A37PUSY6CJ7TQ0,30UZJB2PPKSSO21QHKUJ0S8JS3B35M,3OXV7EAXLI6RTPZYC59QHII6IAN633,3,4
52,4,object_07,object_01,812.29999995232,7,1,528.60000002384,1.0,1,object_06,1,771,0,9,4,restaurant_5,2,memory-2step-stake-s,547,1417726,0.0-19.0-0.0-0.52,A37PUSY6CJ7TQ0,30UZJB2PPKSSO21QHKUJ0S8JS3B35M,3OXV7EAXLI6RTPZYC59QHII6IAN633,7,8
53,1,object_10,object_04,693.19999998808,1,2,756.60000002384,0.8888888888888888,1,object_06,5,811,0,8,7,desert_8,2,memory-2step-stake-s,548,1426660,0.0-19.0-0.0-0.53,A37PUSY6CJ7TQ0,30UZJB2PPKSSO21QHKUJ0S8JS3B35M,3OXV7EAXLI6RTPZYC59QHII6IAN633,2,1
54,3,object_09,object_02,521.90000003576,6,1,424.0,0.6666666666666666,2,object_03,1,817,0,7,6,library_1,2,memory-2step-stake-s,549,1435077,0.0-19.0-0.0-0.54,A37PUSY6CJ7TQ0,30UZJB2PPKSSO21QHKUJ0S8JS3B35M,3OXV7EAXLI6RTPZYC59QHII6IAN633,6,5
55,4,object_07,object_01,-1.0,-1,-1,-1.0,0.0,-,0,5,817,0,5,4,restaurant_7,2,memory-2step-stake-s,550,1441641,0.0-19.0-0.0-0.55,A37PUSY6CJ7TQ0,30UZJB2PPKSSO21QHKUJ0S8JS3B35M,3OXV7EAXLI6RTPZYC59QHII6IAN633,7,8
56,3,object_02,object_09,414.69999998808,6,2,511.10000002384,0.1111111111111111,2,object_03,1,818,0,3,1,library_1,2,memory-2step-stake-s,551,1449552,0.0-19.0-0.0-0.56,A37PUSY6CJ7TQ0,30UZJB2PPKSSO21QHKUJ0S8JS3B35M,3OXV7EAXLI6RTPZYC59QHII6IAN633,5,6
57,2,object_05,object_08,659.09999996424,3,1,514.5,0.1111111111111111,1,object_06,5,823,0,1,4,forest_4,2,memory-2step-stake-s,552,1457487,0.0-19.0-0.0-0.57,A37PUSY6CJ7TQ0,30UZJB2PPKSSO21QHKUJ0S8JS3B35M,3OXV7EAXLI6RTPZYC59QHII6IAN633,3,4
58,4,object_07,object_01,666.69999998808,7,1,496.0,0.0,1,object_06,1,823,0,0,6,restaurant_8,2,memory-2step-stake-s,553,1465289,0.0-19.0-0.0-0.58,A37PUSY6CJ7TQ0,30UZJB2PPKSSO21QHKUJ0S8JS3B35M,3OXV7EAXLI6RTPZYC59QHII6IAN633,7,8
59,2,object_08,object_05,1140.0999999642,3,2,327.89999997616,0.0,1,object_06,5,823,0,0,5,forest_2,2,memory-2step-stake-s,554,1472910,0.0-19.0-0.0-0.59,A37PUSY6CJ7TQ0,30UZJB2PPKSSO21QHKUJ0S8JS3B35M,3OXV7EAXLI6RTPZYC59QHII6IAN633,4,3
60,1,object_10,object_04,989.20000004768,2,1,278.09999996424,0.5555555555555556,2,object_03,1,828,0,0,5,desert_6,2,memory-2step-stake-s,555,1481028,0.0-19.0-0.0-0.60,A37PUSY6CJ7TQ0,30UZJB2PPKSSO21QHKUJ0S8JS3B35M,3OXV7EAXLI6RTPZYC59QHII6IAN633,2,1
61,4,object_07,object_01,905.0,8,2,382.0,0.4444444444444444,2,object_03,1,832,0,1,4,restaurant_7,2,memory-2step-stake-s,556,1489135,0.0-19.0-0.0-0.61,A37PUSY6CJ7TQ0,30UZJB2PPKSSO21QHKUJ0S8JS3B35M,3OXV7EAXLI6RTPZYC59QHII6IAN633,7,8
62,4,object_07,object_01,638.39999997616,7,1,338.39999997616,0.5555555555555556,1,object_06,1,837,0,5,5,restaurant_7,2,memory-2step-stake-s,557,1497323,0.0-19.0-0.0-0.62,A37PUSY6CJ7TQ0,30UZJB2PPKSSO21QHKUJ0S8JS3B35M,3OXV7EAXLI6RTPZYC59QHII6IAN633,7,8
63,1,object_04,object_10,733.0,1,1,490.80000001192,0.1111111111111111,1,object_06,5,842,0,1,2,desert_6,2,memory-2step-stake-s,558,1505199,0.0-19.0-0.0-0.63,A37PUSY6CJ7TQ0,30UZJB2PPKSSO21QHKUJ0S8JS3B35M,3OXV7EAXLI6RTPZYC59QHII6IAN633,1,2
64,1,object_04,object_10,480.0,2,2,424.5,0.1111111111111111,2,object_03,5,847,0,1,1,desert_8,2,memory-2step-stake-s,559,1513032,0.0-19.0-0.0-0.64,A37PUSY6CJ7TQ0,30UZJB2PPKSSO21QHKUJ0S8JS3B35M,3OXV7EAXLI6RTPZYC59QHII6IAN633,1,2
65,1,object_04,object_10,613.5,1,1,418.09999996424,0.1111111111111111,1,object_06,5,852,0,1,3,desert_6,2,memory-2step-stake-s,560,1520849,0.0-19.0-0.0-0.65,A37PUSY6CJ7TQ0,30UZJB2PPKSSO21QHKUJ0S8JS3B35M,3OXV7EAXLI6RTPZYC59QHII6IAN633,1,2
66,3,object_02,object_09,753.0,6,2,354.39999997616,0.7777777777777778,2,object_03,1,859,0,0,7,library_8,2,memory-2step-stake-s,561,1529294,0.0-19.0-0.0-0.66,A37PUSY6CJ7TQ0,30UZJB2PPKSSO21QHKUJ0S8JS3B35M,3OXV7EAXLI6RTPZYC59QHII6IAN633,5,6
67,3,object_09,object_02,592.89999997616,6,1,349.80000001192,0.7777777777777778,2,object_03,5,894,0,4,7,library_3,2,memory-2step-stake-s,562,1537673,0.0-19.0-0.0-0.67,A37PUSY6CJ7TQ0,30UZJB2PPKSSO21QHKUJ0S8JS3B35M,3OXV7EAXLI6RTPZYC59QHII6IAN633,6,5
68,3,object_09,object_02,716.5,5,2,419.09999996424,0.6666666666666666,1,object_06,1,900,0,6,6,library_6,2,memory-2step-stake-s,563,1546058,0.0-19.0-0.0-0.68,A37PUSY6CJ7TQ0,30UZJB2PPKSSO21QHKUJ0S8JS3B35M,3OXV7EAXLI6RTPZYC59QHII6IAN633,6,5
69,3,object_02,object_09,628.5,6,2,434.30000001192,0.7777777777777778,2,object_03,5,935,0,7,7,library_8,2,memory-2step-stake-s,564,1554580,0.0-19.0-0.0-0.69,A37PUSY6CJ7TQ0,30UZJB2PPKSSO21QHKUJ0S8JS3B35M,3OXV7EAXLI6RTPZYC59QHII6IAN633,5,6
70,1,object_04,object_10,828.59999996424,2,2,430.10000002384,0.7777777777777778,2,object_03,5,970,0,7,7,desert_4,2,memory-2step-stake-s,565,1563076,0.0-19.0-0.0-0.70,A37PUSY6CJ7TQ0,30UZJB2PPKSSO21QHKUJ0S8JS3B35M,3OXV7EAXLI6RTPZYC59QHII6IAN633,1,2
71,1,object_10,object_04,455.69999998808,2,1,375.5,0.8888888888888888,2,object_03,1,978,0,6,8,desert_4,2,memory-2step-stake-s,566,1571600,0.0-19.0-0.0-0.71,A37PUSY6CJ7TQ0,30UZJB2PPKSSO21QHKUJ0S8JS3B35M,3OXV7EAXLI6RTPZYC59QHII6IAN633,2,1
72,3,object_02,object_09,594.69999998808,6,2,307.80000001192,0.7777777777777778,2,object_03,1,985,0,6,7,library_6,2,memory-2step-stake-s,567,1579965,0.0-19.0-0.0-0.72,A37PUSY6CJ7TQ0,30UZJB2PPKSSO21QHKUJ0S8JS3B35M,3OXV7EAXLI6RTPZYC59QHII6IAN633,5,6
73,4,object_01,object_07,574.80000001192,8,1,315.5,1.0,2,object_03,1,994,0,8,9,restaurant_7,2,memory-2step-stake-s,568,1588565,0.0-19.0-0.0-0.73,A37PUSY6CJ7TQ0,30UZJB2PPKSSO21QHKUJ0S8JS3B35M,3OXV7EAXLI6RTPZYC59QHII6IAN633,8,7
74,1,object_04,object_10,579.0,1,1,-1.0,0.0,1,object_06,1,994,0,6,7,desert_7,2,memory-2step-stake-s,569,1597151,0.0-19.0-0.0-0.74,A37PUSY6CJ7TQ0,30UZJB2PPKSSO21QHKUJ0S8JS3B35M,3OXV7EAXLI6RTPZYC59QHII6IAN633,1,2
75,4,object_01,object_07,420.39999997616,7,2,515.59999996424,0.4444444444444444,1,object_06,1,998,0,4,8,restaurant_2,2,memory-2step-stake-s,570,1605404,0.0-19.0-0.0-0.75,A37PUSY6CJ7TQ0,30UZJB2PPKSSO21QHKUJ0S8JS3B35M,3OXV7EAXLI6RTPZYC59QHII6IAN633,8,7
76,1,object_10,object_04,643.10000002384,2,1,698.39999997616,0.8888888888888888,2,object_03,1,1006,0,4,8,desert_7,2,memory-2step-stake-s,571,1614256,0.0-19.0-0.0-0.76,A37PUSY6CJ7TQ0,30UZJB2PPKSSO21QHKUJ0S8JS3B35M,3OXV7EAXLI6RTPZYC59QHII6IAN633,2,1
77,2,object_05,object_08,583.5,4,2,585.40000003576,0.7777777777777778,2,object_03,1,1013,0,0,7,forest_1,2,memory-2step-stake-s,572,1622889,0.0-19.0-0.0-0.77,A37PUSY6CJ7TQ0,30UZJB2PPKSSO21QHKUJ0S8JS3B35M,3OXV7EAXLI6RTPZYC59QHII6IAN633,3,4
78,1,object_10,object_04,533.80000001192,2,1,462.09999996424,0.8888888888888888,2,object_03,5,1053,0,1,8,desert_7,2,memory-2step-stake-s,573,1631458,0.0-19.0-0.0-0.78,A37PUSY6CJ7TQ0,30UZJB2PPKSSO21QHKUJ0S8JS3B35M,3OXV7EAXLI6RTPZYC59QHII6IAN633,2,1
79,4,object_07,object_01,643.69999998808,8,2,433.39999997616,0.8888888888888888,2,object_03,1,1061,0,1,8,restaurant_7,2,memory-2step-stake-s,574,1640096,0.0-19.0-0.0-0.79,A37PUSY6CJ7TQ0,30UZJB2PPKSSO21QHKUJ0S8JS3B35M,3OXV7EAXLI6RTPZYC59QHII6IAN633,7,8
80,3,object_02,object_09,515.80000001192,5,1,468.09999996424,0.3333333333333333,1,object_06,5,1076,0,3,4,library_6,2,memory-2step-stake-s,575,1648167,0.0-19.0-0.0-0.80,A37PUSY6CJ7TQ0,30UZJB2PPKSSO21QHKUJ0S8JS3B35M,3OXV7EAXLI6RTPZYC59QHII6IAN633,5,6
81,4,object_07,object_01,492.80000001192,7,1,551.40000003576,0.2222222222222222,1,object_06,1,1078,0,2,2,restaurant_5,2,memory-2step-stake-s,576,1656221,0.0-19.0-0.0-0.81,A37PUSY6CJ7TQ0,30UZJB2PPKSSO21QHKUJ0S8JS3B35M,3OXV7EAXLI6RTPZYC59QHII6IAN633,7,8
82,4,object_07,object_01,706.19999998808,7,1,470.69999998808,0.1111111111111111,1,object_06,5,1083,0,1,2,restaurant_8,2,memory-2step-stake-s,577,1664093,0.0-19.0-0.0-0.82,A37PUSY6CJ7TQ0,30UZJB2PPKSSO21QHKUJ0S8JS3B35M,3OXV7EAXLI6RTPZYC59QHII6IAN633,7,8
83,4,object_07,object_01,452.80000001192,8,2,429.69999998808,0.1111111111111111,2,object_03,1,1084,0,0,1,restaurant_8,2,memory-2step-stake-s,578,1671884,0.0-19.0-0.0-0.83,A37PUSY6CJ7TQ0,30UZJB2PPKSSO21QHKUJ0S8JS3B35M,3OXV7EAXLI6RTPZYC59QHII6IAN633,7,8
84,2,object_08,object_05,464.0,4,1,354.5,0.1111111111111111,2,object_03,5,1089,0,1,1,forest_1,2,memory-2step-stake-s,579,1679616,0.0-19.0-0.0-0.84,A37PUSY6CJ7TQ0,30UZJB2PPKSSO21QHKUJ0S8JS3B35M,3OXV7EAXLI6RTPZYC59QHII6IAN633,4,3
85,2,object_05,object_08,737.40000003576,3,1,337.89999997616,0.2222222222222222,1,object_06,5,1099,0,2,5,forest_8,2,memory-2step-stake-s,580,1687437,0.0-19.0-0.0-0.85,A37PUSY6CJ7TQ0,30UZJB2PPKSSO21QHKUJ0S8JS3B35M,3OXV7EAXLI6RTPZYC59QHII6IAN633,3,4
86,2,object_08,object_05,799.10000002384,3,2,304.70000004768,0.1111111111111111,1,object_06,5,1104,0,1,4,forest_1,2,memory-2step-stake-s,581,1695118,0.0-19.0-0.0-0.86,A37PUSY6CJ7TQ0,30UZJB2PPKSSO21QHKUJ0S8JS3B35M,3OXV7EAXLI6RTPZYC59QHII6IAN633,4,3
87,3,object_09,object_02,559.39999997616,6,1,353.19999998808,0.4444444444444444,2,object_03,1,1108,0,6,4,library_6,2,memory-2step-stake-s,582,1703185,0.0-19.0-0.0-0.87,A37PUSY6CJ7TQ0,30UZJB2PPKSSO21QHKUJ0S8JS3B35M,3OXV7EAXLI6RTPZYC59QHII6IAN633,6,5
88,4,object_07,object_01,968.80000001192,7,1,409.5,1.0,1,object_06,5,1153,0,9,1,restaurant_2,2,memory-2step-stake-s,583,1711886,0.0-19.0-0.0-0.88,A37PUSY6CJ7TQ0,30UZJB2PPKSSO21QHKUJ0S8JS3B35M,3OXV7EAXLI6RTPZYC59QHII6IAN633,7,8
89,4,object_01,object_07,683.20000004768,7,2,565.80000001192,0.8888888888888888,1,object_06,5,1193,0,8,0,restaurant_2,2,memory-2step-stake-s,584,1720596,0.0-19.0-0.0-0.89,A37PUSY6CJ7TQ0,30UZJB2PPKSSO21QHKUJ0S8JS3B35M,3OXV7EAXLI6RTPZYC59QHII6IAN633,8,7
90,4,object_07,object_01,790.0,7,1,532.90000003576,0.7777777777777778,1,object_06,1,1200,0,7,1,restaurant_2,2,memory-2step-stake-s,585,1729194,0.0-19.0-0.0-0.90,A37PUSY6CJ7TQ0,30UZJB2PPKSSO21QHKUJ0S8JS3B35M,3OXV7EAXLI6RTPZYC59QHII6IAN633,7,8
91,3,object_02,object_09,1101.6999999881,5,1,371.19999998808,0.8888888888888888,1,object_06,1,1208,0,8,3,library_3,2,memory-2step-stake-s,586,1737711,0.0-19.0-0.0-0.91,A37PUSY6CJ7TQ0,30UZJB2PPKSSO21QHKUJ0S8JS3B35M,3OXV7EAXLI6RTPZYC59QHII6IAN633,5,6
92,1,object_10,object_04,691.5,1,2,368.39999997616,0.7777777777777778,1,object_06,5,1243,0,7,6,desert_8,2,memory-2step-stake-s,587,1746139,0.0-19.0-0.0-0.92,A37PUSY6CJ7TQ0,30UZJB2PPKSSO21QHKUJ0S8JS3B35M,3OXV7EAXLI6RTPZYC59QHII6IAN633,2,1
93,3,object_02,object_09,885.70000004768,5,1,434.30000001192,0.5555555555555556,1,object_06,1,1248,0,5,7,library_6,2,memory-2step-stake-s,588,1754416,0.0-19.0-0.0-0.93,A37PUSY6CJ7TQ0,30UZJB2PPKSSO21QHKUJ0S8JS3B35M,3OXV7EAXLI6RTPZYC59QHII6IAN633,5,6
94,3,object_09,object_02,1110.3999999762,6,1,404.69999998808,0.7777777777777778,2,object_03,1,1255,0,5,7,library_1,2,memory-2step-stake-s,589,1762900,0.0-19.0-0.0-0.94,A37PUSY6CJ7TQ0,30UZJB2PPKSSO21QHKUJ0S8JS3B35M,3OXV7EAXLI6RTPZYC59QHII6IAN633,6,5
95,3,object_02,object_09,1045.6000000238,6,2,387.80000001192,0.3333333333333333,2,object_03,1,1258,0,1,3,library_3,2,memory-2step-stake-s,590,1770884,0.0-19.0-0.0-0.95,A37PUSY6CJ7TQ0,30UZJB2PPKSSO21QHKUJ0S8JS3B35M,3OXV7EAXLI6RTPZYC59QHII6IAN633,5,6
96,2,object_08,object_05,685.60000002384,4,1,340.89999997616,0.3333333333333333,2,object_03,5,1273,0,1,3,forest_8,2,memory-2step-stake-s,591,1778852,0.0-19.0-0.0-0.96,A37PUSY6CJ7TQ0,30UZJB2PPKSSO21QHKUJ0S8JS3B35M,3OXV7EAXLI6RTPZYC59QHII6IAN633,4,3
97,2,object_08,object_05,719.19999998808,3,2,357.0,0.0,1,object_06,5,1273,0,0,4,forest_2,2,memory-2step-stake-s,592,1786496,0.0-19.0-0.0-0.97,A37PUSY6CJ7TQ0,30UZJB2PPKSSO21QHKUJ0S8JS3B35M,3OXV7EAXLI6RTPZYC59QHII6IAN633,4,3
98,3,object_02,object_09,619.80000001192,5,1,300.80000001192,0.0,1,object_06,1,1273,0,0,2,library_6,2,memory-2step-stake-s,593,1794091,0.0-19.0-0.0-0.98,A37PUSY6CJ7TQ0,30UZJB2PPKSSO21QHKUJ0S8JS3B35M,3OXV7EAXLI6RTPZYC59QHII6IAN633,5,6
99,3,object_09,object_02,460.10000002384,6,1,359.19999998808,0.3333333333333333,2,object_03,5,1288,0,2,3,library_8,2,memory-2step-stake-s,594,1802064,0.0-19.0-0.0-0.99,A37PUSY6CJ7TQ0,30UZJB2PPKSSO21QHKUJ0S8JS3B35M,3OXV7EAXLI6RTPZYC59QHII6IAN633,6,5
100,4,object_07,object_01,1155.7000000477,7,1,247.19999998808,0.6666666666666666,1,object_06,5,1318,0,6,6,restaurant_2,2,memory-2step-stake-s,595,1810264,0.0-19.0-0.0-0.100,A37PUSY6CJ7TQ0,30UZJB2PPKSSO21QHKUJ0S8JS3B35M,3OXV7EAXLI6RTPZYC59QHII6IAN633,7,8
101,3,object_09,object_02,773.89999997616,6,1,381.5,0.7777777777777778,2,object_03,1,1325,0,4,7,library_8,2,memory-2step-stake-s,596,1818673,0.0-19.0-0.0-0.101,A37PUSY6CJ7TQ0,30UZJB2PPKSSO21QHKUJ0S8JS3B35M,3OXV7EAXLI6RTPZYC59QHII6IAN633,6,5
102,1,object_10,object_04,640.40000003576,2,1,397.60000002384,0.5555555555555556,2,object_03,5,1350,0,5,5,desert_8,2,memory-2step-stake-s,597,1826908,0.0-19.0-0.0-0.102,A37PUSY6CJ7TQ0,30UZJB2PPKSSO21QHKUJ0S8JS3B35M,3OXV7EAXLI6RTPZYC59QHII6IAN633,2,1
103,1,object_04,object_10,822.60000002384,1,1,427.30000001192,0.5555555555555556,1,object_06,5,1375,0,5,4,desert_7,2,memory-2step-stake-s,598,1835176,0.0-19.0-0.0-0.103,A37PUSY6CJ7TQ0,30UZJB2PPKSSO21QHKUJ0S8JS3B35M,3OXV7EAXLI6RTPZYC59QHII6IAN633,1,2
104,4,object_07,object_01,630.19999998808,8,2,446.30000001192,0.3333333333333333,2,object_03,1,1378,0,4,3,restaurant_2,2,memory-2step-stake-s,599,1843210,0.0-19.0-0.0-0.104,A37PUSY6CJ7TQ0,30UZJB2PPKSSO21QHKUJ0S8JS3B35M,3OXV7EAXLI6RTPZYC59QHII6IAN633,7,8
105,4,object_07,object_01,369.90000003576,7,1,1067.8000000119,0.2222222222222222,1,object_06,5,1388,0,2,4,restaurant_2,2,memory-2step-stake-s,600,1851776,0.0-19.0-0.0-0.105,A37PUSY6CJ7TQ0,30UZJB2PPKSSO21QHKUJ0S8JS3B35M,3OXV7EAXLI6RTPZYC59QHII6IAN633,7,8
106,4,object_01,object_07,506.80000001192,7,2,893.40000003576,0.5555555555555556,1,object_06,1,1393,0,5,2,restaurant_5,2,memory-2step-stake-s,601,1860509,0.0-19.0-0.0-0.106,A37PUSY6CJ7TQ0,30UZJB2PPKSSO21QHKUJ0S8JS3B35M,3OXV7EAXLI6RTPZYC59QHII6IAN633,8,7
107,1,object_04,object_10,578.60000002384,1,1,396.19999998808,0.8888888888888888,1,object_06,5,1433,0,8,2,desert_8,2,memory-2step-stake-s,602,1869083,0.0-19.0-0.0-0.107,A37PUSY6CJ7TQ0,30UZJB2PPKSSO21QHKUJ0S8JS3B35M,3OXV7EAXLI6RTPZYC59QHII6IAN633,1,2
108,4,object_07,object_01,485.69999998808,7,1,407.19999998808,0.8888888888888888,1,object_06,1,1441,0,8,7,restaurant_2,2,memory-2step-stake-s,603,1877685,0.0-19.0-0.0-0.108,A37PUSY6CJ7TQ0,30UZJB2PPKSSO21QHKUJ0S8JS3B35M,3OXV7EAXLI6RTPZYC59QHII6IAN633,7,8
109,1,object_04,object_10,482.0,2,2,431.10000002384,0.7777777777777778,2,object_03,5,1476,0,9,7,desert_6,2,memory-2step-stake-s,604,1886187,0.0-19.0-0.0-0.109,A37PUSY6CJ7TQ0,30UZJB2PPKSSO21QHKUJ0S8JS3B35M,3OXV7EAXLI6RTPZYC59QHII6IAN633,1,2
110,1,object_10,object_04,530.5,2,1,354.19999998808,0.5555555555555556,2,object_03,1,1481,0,7,5,desert_6,2,memory-2step-stake-s,605,1894391,0.0-19.0-0.0-0.110,A37PUSY6CJ7TQ0,30UZJB2PPKSSO21QHKUJ0S8JS3B35M,3OXV7EAXLI6RTPZYC59QHII6IAN633,2,1
111,2,object_08,object_05,424.0,3,2,519.5,0.7777777777777778,1,object_06,5,1516,0,7,4,forest_4,2,memory-2step-stake-s,606,1902993,0.0-19.0-0.0-0.111,A37PUSY6CJ7TQ0,30UZJB2PPKSSO21QHKUJ0S8JS3B35M,3OXV7EAXLI6RTPZYC59QHII6IAN633,4,3
112,1,object_04,object_10,345.5,1,1,380.60000002384,0.3333333333333333,1,object_06,5,1531,0,3,0,desert_4,2,memory-2step-stake-s,607,1910994,0.0-19.0-0.0-0.112,A37PUSY6CJ7TQ0,30UZJB2PPKSSO21QHKUJ0S8JS3B35M,3OXV7EAXLI6RTPZYC59QHII6IAN633,1,2
113,2,object_08,object_05,581.69999998808,3,2,387.09999996424,0.1111111111111111,1,object_06,5,1536,0,1,0,forest_8,2,memory-2step-stake-s,608,1918777,0.0-19.0-0.0-0.113,A37PUSY6CJ7TQ0,30UZJB2PPKSSO21QHKUJ0S8JS3B35M,3OXV7EAXLI6RTPZYC59QHII6IAN633,4,3
114,2,object_05,object_08,1027.3000000119,3,1,290.40000003576,0.1111111111111111,1,object_06,5,1541,0,1,1,forest_4,2,memory-2step-stake-s,609,1926488,0.0-19.0-0.0-0.114,A37PUSY6CJ7TQ0,30UZJB2PPKSSO21QHKUJ0S8JS3B35M,3OXV7EAXLI6RTPZYC59QHII6IAN633,3,4
115,2,object_05,object_08,826.60000002384,4,2,411.19999998808,0.4444444444444444,2,object_03,5,1561,0,1,4,forest_8,2,memory-2step-stake-s,610,1934646,0.0-19.0-0.0-0.115,A37PUSY6CJ7TQ0,30UZJB2PPKSSO21QHKUJ0S8JS3B35M,3OXV7EAXLI6RTPZYC59QHII6IAN633,3,4
116,4,object_07,object_01,939.90000003576,8,2,517.09999996424,0.6666666666666666,2,object_03,1,1567,0,2,6,restaurant_5,2,memory-2step-stake-s,611,1943129,0.0-19.0-0.0-0.116,A37PUSY6CJ7TQ0,30UZJB2PPKSSO21QHKUJ0S8JS3B35M,3OXV7EAXLI6RTPZYC59QHII6IAN633,7,8
117,4,object_01,object_07,916.90000003576,8,1,500.59999996424,0.6666666666666666,2,object_03,1,1573,0,1,6,restaurant_8,2,memory-2step-stake-s,612,1951581,0.0-19.0-0.0-0.117,A37PUSY6CJ7TQ0,30UZJB2PPKSSO21QHKUJ0S8JS3B35M,3OXV7EAXLI6RTPZYC59QHII6IAN633,8,7
118,1,object_10,object_04,1112.9000000358,1,2,484.39999997616,0.1111111111111111,1,object_06,5,1578,0,1,8,desert_8,2,memory-2step-stake-s,613,1959454,0.0-19.0-0.0-0.118,A37PUSY6CJ7TQ0,30UZJB2PPKSSO21QHKUJ0S8JS3B35M,3OXV7EAXLI6RTPZYC59QHII6IAN633,2,1
119,2,object_05,object_08,1070.8999999762,4,2,318.90000003576,0.8888888888888888,2,object_03,5,1618,0,1,8,forest_4,2,memory-2step-stake-s,614,1967931,0.0-19.0-0.0-0.119,A37PUSY6CJ7TQ0,30UZJB2PPKSSO21QHKUJ0S8JS3B35M,3OXV7EAXLI6RTPZYC59QHII6IAN633,3,4
120,1,object_04,object_10,1096.7999999523,1,1,422.5,0.0,1,object_06,5,1618,0,0,5,desert_4,2,memory-2step-stake-s,615,1975649,0.0-19.0-0.0-0.120,A37PUSY6CJ7TQ0,30UZJB2PPKSSO21QHKUJ0S8JS3B35M,3OXV7EAXLI6RTPZYC59QHII6IAN633,1,2
121,3,object_09,object_02,1017.7999999523,5,2,413.10000002384,0.3333333333333333,1,object_06,1,1621,0,3,4,library_3,2,memory-2step-stake-s,616,1983669,0.0-19.0-0.0-0.121,A37PUSY6CJ7TQ0,30UZJB2PPKSSO21QHKUJ0S8JS3B35M,3OXV7EAXLI6RTPZYC59QHII6IAN633,6,5
122,2,object_05,object_08,882.80000001192,4,2,356.80000001192,0.4444444444444444,2,object_03,5,1641,0,4,4,forest_1,2,memory-2step-stake-s,617,1991719,0.0-19.0-0.0-0.122,A37PUSY6CJ7TQ0,30UZJB2PPKSSO21QHKUJ0S8JS3B35M,3OXV7EAXLI6RTPZYC59QHII6IAN633,3,4
123,2,object_05,object_08,712.19999998808,4,2,260.80000001192,0.6666666666666666,2,object_03,5,1671,0,5,6,forest_2,2,memory-2step-stake-s,618,1999936,0.0-19.0-0.0-0.123,A37PUSY6CJ7TQ0,30UZJB2PPKSSO21QHKUJ0S8JS3B35M,3OXV7EAXLI6RTPZYC59QHII6IAN633,3,4
124,3,object_09,object_02,726.19999998808,6,1,353.19999998808,0.7777777777777778,2,object_03,1,1678,0,6,7,library_3,2,memory-2step-stake-s,619,2008345,0.0-19.0-0.0-0.124,A37PUSY6CJ7TQ0,30UZJB2PPKSSO21QHKUJ0S8JS3B35M,3OXV7EAXLI6RTPZYC59QHII6IAN633,6,5
125,3,object_09,object_02,663.19999998808,6,1,389.30000001192,1.0,2,object_03,1,1687,0,7,9,library_3,2,memory-2step-stake-s,620,2017041,0.0-19.0-0.0-0.125,A37PUSY6CJ7TQ0,30UZJB2PPKSSO21QHKUJ0S8JS3B35M,3OXV7EAXLI6RTPZYC59QHII6IAN633,6,5
126,2,object_08,object_05,1100.6999999881,3,2,274.0,0.7777777777777778,1,object_06,1,1694,0,7,9,forest_1,2,memory-2step-stake-s,621,2025376,0.0-19.0-0.0-0.126,A37PUSY6CJ7TQ0,30UZJB2PPKSSO21QHKUJ0S8JS3B35M,3OXV7EAXLI6RTPZYC59QHII6IAN633,4,3
127,3,object_09,object_02,504.30000001192,6,1,371.0,0.5555555555555556,2,object_03,1,1699,0,7,5,library_6,2,memory-2step-stake-s,622,2033595,0.0-19.0-0.0-0.127,A37PUSY6CJ7TQ0,30UZJB2PPKSSO21QHKUJ0S8JS3B35M,3OXV7EAXLI6RTPZYC59QHII6IAN633,6,5
128,1,object_04,object_10,660.69999998808,2,2,396.39999997616,0.8888888888888888,2,object_03,5,1739,0,8,8,desert_6,2,memory-2step-stake-s,624,2050462,0.0-19.0-0.1-0.128,A37PUSY6CJ7TQ0,30UZJB2PPKSSO21QHKUJ0S8JS3B35M,3OXV7EAXLI6RTPZYC59QHII6IAN633,1,2
129,2,object_05,object_08,603.69999998808,4,2,285.39999997616,0.7777777777777778,2,object_03,5,1774,0,7,7,forest_4,2,memory-2step-stake-s,625,2058834,0.0-19.0-0.1-0.129,A37PUSY6CJ7TQ0,30UZJB2PPKSSO21QHKUJ0S8JS3B35M,3OXV7EAXLI6RTPZYC59QHII6IAN633,3,4
130,4,object_01,object_07,1036.1999999881,8,1,294.69999998808,1.0,2,object_03,1,1783,0,6,9,restaurant_7,2,memory-2step-stake-s,626,2067453,0.0-19.0-0.1-0.130,A37PUSY6CJ7TQ0,30UZJB2PPKSSO21QHKUJ0S8JS3B35M,3OXV7EAXLI6RTPZYC59QHII6IAN633,8,7
131,2,object_05,object_08,532.69999998808,4,2,310.5,0.8888888888888888,2,object_03,1,1791,0,4,8,forest_2,2,memory-2step-stake-s,627,2075921,0.0-19.0-0.1-0.131,A37PUSY6CJ7TQ0,30UZJB2PPKSSO21QHKUJ0S8JS3B35M,3OXV7EAXLI6RTPZYC59QHII6IAN633,3,4
132,2,object_05,object_08,463.80000001192,4,2,775.5,0.7777777777777778,2,object_03,5,1826,0,5,7,forest_1,2,memory-2step-stake-s,628,2084792,0.0-19.0-0.1-0.132,A37PUSY6CJ7TQ0,30UZJB2PPKSSO21QHKUJ0S8JS3B35M,3OXV7EAXLI6RTPZYC59QHII6IAN633,3,4
133,4,object_07,object_01,588.39999997616,7,1,576.69999998808,0.2222222222222222,1,object_06,1,1828,0,2,4,restaurant_7,2,memory-2step-stake-s,629,2092893,0.0-19.0-0.1-0.133,A37PUSY6CJ7TQ0,30UZJB2PPKSSO21QHKUJ0S8JS3B35M,3OXV7EAXLI6RTPZYC59QHII6IAN633,7,8
134,3,object_02,object_09,611.40000003576,6,2,281.59999996424,0.2222222222222222,2,object_03,1,1830,0,1,2,library_3,2,memory-2step-stake-s,630,2100694,0.0-19.0-0.1-0.134,A37PUSY6CJ7TQ0,30UZJB2PPKSSO21QHKUJ0S8JS3B35M,3OXV7EAXLI6RTPZYC59QHII6IAN633,5,6
135,2,object_05,object_08,744.69999998808,3,1,289.10000002384,0.0,1,object_06,5,1830,0,0,1,forest_8,2,memory-2step-stake-s,631,2108286,0.0-19.0-0.1-0.135,A37PUSY6CJ7TQ0,30UZJB2PPKSSO21QHKUJ0S8JS3B35M,3OXV7EAXLI6RTPZYC59QHII6IAN633,3,4
136,4,object_07,object_01,1062.9000000358,7,1,288.0,0.1111111111111111,1,object_06,1,1831,0,1,2,restaurant_8,2,memory-2step-stake-s,632,2115957,0.0-19.0-0.1-0.136,A37PUSY6CJ7TQ0,30UZJB2PPKSSO21QHKUJ0S8JS3B35M,3OXV7EAXLI6RTPZYC59QHII6IAN633,7,8
137,1,object_10,object_04,1111.4000000358,2,1,250.40000003576,0.4444444444444444,2,object_03,5,1851,0,0,4,desert_7,2,memory-2step-stake-s,633,2123926,0.0-19.0-0.1-0.137,A37PUSY6CJ7TQ0,30UZJB2PPKSSO21QHKUJ0S8JS3B35M,3OXV7EAXLI6RTPZYC59QHII6IAN633,2,1
138,2,object_08,object_05,824.0,4,1,236.30000001192,0.6666666666666666,2,object_03,1,1857,0,0,6,forest_8,2,memory-2step-stake-s,634,2132108,0.0-19.0-0.1-0.138,A37PUSY6CJ7TQ0,30UZJB2PPKSSO21QHKUJ0S8JS3B35M,3OXV7EAXLI6RTPZYC59QHII6IAN633,4,3
139,1,object_04,object_10,769.0,1,1,407.80000001192,0.4444444444444444,1,object_06,1,1861,0,4,6,desert_7,2,memory-2step-stake-s,635,2140226,0.0-19.0-0.1-0.139,A37PUSY6CJ7TQ0,30UZJB2PPKSSO21QHKUJ0S8JS3B35M,3OXV7EAXLI6RTPZYC59QHII6IAN633,1,2
140,3,object_02,object_09,654.39999997616,6,2,328.80000001192,0.6666666666666666,2,object_03,5,1891,0,1,6,library_1,2,memory-2step-stake-s,636,2148479,0.0-19.0-0.1-0.140,A37PUSY6CJ7TQ0,30UZJB2PPKSSO21QHKUJ0S8JS3B35M,3OXV7EAXLI6RTPZYC59QHII6IAN633,5,6
141,2,object_08,object_05,745.69999998808,4,1,314.69999998808,0.4444444444444444,2,object_03,5,1911,0,2,4,forest_1,2,memory-2step-stake-s,637,2156524,0.0-19.0-0.1-0.141,A37PUSY6CJ7TQ0,30UZJB2PPKSSO21QHKUJ0S8JS3B35M,3OXV7EAXLI6RTPZYC59QHII6IAN633,4,3
142,1,object_10,object_04,589.69999998808,1,2,336.90000003576,0.1111111111111111,1,object_06,1,1912,0,1,4,desert_7,2,memory-2step-stake-s,638,2164244,0.0-19.0-0.1-0.142,A37PUSY6CJ7TQ0,30UZJB2PPKSSO21QHKUJ0S8JS3B35M,3OXV7EAXLI6RTPZYC59QHII6IAN633,2,1
143,4,object_07,object_01,819.19999998808,7,1,318.69999998808,0.0,1,object_06,5,1912,0,0,4,restaurant_8,2,memory-2step-stake-s,639,2171831,0.0-19.0-0.1-0.143,A37PUSY6CJ7TQ0,30UZJB2PPKSSO21QHKUJ0S8JS3B35M,3OXV7EAXLI6RTPZYC59QHII6IAN633,7,8
144,1,object_10,object_04,779.39999997616,2,1,327.79999995232,0.3333333333333333,2,object_03,5,1927,0,1,3,desert_8,2,memory-2step-stake-s,640,2179780,0.0-19.0-0.1-0.144,A37PUSY6CJ7TQ0,30UZJB2PPKSSO21QHKUJ0S8JS3B35M,3OXV7EAXLI6RTPZYC59QHII6IAN633,2,1
145,2,object_08,object_05,699.20000004768,4,1,298.69999998808,0.6666666666666666,2,object_03,5,1957,0,1,6,forest_2,2,memory-2step-stake-s,641,2188031,0.0-19.0-0.1-0.145,A37PUSY6CJ7TQ0,30UZJB2PPKSSO21QHKUJ0S8JS3B35M,3OXV7EAXLI6RTPZYC59QHII6IAN633,4,3
146,2,object_05,object_08,682.5,4,2,330.09999996424,0.5555555555555556,2,object_03,1,1962,0,4,5,forest_4,2,memory-2step-stake-s,642,2196185,0.0-19.0-0.1-0.146,A37PUSY6CJ7TQ0,30UZJB2PPKSSO21QHKUJ0S8JS3B35M,3OXV7EAXLI6RTPZYC59QHII6IAN633,3,4
147,3,object_09,object_02,574.39999997616,6,1,433.10000002384,0.6666666666666666,2,object_03,5,1992,0,6,6,library_8,2,memory-2step-stake-s,643,2204575,0.0-19.0-0.1-0.147,A37PUSY6CJ7TQ0,30UZJB2PPKSSO21QHKUJ0S8JS3B35M,3OXV7EAXLI6RTPZYC59QHII6IAN633,6,5
148,1,object_04,object_10,1158.6999999881,1,1,253.10000002384,0.7777777777777778,1,object_06,5,2027,0,7,6,desert_8,2,memory-2step-stake-s,644,2212858,0.0-19.0-0.1-0.148,A37PUSY6CJ7TQ0,30UZJB2PPKSSO21QHKUJ0S8JS3B35M,3OXV7EAXLI6RTPZYC59QHII6IAN633,1,2
149,2,object_05,object_08,686.80000001192,3,1,984.09999996424,0.8888888888888888,1,object_06,5,2067,0,8,6,forest_4,2,memory-2step-stake-s,645,2221993,0.0-19.0-0.1-0.149,A37PUSY6CJ7TQ0,30UZJB2PPKSSO21QHKUJ0S8JS3B35M,3OXV7EAXLI6RTPZYC59QHII6IAN633,3,4
150,4,object_01,object_07,361.30000001192,8,1,371.80000001192,0.4444444444444444,2,object_03,1,2071,0,8,4,restaurant_2,2,memory-2step-stake-s,646,2230095,0.0-19.0-0.1-0.150,A37PUSY6CJ7TQ0,30UZJB2PPKSSO21QHKUJ0S8JS3B35M,3OXV7EAXLI6RTPZYC59QHII6IAN633,8,7
151,2,object_08,object_05,661.90000003576,4,1,410.19999998808,0.4444444444444444,2,object_03,5,2091,0,7,4,forest_4,2,memory-2step-stake-s,647,2238212,0.0-19.0-0.1-0.151,A37PUSY6CJ7TQ0,30UZJB2PPKSSO21QHKUJ0S8JS3B35M,3OXV7EAXLI6RTPZYC59QHII6IAN633,4,3
152,4,object_01,object_07,718.0,7,2,433.5,0.5555555555555556,1,object_06,5,2116,0,5,2,restaurant_7,2,memory-2step-stake-s,648,2246465,0.0-19.0-0.1-0.152,A37PUSY6CJ7TQ0,30UZJB2PPKSSO21QHKUJ0S8JS3B35M,3OXV7EAXLI6RTPZYC59QHII6IAN633,8,7
153,2,object_05,object_08,326.0,3,1,397.40000003576,0.6666666666666666,1,object_06,1,2122,0,6,6,forest_1,2,memory-2step-stake-s,649,2254765,0.0-19.0-0.1-0.153,A37PUSY6CJ7TQ0,30UZJB2PPKSSO21QHKUJ0S8JS3B35M,3OXV7EAXLI6RTPZYC59QHII6IAN633,3,4
154,3,object_02,object_09,444.0,5,1,384.60000002384,0.4444444444444444,1,object_06,1,2126,0,4,5,library_1,2,memory-2step-stake-s,650,2262867,0.0-19.0-0.1-0.154,A37PUSY6CJ7TQ0,30UZJB2PPKSSO21QHKUJ0S8JS3B35M,3OXV7EAXLI6RTPZYC59QHII6IAN633,5,6
155,3,object_02,object_09,406.09999996424,5,1,347.69999998808,0.4444444444444444,1,object_06,5,2146,0,4,7,library_6,2,memory-2step-stake-s,651,2270917,0.0-19.0-0.1-0.155,A37PUSY6CJ7TQ0,30UZJB2PPKSSO21QHKUJ0S8JS3B35M,3OXV7EAXLI6RTPZYC59QHII6IAN633,5,6
156,1,object_04,object_10,565.69999998808,2,2,411.60000002384,0.7777777777777778,2,object_03,5,2181,0,3,7,desert_7,2,memory-2step-stake-s,652,2279384,0.0-19.0-0.1-0.156,A37PUSY6CJ7TQ0,30UZJB2PPKSSO21QHKUJ0S8JS3B35M,3OXV7EAXLI6RTPZYC59QHII6IAN633,1,2
157,2,object_05,object_08,436.69999998808,4,2,421.09999996424,1.0,2,object_03,5,2226,0,2,9,forest_8,2,memory-2step-stake-s,653,2288067,0.0-19.0-0.1-0.157,A37PUSY6CJ7TQ0,30UZJB2PPKSSO21QHKUJ0S8JS3B35M,3OXV7EAXLI6RTPZYC59QHII6IAN633,3,4
158,3,object_09,object_02,488.19999998808,6,1,400.69999998808,0.8888888888888888,2,object_03,5,2266,0,8,8,library_6,2,memory-2step-stake-s,654,2296641,0.0-19.0-0.1-0.158,A37PUSY6CJ7TQ0,30UZJB2PPKSSO21QHKUJ0S8JS3B35M,3OXV7EAXLI6RTPZYC59QHII6IAN633,6,5
159,4,object_01,object_07,606.70000004768,8,1,-1.0,0.0,2,object_03,1,2266,0,9,8,restaurant_5,2,memory-2step-stake-s,655,2305225,0.0-19.0-0.1-0.159,A37PUSY6CJ7TQ0,30UZJB2PPKSSO21QHKUJ0S8JS3B35M,3OXV7EAXLI6RTPZYC59QHII6IAN633,8,7
160,4,object_07,object_01,330.90000003576,7,1,276.0,1.0,1,object_06,1,2275,0,9,7,restaurant_5,2,memory-2step-stake-s,656,2313775,0.0-19.0-0.1-0.160,A37PUSY6CJ7TQ0,30UZJB2PPKSSO21QHKUJ0S8JS3B35M,3OXV7EAXLI6RTPZYC59QHII6IAN633,7,8
161,1,object_04,object_10,567.19999998808,2,2,561.60000002384,0.7777777777777778,2,object_03,5,2310,0,8,7,desert_4,2,memory-2step-stake-s,657,2322366,0.0-19.0-0.1-0.161,A37PUSY6CJ7TQ0,30UZJB2PPKSSO21QHKUJ0S8JS3B35M,3OXV7EAXLI6RTPZYC59QHII6IAN633,1,2
162,4,object_07,object_01,286.70000004768,7,1,352.0,1.0,1,object_06,1,2319,0,9,7,restaurant_7,2,memory-2step-stake-s,658,2330958,0.0-19.0-0.1-0.162,A37PUSY6CJ7TQ0,30UZJB2PPKSSO21QHKUJ0S8JS3B35M,3OXV7EAXLI6RTPZYC59QHII6IAN633,7,8
163,4,object_07,object_01,335.5,7,1,437.09999996424,0.8888888888888888,1,object_06,1,2327,0,8,8,restaurant_7,2,memory-2step-stake-s,659,2339558,0.0-19.0-0.1-0.163,A37PUSY6CJ7TQ0,30UZJB2PPKSSO21QHKUJ0S8JS3B35M,3OXV7EAXLI6RTPZYC59QHII6IAN633,7,8
164,1,object_10,object_04,459.10000002384,2,1,1067.8999999762,0.8888888888888888,2,object_03,5,2367,0,8,8,desert_7,2,memory-2step-stake-s,660,2348789,0.0-19.0-0.1-0.164,A37PUSY6CJ7TQ0,30UZJB2PPKSSO21QHKUJ0S8JS3B35M,3OXV7EAXLI6RTPZYC59QHII6IAN633,2,1
165,2,object_08,object_05,679.89999997616,3,2,317.0,0.8888888888888888,1,object_06,5,2407,0,8,4,forest_2,2,memory-2step-stake-s,661,2357257,0.0-19.0-0.1-0.165,A37PUSY6CJ7TQ0,30UZJB2PPKSSO21QHKUJ0S8JS3B35M,3OXV7EAXLI6RTPZYC59QHII6IAN633,4,3
166,4,object_01,object_07,581.60000002384,7,2,384.5,0.6666666666666666,1,object_06,1,2413,0,6,3,restaurant_7,2,memory-2step-stake-s,662,2365594,0.0-19.0-0.1-0.166,A37PUSY6CJ7TQ0,30UZJB2PPKSSO21QHKUJ0S8JS3B35M,3OXV7EAXLI6RTPZYC59QHII6IAN633,8,7
167,4,object_01,object_07,493.30000001192,8,1,344.0,0.2222222222222222,2,object_03,1,2415,0,5,2,restaurant_8,2,memory-2step-stake-s,663,2373457,0.0-19.0-0.1-0.167,A37PUSY6CJ7TQ0,30UZJB2PPKSSO21QHKUJ0S8JS3B35M,3OXV7EAXLI6RTPZYC59QHII6IAN633,8,7
168,1,object_10,object_04,363.80000001192,1,2,472.19999998808,0.7777777777777778,1,object_06,1,2422,0,7,2,desert_6,2,memory-2step-stake-s,664,2381980,0.0-19.0-0.1-0.168,A37PUSY6CJ7TQ0,30UZJB2PPKSSO21QHKUJ0S8JS3B35M,3OXV7EAXLI6RTPZYC59QHII6IAN633,2,1
169,3,object_02,object_09,407.09999996424,6,2,390.59999996424,0.6666666666666666,2,object_03,5,2452,0,3,6,library_1,2,memory-2step-stake-s,665,2390313,0.0-19.0-0.1-0.169,A37PUSY6CJ7TQ0,30UZJB2PPKSSO21QHKUJ0S8JS3B35M,3OXV7EAXLI6RTPZYC59QHII6IAN633,5,6
170,3,object_09,object_02,306.80000001192,6,1,583.0,0.3333333333333333,2,object_03,1,2455,0,3,3,library_8,2,memory-2step-stake-s,666,2398500,0.0-19.0-0.1-0.170,A37PUSY6CJ7TQ0,30UZJB2PPKSSO21QHKUJ0S8JS3B35M,3OXV7EAXLI6RTPZYC59QHII6IAN633,6,5
171,2,object_08,object_05,378.5,3,2,566.30000001192,0.4444444444444444,1,object_06,5,2475,0,4,4,forest_2,2,memory-2step-stake-s,667,2406783,0.0-19.0-0.1-0.171,A37PUSY6CJ7TQ0,30UZJB2PPKSSO21QHKUJ0S8JS3B35M,3OXV7EAXLI6RTPZYC59QHII6IAN633,4,3
172,3,object_09,object_02,430.19999998808,6,1,407.89999997616,0.1111111111111111,2,object_03,1,2476,0,3,1,library_8,2,memory-2step-stake-s,668,2414599,0.0-19.0-0.1-0.172,A37PUSY6CJ7TQ0,30UZJB2PPKSSO21QHKUJ0S8JS3B35M,3OXV7EAXLI6RTPZYC59QHII6IAN633,6,5
173,4,object_01,object_07,575.5,7,2,342.0,0.6666666666666666,1,object_06,1,2482,0,6,2,restaurant_2,2,memory-2step-stake-s,669,2422865,0.0-19.0-0.1-0.173,A37PUSY6CJ7TQ0,30UZJB2PPKSSO21QHKUJ0S8JS3B35M,3OXV7EAXLI6RTPZYC59QHII6IAN633,8,7
174,1,object_04,object_10,469.10000002384,1,1,370.10000002384,0.6666666666666666,1,object_06,5,2512,0,6,5,desert_8,2,memory-2step-stake-s,670,2431168,0.0-19.0-0.1-0.174,A37PUSY6CJ7TQ0,30UZJB2PPKSSO21QHKUJ0S8JS3B35M,3OXV7EAXLI6RTPZYC59QHII6IAN633,1,2
175,2,object_08,object_05,370.10000002384,4,1,348.5,0.7777777777777778,2,object_03,5,2547,0,1,7,forest_2,2,memory-2step-stake-s,671,2439548,0.0-19.0-0.1-0.175,A37PUSY6CJ7TQ0,30UZJB2PPKSSO21QHKUJ0S8JS3B35M,3OXV7EAXLI6RTPZYC59QHII6IAN633,4,3
176,1,object_10,object_04,338.89999997616,2,1,436.30000001192,0.6666666666666666,2,object_03,1,2553,0,2,6,desert_4,2,memory-2step-stake-s,672,2447924,0.0-19.0-0.1-0.176,A37PUSY6CJ7TQ0,30UZJB2PPKSSO21QHKUJ0S8JS3B35M,3OXV7EAXLI6RTPZYC59QHII6IAN633,2,1
177,3,object_09,object_02,449.5,6,1,381.79999995232,0.3333333333333333,2,object_03,1,2556,0,2,3,library_6,2,memory-2step-stake-s,673,2455909,0.0-19.0-0.1-0.177,A37PUSY6CJ7TQ0,30UZJB2PPKSSO21QHKUJ0S8JS3B35M,3OXV7EAXLI6RTPZYC59QHII6IAN633,6,5
178,3,object_09,object_02,547.0,5,2,387.90000003576,0.7777777777777778,1,object_06,1,2563,0,7,2,library_3,2,memory-2step-stake-s,674,2464363,0.0-19.0-0.1-0.178,A37PUSY6CJ7TQ0,30UZJB2PPKSSO21QHKUJ0S8JS3B35M,3OXV7EAXLI6RTPZYC59QHII6IAN633,6,5
179,2,object_08,object_05,388.0,4,1,364.5,0.6666666666666666,2,object_03,1,2569,0,6,6,forest_2,2,memory-2step-stake-s,675,2472697,0.0-19.0-0.1-0.179,A37PUSY6CJ7TQ0,30UZJB2PPKSSO21QHKUJ0S8JS3B35M,3OXV7EAXLI6RTPZYC59QHII6IAN633,4,3
180,2,object_08,object_05,348.60000002384,4,1,477.0,0.3333333333333333,2,object_03,5,2584,0,8,3,forest_8,2,memory-2step-stake-s,676,2480813,0.0-19.0-0.1-0.180,A37PUSY6CJ7TQ0,30UZJB2PPKSSO21QHKUJ0S8JS3B35M,3OXV7EAXLI6RTPZYC59QHII6IAN633,4,3
181,4,object_07,object_01,409.30000001192,8,2,422.89999997616,0.5555555555555556,2,object_03,5,2609,0,7,5,restaurant_5,2,memory-2step-stake-s,677,2489080,0.0-19.0-0.1-0.181,A37PUSY6CJ7TQ0,30UZJB2PPKSSO21QHKUJ0S8JS3B35M,3OXV7EAXLI6RTPZYC59QHII6IAN633,7,8
182,1,object_04,object_10,638.20000004768,1,1,562.10000002384,0.8888888888888888,1,object_06,1,2617,0,8,3,desert_8,2,memory-2step-stake-s,678,2497814,0.0-19.0-0.1-0.182,A37PUSY6CJ7TQ0,30UZJB2PPKSSO21QHKUJ0S8JS3B35M,3OXV7EAXLI6RTPZYC59QHII6IAN633,1,2
183,2,object_08,object_05,576.80000001192,3,2,459.19999998808,0.6666666666666666,1,object_06,5,2647,0,6,3,forest_1,2,memory-2step-stake-s,679,2506184,0.0-19.0-0.1-0.183,A37PUSY6CJ7TQ0,30UZJB2PPKSSO21QHKUJ0S8JS3B35M,3OXV7EAXLI6RTPZYC59QHII6IAN633,4,3
184,4,object_01,object_07,354.70000004768,8,1,410.19999998808,0.2222222222222222,2,object_03,1,2649,0,8,2,restaurant_5,2,memory-2step-stake-s,680,2514111,0.0-19.0-0.1-0.184,A37PUSY6CJ7TQ0,30UZJB2PPKSSO21QHKUJ0S8JS3B35M,3OXV7EAXLI6RTPZYC59QHII6IAN633,8,7
185,3,object_09,object_02,412.19999998808,6,1,380.5,0.2222222222222222,2,object_03,1,2651,0,4,2,library_3,2,memory-2step-stake-s,681,2521984,0.0-19.0-0.1-0.185,A37PUSY6CJ7TQ0,30UZJB2PPKSSO21QHKUJ0S8JS3B35M,3OXV7EAXLI6RTPZYC59QHII6IAN633,6,5
186,1,object_04,object_10,1063.1000000238,1,1,387.30000001192,0.1111111111111111,1,object_06,5,2656,0,1,3,desert_6,2,memory-2step-stake-s,682,2529751,0.0-19.0-0.1-0.186,A37PUSY6CJ7TQ0,30UZJB2PPKSSO21QHKUJ0S8JS3B35M,3OXV7EAXLI6RTPZYC59QHII6IAN633,1,2
187,1,object_04,object_10,732.40000003576,2,2,348.39999997616,0.4444444444444444,2,object_03,5,2676,0,2,4,desert_4,2,memory-2step-stake-s,683,2537836,0.0-19.0-0.1-0.187,A37PUSY6CJ7TQ0,30UZJB2PPKSSO21QHKUJ0S8JS3B35M,3OXV7EAXLI6RTPZYC59QHII6IAN633,1,2
188,3,object_02,object_09,941.09999996424,6,2,257.0,0.7777777777777778,2,object_03,5,2711,0,3,7,library_1,2,memory-2step-stake-s,684,2546138,0.0-19.0-0.1-0.188,A37PUSY6CJ7TQ0,30UZJB2PPKSSO21QHKUJ0S8JS3B35M,3OXV7EAXLI6RTPZYC59QHII6IAN633,5,6
189,2,object_08,object_05,590.09999996424,4,1,442.10000002384,0.8888888888888888,2,object_03,5,2751,0,0,8,forest_1,2,memory-2step-stake-s,685,2554776,0.0-19.0-0.1-0.189,A37PUSY6CJ7TQ0,30UZJB2PPKSSO21QHKUJ0S8JS3B35M,3OXV7EAXLI6RTPZYC59QHII6IAN633,4,3
190,1,object_10,object_04,699.60000002384,2,1,249.59999996424,0.6666666666666666,2,object_03,5,2781,0,2,6,desert_8,2,memory-2step-stake-s,686,2562960,0.0-19.0-0.1-0.190,A37PUSY6CJ7TQ0,30UZJB2PPKSSO21QHKUJ0S8JS3B35M,3OXV7EAXLI6RTPZYC59QHII6IAN633,2,1
191,1,object_04,object_10,821.10000002384,2,2,416.40000003576,1.0,2,object_03,5,2826,0,4,9,desert_4,2,memory-2step-stake-s,687,2571677,0.0-19.0-0.1-0.191,A37PUSY6CJ7TQ0,30UZJB2PPKSSO21QHKUJ0S8JS3B35M,3OXV7EAXLI6RTPZYC59QHII6IAN633,1,2
192,2,object_08,object_05,645.30000001192,4,1,766.60000002384,1.0,2,object_03,5,2871,0,2,9,forest_8,2,memory-2step-stake-s,688,2580717,0.0-19.0-0.1-0.192,A37PUSY6CJ7TQ0,30UZJB2PPKSSO21QHKUJ0S8JS3B35M,3OXV7EAXLI6RTPZYC59QHII6IAN633,4,3
193,3,object_09,object_02,632.89999997616,6,1,394.60000002384,0.8888888888888888,2,object_03,1,2879,0,3,8,library_8,2,memory-2step-stake-s,689,2589245,0.0-19.0-0.1-0.193,A37PUSY6CJ7TQ0,30UZJB2PPKSSO21QHKUJ0S8JS3B35M,3OXV7EAXLI6RTPZYC59QHII6IAN633,6,5
194,3,object_02,object_09,498.80000001192,6,2,369.09999996424,0.8888888888888888,2,object_03,1,2887,0,2,8,library_6,2,memory-2step-stake-s,690,2597746,0.0-19.0-0.1-0.194,A37PUSY6CJ7TQ0,30UZJB2PPKSSO21QHKUJ0S8JS3B35M,3OXV7EAXLI6RTPZYC59QHII6IAN633,5,6
195,3,object_02,object_09,607.40000003576,6,2,532.5,0.8888888888888888,2,object_03,5,2927,0,1,8,library_6,2,memory-2step-stake-s,691,2606471,0.0-19.0-0.1-0.195,A37PUSY6CJ7TQ0,30UZJB2PPKSSO21QHKUJ0S8JS3B35M,3OXV7EAXLI6RTPZYC59QHII6IAN633,5,6
196,4,object_07,object_01,403.09999996424,7,1,442.5,0.0,1,object_06,5,2927,0,0,9,restaurant_8,2,memory-2step-stake-s,692,2614219,0.0-19.0-0.1-0.196,A37PUSY6CJ7TQ0,30UZJB2PPKSSO21QHKUJ0S8JS3B35M,3OXV7EAXLI6RTPZYC59QHII6IAN633,7,8
197,2,object_05,object_08,632.39999997616,4,2,368.69999998808,0.5555555555555556,2,object_03,5,2952,0,3,5,forest_1,2,memory-2step-stake-s,693,2622443,0.0-19.0-0.1-0.197,A37PUSY6CJ7TQ0,30UZJB2PPKSSO21QHKUJ0S8JS3B35M,3OXV7EAXLI6RTPZYC59QHII6IAN633,3,4
198,4,object_07,object_01,1136.3000000119,8,2,386.29999995232,0.4444444444444444,2,object_03,1,2956,0,3,4,restaurant_5,2,memory-2step-stake-s,694,2630539,0.0-19.0-0.1-0.198,A37PUSY6CJ7TQ0,30UZJB2PPKSSO21QHKUJ0S8JS3B35M,3OXV7EAXLI6RTPZYC59QHII6IAN633,7,8
199,2,object_05,object_08,760.30000001192,3,1,346.09999996424,0.7777777777777778,1,object_06,1,2963,0,7,2,forest_4,2,memory-2step-stake-s,695,2638924,0.0-19.0-0.1-0.199,A37PUSY6CJ7TQ0,30UZJB2PPKSSO21QHKUJ0S8JS3B35M,3OXV7EAXLI6RTPZYC59QHII6IAN633,3,4
200,3,object_09,object_02,1206.8999999762,5,2,261.29999995232,0.8888888888888888,1,object_06,1,2971,0,8,2,library_3,2,memory-2step-stake-s,696,2647339,0.0-19.0-0.1-0.200,A37PUSY6CJ7TQ0,30UZJB2PPKSSO21QHKUJ0S8JS3B35M,3OXV7EAXLI6RTPZYC59QHII6IAN633,6,5
201,4,object_07,object_01,718.59999996424,7,1,435.19999998808,0.8888888888888888,1,object_06,1,2979,0,8,3,restaurant_8,2,memory-2step-stake-s,697,2655950,0.0-19.0-0.1-0.201,A37PUSY6CJ7TQ0,30UZJB2PPKSSO21QHKUJ0S8JS3B35M,3OXV7EAXLI6RTPZYC59QHII6IAN633,7,8
202,3,object_02,object_09,542.70000004768,5,1,385.69999998808,0.6666666666666666,1,object_06,1,2985,0,6,3,library_8,2,memory-2step-stake-s,698,2664285,0.0-19.0-0.1-0.202,A37PUSY6CJ7TQ0,30UZJB2PPKSSO21QHKUJ0S8JS3B35M,3OXV7EAXLI6RTPZYC59QHII6IAN633,5,6
203,2,object_08,object_05,436.69999998808,4,1,385.69999998808,0.1111111111111111,2,object_03,1,2986,0,7,1,forest_4,2,memory-2step-stake-s,699,2672065,0.0-19.0-0.1-0.203,A37PUSY6CJ7TQ0,30UZJB2PPKSSO21QHKUJ0S8JS3B35M,3OXV7EAXLI6RTPZYC59QHII6IAN633,4,3
204,3,object_09,object_02,892.90000003576,5,2,320.80000001192,1.0,1,object_06,5,3031,0,9,1,library_8,2,memory-2step-stake-s,700,2680649,0.0-19.0-0.1-0.204,A37PUSY6CJ7TQ0,30UZJB2PPKSSO21QHKUJ0S8JS3B35M,3OXV7EAXLI6RTPZYC59QHII6IAN633,6,5
205,2,object_08,object_05,952.20000004768,3,2,311.10000002384,0.6666666666666666,1,object_06,5,3061,0,6,2,forest_8,2,memory-2step-stake-s,701,2688934,0.0-19.0-0.1-0.205,A37PUSY6CJ7TQ0,30UZJB2PPKSSO21QHKUJ0S8JS3B35M,3OXV7EAXLI6RTPZYC59QHII6IAN633,4,3
206,3,object_09,object_02,416.40000003576,5,2,504.5,0.4444444444444444,1,object_06,5,3081,0,4,3,library_3,2,memory-2step-stake-s,702,2697146,0.0-19.0-0.1-0.206,A37PUSY6CJ7TQ0,30UZJB2PPKSSO21QHKUJ0S8JS3B35M,3OXV7EAXLI6RTPZYC59QHII6IAN633,6,5
207,1,object_10,object_04,742.30000001192,1,2,399.40000003576,0.8888888888888888,1,object_06,5,3121,0,8,3,desert_7,2,memory-2step-stake-s,703,2705692,0.0-19.0-0.1-0.207,A37PUSY6CJ7TQ0,30UZJB2PPKSSO21QHKUJ0S8JS3B35M,3OXV7EAXLI6RTPZYC59QHII6IAN633,2,1
208,4,object_01,object_07,938.29999995232,7,2,414.30000001192,0.8888888888888888,1,object_06,5,3161,0,8,1,restaurant_2,2,memory-2step-stake-s,704,2714244,0.0-19.0-0.1-0.208,A37PUSY6CJ7TQ0,30UZJB2PPKSSO21QHKUJ0S8JS3B35M,3OXV7EAXLI6RTPZYC59QHII6IAN633,8,7
209,3,object_02,object_09,804.70000004768,5,1,407.10000002384,0.8888888888888888,1,object_06,1,3169,0,8,1,library_1,2,memory-2step-stake-s,705,2722825,0.0-19.0-0.1-0.209,A37PUSY6CJ7TQ0,30UZJB2PPKSSO21QHKUJ0S8JS3B35M,3OXV7EAXLI6RTPZYC59QHII6IAN633,5,6
210,2,object_05,object_08,842.0,4,2,727.0,0.1111111111111111,2,object_03,5,3174,0,8,1,forest_4,2,memory-2step-stake-s,706,2730945,0.0-19.0-0.1-0.210,A37PUSY6CJ7TQ0,30UZJB2PPKSSO21QHKUJ0S8JS3B35M,3OXV7EAXLI6RTPZYC59QHII6IAN633,3,4
211,4,object_01,object_07,1152.4000000358,8,1,301.69999998808,0.1111111111111111,2,object_03,1,3175,0,7,1,restaurant_8,2,memory-2step-stake-s,707,2738646,0.0-19.0-0.1-0.211,A37PUSY6CJ7TQ0,30UZJB2PPKSSO21QHKUJ0S8JS3B35M,3OXV7EAXLI6RTPZYC59QHII6IAN633,8,7
212,1,object_10,object_04,1011.5999999642,2,1,640.5,0.4444444444444444,2,object_03,5,3195,0,7,4,desert_8,2,memory-2step-stake-s,708,2746996,0.0-19.0-0.1-0.212,A37PUSY6CJ7TQ0,30UZJB2PPKSSO21QHKUJ0S8JS3B35M,3OXV7EAXLI6RTPZYC59QHII6IAN633,2,1
213,3,object_09,object_02,763.89999997616,6,1,283.30000001192,0.2222222222222222,2,object_03,1,3197,0,3,2,library_8,2,memory-2step-stake-s,709,2754778,0.0-19.0-0.1-0.213,A37PUSY6CJ7TQ0,30UZJB2PPKSSO21QHKUJ0S8JS3B35M,3OXV7EAXLI6RTPZYC59QHII6IAN633,6,5
214,1,object_04,object_10,425.40000003576,2,2,646.80000001192,0.4444444444444444,2,object_03,5,3217,0,0,4,desert_6,2,memory-2step-stake-s,710,2763190,0.0-19.0-0.1-0.214,A37PUSY6CJ7TQ0,30UZJB2PPKSSO21QHKUJ0S8JS3B35M,3OXV7EAXLI6RTPZYC59QHII6IAN633,1,2
215,4,object_01,object_07,-1.0,-1,-1,-1.0,0.0,-,0,5,3217,0,5,1,restaurant_7,2,memory-2step-stake-s,711,2769761,0.0-19.0-0.1-0.215,A37PUSY6CJ7TQ0,30UZJB2PPKSSO21QHKUJ0S8JS3B35M,3OXV7EAXLI6RTPZYC59QHII6IAN633,8,7
216,4,object_01,object_07,584.5,8,1,381.89999997616,0.3333333333333333,2,object_03,1,3220,0,3,3,restaurant_2,2,memory-2step-stake-s,712,2777763,0.0-19.0-0.1-0.216,A37PUSY6CJ7TQ0,30UZJB2PPKSSO21QHKUJ0S8JS3B35M,3OXV7EAXLI6RTPZYC59QHII6IAN633,8,7
217,2,object_08,object_05,786.5,3,2,398.0,0.4444444444444444,1,object_06,1,3224,0,4,4,forest_8,2,memory-2step-stake-s,713,2785883,0.0-19.0-0.1-0.217,A37PUSY6CJ7TQ0,30UZJB2PPKSSO21QHKUJ0S8JS3B35M,3OXV7EAXLI6RTPZYC59QHII6IAN633,4,3
218,1,object_10,object_04,1248.3999999762,1,2,452.59999996424,0.6666666666666666,1,object_06,1,3230,0,6,3,desert_6,2,memory-2step-stake-s,714,2794284,0.0-19.0-0.1-0.218,A37PUSY6CJ7TQ0,30UZJB2PPKSSO21QHKUJ0S8JS3B35M,3OXV7EAXLI6RTPZYC59QHII6IAN633,2,1
219,1,object_10,object_04,888.30000001192,1,2,575.30000001192,0.8888888888888888,1,object_06,5,3270,0,8,1,desert_7,2,memory-2step-stake-s,715,2803016,0.0-19.0-0.1-0.219,A37PUSY6CJ7TQ0,30UZJB2PPKSSO21QHKUJ0S8JS3B35M,3OXV7EAXLI6RTPZYC59QHII6IAN633,2,1
220,2,object_05,object_08,734.40000003576,3,1,627.29999995232,0.6666666666666666,1,object_06,5,3300,0,6,2,forest_1,2,memory-2step-stake-s,716,2811579,0.0-19.0-0.1-0.220,A37PUSY6CJ7TQ0,30UZJB2PPKSSO21QHKUJ0S8JS3B35M,3OXV7EAXLI6RTPZYC59QHII6IAN633,3,4
221,1,object_04,object_10,717.69999998808,1,1,429.19999998808,0.8888888888888888,1,object_06,5,3340,0,8,2,desert_4,2,memory-2step-stake-s,717,2820175,0.0-19.0-0.1-0.221,A37PUSY6CJ7TQ0,30UZJB2PPKSSO21QHKUJ0S8JS3B35M,3OXV7EAXLI6RTPZYC59QHII6IAN633,1,2
222,2,object_08,object_05,871.0,3,2,373.80000001192,0.6666666666666666,1,object_06,5,3370,0,6,1,forest_8,2,memory-2step-stake-s,718,2828478,0.0-19.0-0.1-0.222,A37PUSY6CJ7TQ0,30UZJB2PPKSSO21QHKUJ0S8JS3B35M,3OXV7EAXLI6RTPZYC59QHII6IAN633,4,3
223,3,object_09,object_02,671.80000001192,6,1,-1.0,0.0,2,object_03,1,3370,0,5,2,library_1,2,memory-2step-stake-s,719,2837059,0.0-19.0-0.1-0.223,A37PUSY6CJ7TQ0,30UZJB2PPKSSO21QHKUJ0S8JS3B35M,3OXV7EAXLI6RTPZYC59QHII6IAN633,6,5
224,3,object_09,object_02,807.39999997616,5,2,612.69999998808,0.6666666666666666,1,object_06,5,3400,0,6,1,library_3,2,memory-2step-stake-s,720,2845602,0.0-19.0-0.1-0.224,A37PUSY6CJ7TQ0,30UZJB2PPKSSO21QHKUJ0S8JS3B35M,3OXV7EAXLI6RTPZYC59QHII6IAN633,6,5
225,2,object_05,object_08,601.80000001192,3,1,379.39999997616,0.6666666666666666,1,object_06,5,3430,0,6,1,forest_1,2,memory-2step-stake-s,721,2853933,0.0-19.0-0.1-0.225,A37PUSY6CJ7TQ0,30UZJB2PPKSSO21QHKUJ0S8JS3B35M,3OXV7EAXLI6RTPZYC59QHII6IAN633,3,4
226,4,object_07,object_01,618.80000001192,7,1,423.69999998808,0.4444444444444444,1,object_06,1,3434,0,4,1,restaurant_2,2,memory-2step-stake-s,722,2862082,0.0-19.0-0.1-0.226,A37PUSY6CJ7TQ0,30UZJB2PPKSSO21QHKUJ0S8JS3B35M,3OXV7EAXLI6RTPZYC59QHII6IAN633,7,8
227,4,object_01,object_07,989.59999996424,7,2,465.5,0.4444444444444444,1,object_06,1,3438,0,4,1,restaurant_7,2,memory-2step-stake-s,723,2870285,0.0-19.0-0.1-0.227,A37PUSY6CJ7TQ0,30UZJB2PPKSSO21QHKUJ0S8JS3B35M,3OXV7EAXLI6RTPZYC59QHII6IAN633,8,7
228,4,object_07,object_01,635.60000002384,7,1,439.0,0.5555555555555556,1,object_06,1,3443,0,5,1,restaurant_5,2,memory-2step-stake-s,724,2878585,0.0-19.0-0.1-0.228,A37PUSY6CJ7TQ0,30UZJB2PPKSSO21QHKUJ0S8JS3B35M,3OXV7EAXLI6RTPZYC59QHII6IAN633,7,8
229,4,object_01,object_07,654.40000003576,8,1,522.19999998808,0.3333333333333333,2,object_03,1,3446,0,8,3,restaurant_8,2,memory-2step-stake-s,725,2886721,0.0-19.0-0.1-0.229,A37PUSY6CJ7TQ0,30UZJB2PPKSSO21QHKUJ0S8JS3B35M,3OXV7EAXLI6RTPZYC59QHII6IAN633,8,7
230,4,object_01,object_07,606.10000002384,7,2,252.39999997616,1.0,1,object_06,1,3455,0,9,2,restaurant_5,2,memory-2step-stake-s,726,2895224,0.0-19.0-0.1-0.230,A37PUSY6CJ7TQ0,30UZJB2PPKSSO21QHKUJ0S8JS3B35M,3OXV7EAXLI6RTPZYC59QHII6IAN633,8,7
231,1,object_10,object_04,853.30000001192,1,2,338.09999996424,1.0,1,object_06,5,3500,0,9,3,desert_4,2,memory-2step-stake-s,727,2903855,0.0-19.0-0.1-0.231,A37PUSY6CJ7TQ0,30UZJB2PPKSSO21QHKUJ0S8JS3B35M,3OXV7EAXLI6RTPZYC59QHII6IAN633,2,1
232,4,object_07,object_01,-1.0,-1,-1,-1.0,0.0,-,0,1,3500,0,4,2,restaurant_5,2,memory-2step-stake-s,728,2910407,0.0-19.0-0.1-0.232,A37PUSY6CJ7TQ0,30UZJB2PPKSSO21QHKUJ0S8JS3B35M,3OXV7EAXLI6RTPZYC59QHII6IAN633,7,8
233,3,object_02,object_09,768.39999997616,6,2,234.20000004768,0.2222222222222222,2,object_03,1,3502,0,3,2,library_6,2,memory-2step-stake-s,729,2918141,0.0-19.0-0.1-0.233,A37PUSY6CJ7TQ0,30UZJB2PPKSSO21QHKUJ0S8JS3B35M,3OXV7EAXLI6RTPZYC59QHII6IAN633,5,6
234,2,object_08,object_05,789.5,3,2,309.0,0.2222222222222222,1,object_06,5,3512,0,2,3,forest_1,2,memory-2step-stake-s,730,2925941,0.0-19.0-0.1-0.234,A37PUSY6CJ7TQ0,30UZJB2PPKSSO21QHKUJ0S8JS3B35M,3OXV7EAXLI6RTPZYC59QHII6IAN633,4,3
235,4,object_01,object_07,519.39999997616,8,1,358.89999997616,0.3333333333333333,2,object_03,1,3515,0,0,3,restaurant_8,2,memory-2step-stake-s,731,2933892,0.0-19.0-0.1-0.235,A37PUSY6CJ7TQ0,30UZJB2PPKSSO21QHKUJ0S8JS3B35M,3OXV7EAXLI6RTPZYC59QHII6IAN633,8,7
236,1,object_04,object_10,673.30000001192,1,1,414.19999998808,0.2222222222222222,1,object_06,1,3517,0,2,2,desert_6,2,memory-2step-stake-s,732,2941825,0.0-19.0-0.1-0.236,A37PUSY6CJ7TQ0,30UZJB2PPKSSO21QHKUJ0S8JS3B35M,3OXV7EAXLI6RTPZYC59QHII6IAN633,1,2
237,1,object_10,object_04,530.0,1,2,385.39999997616,0.6666666666666666,1,object_06,5,3547,0,6,3,desert_6,2,memory-2step-stake-s,733,2950144,0.0-19.0-0.1-0.237,A37PUSY6CJ7TQ0,30UZJB2PPKSSO21QHKUJ0S8JS3B35M,3OXV7EAXLI6RTPZYC59QHII6IAN633,2,1
238,3,object_02,object_09,694.30000001192,5,1,564.40000003576,1.0,1,object_06,1,3556,0,9,4,library_6,2,memory-2step-stake-s,734,2958977,0.0-19.0-0.1-0.238,A37PUSY6CJ7TQ0,30UZJB2PPKSSO21QHKUJ0S8JS3B35M,3OXV7EAXLI6RTPZYC59QHII6IAN633,5,6
239,4,object_07,object_01,460.69999998808,7,1,481.29999995232,0.8888888888888888,1,object_06,1,3564,0,8,3,restaurant_7,2,memory-2step-stake-s,735,2967605,0.0-19.0-0.1-0.239,A37PUSY6CJ7TQ0,30UZJB2PPKSSO21QHKUJ0S8JS3B35M,3OXV7EAXLI6RTPZYC59QHII6IAN633,7,8
240,2,object_08,object_05,588.19999998808,4,1,477.30000001192,0.1111111111111111,2,object_03,5,3569,0,9,1,forest_4,2,memory-2step-stake-s,736,2975495,0.0-19.0-0.1-0.240,A37PUSY6CJ7TQ0,30UZJB2PPKSSO21QHKUJ0S8JS3B35M,3OXV7EAXLI6RTPZYC59QHII6IAN633,4,3
241,4,object_01,object_07,486.19999998808,7,2,354.59999996424,0.8888888888888888,1,object_06,1,3577,0,8,3,restaurant_2,2,memory-2step-stake-s,737,2984018,0.0-19.0-0.1-0.241,A37PUSY6CJ7TQ0,30UZJB2PPKSSO21QHKUJ0S8JS3B35M,3OXV7EAXLI6RTPZYC59QHII6IAN633,8,7
242,2,object_08,object_05,619.60000002384,4,1,453.0,0.4444444444444444,2,object_03,5,3597,0,9,4,forest_2,2,memory-2step-stake-s,738,2992191,0.0-19.0-0.1-0.242,A37PUSY6CJ7TQ0,30UZJB2PPKSSO21QHKUJ0S8JS3B35M,3OXV7EAXLI6RTPZYC59QHII6IAN633,4,3
243,2,object_08,object_05,475.59999996424,3,2,380.5,0.8888888888888888,1,object_06,1,3605,0,8,6,forest_2,2,memory-2step-stake-s,739,3000755,0.0-19.0-0.1-0.243,A37PUSY6CJ7TQ0,30UZJB2PPKSSO21QHKUJ0S8JS3B35M,3OXV7EAXLI6RTPZYC59QHII6IAN633,4,3
244,3,object_09,object_02,403.30000001192,6,1,389.20000004768,0.4444444444444444,2,object_03,5,3625,0,6,4,library_8,2,memory-2step-stake-s,740,3008857,0.0-19.0-0.1-0.244,A37PUSY6CJ7TQ0,30UZJB2PPKSSO21QHKUJ0S8JS3B35M,3OXV7EAXLI6RTPZYC59QHII6IAN633,6,5
245,2,object_05,object_08,475.0,3,1,347.10000002384,0.7777777777777778,1,object_06,5,3660,0,7,4,forest_4,2,memory-2step-stake-s,741,3017308,0.0-19.0-0.1-0.245,A37PUSY6CJ7TQ0,30UZJB2PPKSSO21QHKUJ0S8JS3B35M,3OXV7EAXLI6RTPZYC59QHII6IAN633,3,4
246,1,object_10,object_04,561.39999997616,2,1,510.80000001192,0.6666666666666666,2,object_03,5,3690,0,9,6,desert_4,2,memory-2step-stake-s,742,3025744,0.0-19.0-0.1-0.246,A37PUSY6CJ7TQ0,30UZJB2PPKSSO21QHKUJ0S8JS3B35M,3OXV7EAXLI6RTPZYC59QHII6IAN633,2,1
247,2,object_08,object_05,557.10000002384,4,1,1011.4000000358,0.8888888888888888,2,object_03,5,3730,0,5,8,forest_2,2,memory-2step-stake-s,743,3034931,0.0-19.0-0.1-0.247,A37PUSY6CJ7TQ0,30UZJB2PPKSSO21QHKUJ0S8JS3B35M,3OXV7EAXLI6RTPZYC59QHII6IAN633,4,3
248,1,object_04,object_10,799.5,1,1,579.5,0.6666666666666666,1,object_06,5,3760,0,6,6,desert_4,2,memory-2step-stake-s,744,3043465,0.0-19.0-0.1-0.248,A37PUSY6CJ7TQ0,30UZJB2PPKSSO21QHKUJ0S8JS3B35M,3OXV7EAXLI6RTPZYC59QHII6IAN633,1,2
249,3,object_09,object_02,673.59999996424,5,2,884.60000002384,0.5555555555555556,1,object_06,5,3785,0,5,9,library_8,2,memory-2step-stake-s,745,3052200,0.0-19.0-0.1-0.249,A37PUSY6CJ7TQ0,30UZJB2PPKSSO21QHKUJ0S8JS3B35M,3OXV7EAXLI6RTPZYC59QHII6IAN633,6,5
250,3,object_09,object_02,452.59999996424,6,1,418.20000004768,1.0,2,object_03,1,3794,0,7,9,library_1,2,memory-2step-stake-s,746,3060889,0.0-19.0-0.1-0.250,A37PUSY6CJ7TQ0,30UZJB2PPKSSO21QHKUJ0S8JS3B35M,3OXV7EAXLI6RTPZYC59QHII6IAN633,6,5
251,2,object_05,object_08,484.80000001192,4,2,464.0,0.6666666666666666,2,object_03,5,3824,0,7,6,forest_4,2,memory-2step-stake-s,747,3069321,0.0-19.0-0.1-0.251,A37PUSY6CJ7TQ0,30UZJB2PPKSSO21QHKUJ0S8JS3B35M,3OXV7EAXLI6RTPZYC59QHII6IAN633,3,4
252,1,object_04,object_10,363.30000001192,1,1,63.399999976158,0.4444444444444444,1,object_06,5,3844,0,4,4,desert_7,2,memory-2step-stake-s,748,3077123,0.0-19.0-0.1-0.252,A37PUSY6CJ7TQ0,30UZJB2PPKSSO21QHKUJ0S8JS3B35M,3OXV7EAXLI6RTPZYC59QHII6IAN633,1,2
253,3,object_02,object_09,486.5,6,2,568.19999998808,0.3333333333333333,2,object_03,1,3847,0,8,3,library_8,2,memory-2step-stake-s,749,3085291,0.0-19.0-0.1-0.253,A37PUSY6CJ7TQ0,30UZJB2PPKSSO21QHKUJ0S8JS3B35M,3OXV7EAXLI6RTPZYC59QHII6IAN633,5,6
254,1,object_10,object_04,180.5,2,1,649.5,0.2222222222222222,2,object_03,5,3857,0,7,2,desert_4,2,memory-2step-stake-s,750,3093428,0.0-19.0-0.1-0.254,A37PUSY6CJ7TQ0,30UZJB2PPKSSO21QHKUJ0S8JS3B35M,3OXV7EAXLI6RTPZYC59QHII6IAN633,2,1
255,1,object_04,object_10,392.5,2,2,332.70000004768,0.2222222222222222,2,object_03,5,3867,0,7,2,desert_6,2,memory-2step-stake-s,751,3101291,0.0-19.0-0.1-0.255,A37PUSY6CJ7TQ0,30UZJB2PPKSSO21QHKUJ0S8JS3B35M,3OXV7EAXLI6RTPZYC59QHII6IAN633,1,2
