,state1,stim_left,stim_right,rt_1,choice1,response1,rt_2,points,state2,stim_state2,stake,score,practice,rews1,rews2,background,high_arm,trial_type,trial_index,time_elapsed,internal_node_id,subid,hitid,assignmentid,stim_left_num,stim_right_num
0,4,object_01,object_08,874.09999999404,7,1,592.80000001192,0.2222222222222222,1,object_05,5,10,0,2,6,restaurant_3,1,memory-2step-stake-s,490,1442523,0.0-19.0-0.0-0.0,AZ69TBTDH7AZS,3X4Q1O9UCK2WXV8VOBT8MFKQE0B7O9,3F0BG9B9MT3BDSARK078DQEFMOZY71,7,8
1,4,object_01,object_08,1297.400000006,8,2,871.39999997616,0.7777777777777778,2,object_06,5,45,0,1,7,restaurant_4,1,memory-2step-stake-s,491,1451368,0.0-19.0-0.0-0.1,AZ69TBTDH7AZS,3X4Q1O9UCK2WXV8VOBT8MFKQE0B7O9,3F0BG9B9MT3BDSARK078DQEFMOZY71,7,8
2,2,object_09,object_02,902.30000001192,3,1,719.30000001192,0.1111111111111111,1,object_05,1,46,0,1,4,forest_1,1,memory-2step-stake-s,492,1459437,0.0-19.0-0.0-0.2,AZ69TBTDH7AZS,3X4Q1O9UCK2WXV8VOBT8MFKQE0B7O9,3F0BG9B9MT3BDSARK078DQEFMOZY71,3,4
3,1,object_04,object_03,795.69999998808,2,2,574.90000000596,0.4444444444444444,2,object_06,1,50,0,3,4,desert_1,1,memory-2step-stake-s,493,1467673,0.0-19.0-0.0-0.3,AZ69TBTDH7AZS,3X4Q1O9UCK2WXV8VOBT8MFKQE0B7O9,3F0BG9B9MT3BDSARK078DQEFMOZY71,1,2
4,3,object_10,object_07,765.0,6,1,670.90000000596,0.6666666666666666,2,object_06,1,56,0,4,6,library_1,1,memory-2step-stake-s,494,1476208,0.0-19.0-0.0-0.4,AZ69TBTDH7AZS,3X4Q1O9UCK2WXV8VOBT8MFKQE0B7O9,3F0BG9B9MT3BDSARK078DQEFMOZY71,6,5
5,4,object_08,object_01,1095.3000000119,7,2,585.29999998212,0.6666666666666666,1,object_05,1,62,0,6,8,restaurant_4,1,memory-2step-stake-s,495,1484663,0.0-19.0-0.0-0.5,AZ69TBTDH7AZS,3X4Q1O9UCK2WXV8VOBT8MFKQE0B7O9,3F0BG9B9MT3BDSARK078DQEFMOZY71,8,7
6,4,object_01,object_08,706.59999999404,7,1,422.5,0.7777777777777778,1,object_05,5,97,0,7,8,restaurant_8,1,memory-2step-stake-s,496,1493066,0.0-19.0-0.0-0.6,AZ69TBTDH7AZS,3X4Q1O9UCK2WXV8VOBT8MFKQE0B7O9,3F0BG9B9MT3BDSARK078DQEFMOZY71,7,8
7,3,object_07,object_10,1163.0,6,2,509.40000000596,0.5555555555555556,2,object_06,5,122,0,7,5,library_3,1,memory-2step-stake-s,497,1501338,0.0-19.0-0.0-0.7,AZ69TBTDH7AZS,3X4Q1O9UCK2WXV8VOBT8MFKQE0B7O9,3F0BG9B9MT3BDSARK078DQEFMOZY71,5,6
8,3,object_10,object_07,673.60000002384,6,1,422.5,0.4444444444444444,2,object_06,5,142,0,7,4,library_1,1,memory-2step-stake-s,498,1509418,0.0-19.0-0.0-0.8,AZ69TBTDH7AZS,3X4Q1O9UCK2WXV8VOBT8MFKQE0B7O9,3F0BG9B9MT3BDSARK078DQEFMOZY71,6,5
9,1,object_04,object_03,735.70000001788,2,2,427.20000001788,0.4444444444444444,2,object_06,1,146,0,8,4,desert_2,1,memory-2step-stake-s,499,1517501,0.0-19.0-0.0-0.9,AZ69TBTDH7AZS,3X4Q1O9UCK2WXV8VOBT8MFKQE0B7O9,3F0BG9B9MT3BDSARK078DQEFMOZY71,1,2
10,2,object_02,object_09,686.09999999404,4,1,430.20000001788,0.2222222222222222,2,object_06,1,148,0,9,2,forest_8,1,memory-2step-stake-s,500,1525379,0.0-19.0-0.0-0.10,AZ69TBTDH7AZS,3X4Q1O9UCK2WXV8VOBT8MFKQE0B7O9,3F0BG9B9MT3BDSARK078DQEFMOZY71,4,3
11,2,object_02,object_09,638.59999999404,3,2,354.90000000596,0.5555555555555556,1,object_05,1,153,0,5,2,forest_2,1,memory-2step-stake-s,501,1533497,0.0-19.0-0.0-0.11,AZ69TBTDH7AZS,3X4Q1O9UCK2WXV8VOBT8MFKQE0B7O9,3F0BG9B9MT3BDSARK078DQEFMOZY71,4,3
12,4,object_01,object_08,585.09999999404,7,1,440.0,0.6666666666666666,1,object_05,5,183,0,6,6,restaurant_8,1,memory-2step-stake-s,502,1541804,0.0-19.0-0.0-0.12,AZ69TBTDH7AZS,3X4Q1O9UCK2WXV8VOBT8MFKQE0B7O9,3F0BG9B9MT3BDSARK078DQEFMOZY71,7,8
13,3,object_10,object_07,719.09999999404,5,2,437.5,1.0,1,object_05,5,228,0,9,4,library_4,1,memory-2step-stake-s,503,1550423,0.0-19.0-0.0-0.13,AZ69TBTDH7AZS,3X4Q1O9UCK2WXV8VOBT8MFKQE0B7O9,3F0BG9B9MT3BDSARK078DQEFMOZY71,6,5
14,4,object_01,object_08,611.90000000596,7,1,354.09999999404,0.8888888888888888,1,object_05,5,268,0,8,5,restaurant_3,1,memory-2step-stake-s,504,1558855,0.0-19.0-0.0-0.14,AZ69TBTDH7AZS,3X4Q1O9UCK2WXV8VOBT8MFKQE0B7O9,3F0BG9B9MT3BDSARK078DQEFMOZY71,7,8
15,4,object_01,object_08,824.20000001788,7,1,412.59999999404,0.7777777777777778,1,object_05,5,303,0,7,5,restaurant_3,1,memory-2step-stake-s,505,1567243,0.0-19.0-0.0-0.15,AZ69TBTDH7AZS,3X4Q1O9UCK2WXV8VOBT8MFKQE0B7O9,3F0BG9B9MT3BDSARK078DQEFMOZY71,7,8
16,3,object_07,object_10,-1.0,-1,-1,-1.0,0.0,-,0,1,303,0,4,5,library_4,1,memory-2step-stake-s,506,1573773,0.0-19.0-0.0-0.16,AZ69TBTDH7AZS,3X4Q1O9UCK2WXV8VOBT8MFKQE0B7O9,3F0BG9B9MT3BDSARK078DQEFMOZY71,5,6
17,3,object_07,object_10,527.19999998808,5,1,450.30000001192,0.3333333333333333,1,object_05,5,318,0,3,9,library_4,1,memory-2step-stake-s,507,1581781,0.0-19.0-0.0-0.17,AZ69TBTDH7AZS,3X4Q1O9UCK2WXV8VOBT8MFKQE0B7O9,3F0BG9B9MT3BDSARK078DQEFMOZY71,5,6
18,1,object_03,object_04,653.40000000596,1,2,377.0,0.4444444444444444,1,object_05,1,322,0,4,8,desert_1,1,memory-2step-stake-s,508,1589825,0.0-19.0-0.0-0.18,AZ69TBTDH7AZS,3X4Q1O9UCK2WXV8VOBT8MFKQE0B7O9,3F0BG9B9MT3BDSARK078DQEFMOZY71,2,1
19,3,object_10,object_07,774.19999998808,6,1,483.80000001192,0.8888888888888888,2,object_06,1,330,0,2,8,library_4,1,memory-2step-stake-s,509,1598383,0.0-19.0-0.0-0.19,AZ69TBTDH7AZS,3X4Q1O9UCK2WXV8VOBT8MFKQE0B7O9,3F0BG9B9MT3BDSARK078DQEFMOZY71,6,5
20,2,object_02,object_09,517.20000001788,3,2,592.30000001192,0.2222222222222222,1,object_05,1,332,0,2,7,forest_1,1,memory-2step-stake-s,510,1606426,0.0-19.0-0.0-0.20,AZ69TBTDH7AZS,3X4Q1O9UCK2WXV8VOBT8MFKQE0B7O9,3F0BG9B9MT3BDSARK078DQEFMOZY71,4,3
21,4,object_08,object_01,684.70000001788,8,1,485.90000000596,0.8888888888888888,2,object_06,5,372,0,3,8,restaurant_8,1,memory-2step-stake-s,511,1614994,0.0-19.0-0.0-0.21,AZ69TBTDH7AZS,3X4Q1O9UCK2WXV8VOBT8MFKQE0B7O9,3F0BG9B9MT3BDSARK078DQEFMOZY71,8,7
22,2,object_02,object_09,840.0,3,2,364.40000000596,0.6666666666666666,1,object_05,5,402,0,6,7,forest_2,1,memory-2step-stake-s,512,1623225,0.0-19.0-0.0-0.22,AZ69TBTDH7AZS,3X4Q1O9UCK2WXV8VOBT8MFKQE0B7O9,3F0BG9B9MT3BDSARK078DQEFMOZY71,4,3
23,1,object_03,object_04,772.80000001192,2,1,528.0,0.8888888888888888,2,object_06,1,410,0,4,8,desert_4,1,memory-2step-stake-s,513,1631827,0.0-19.0-0.0-0.23,AZ69TBTDH7AZS,3X4Q1O9UCK2WXV8VOBT8MFKQE0B7O9,3F0BG9B9MT3BDSARK078DQEFMOZY71,2,1
24,3,object_07,object_10,738.19999998808,6,2,417.59999999404,0.8888888888888888,2,object_06,5,450,0,5,8,library_1,1,memory-2step-stake-s,514,1640329,0.0-19.0-0.0-0.24,AZ69TBTDH7AZS,3X4Q1O9UCK2WXV8VOBT8MFKQE0B7O9,3F0BG9B9MT3BDSARK078DQEFMOZY71,5,6
25,1,object_03,object_04,760.40000000596,2,1,487.79999998212,0.6666666666666666,2,object_06,1,456,0,4,6,desert_7,1,memory-2step-stake-s,515,1648688,0.0-19.0-0.0-0.25,AZ69TBTDH7AZS,3X4Q1O9UCK2WXV8VOBT8MFKQE0B7O9,3F0BG9B9MT3BDSARK078DQEFMOZY71,2,1
26,1,object_04,object_03,1446.599999994,1,1,879.0,0.1111111111111111,1,object_05,5,461,0,1,6,desert_2,1,memory-2step-stake-s,516,1656916,0.0-19.0-0.0-0.26,AZ69TBTDH7AZS,3X4Q1O9UCK2WXV8VOBT8MFKQE0B7O9,3F0BG9B9MT3BDSARK078DQEFMOZY71,1,2
27,4,object_08,object_01,688.20000001788,7,2,92.09999999404,0.1111111111111111,1,object_05,5,466,0,1,7,restaurant_5,1,memory-2step-stake-s,517,1664358,0.0-19.0-0.0-0.27,AZ69TBTDH7AZS,3X4Q1O9UCK2WXV8VOBT8MFKQE0B7O9,3F0BG9B9MT3BDSARK078DQEFMOZY71,8,7
28,4,object_01,object_08,596.19999998808,7,1,368.40000000596,0.1111111111111111,1,object_05,5,471,0,1,8,restaurant_5,1,memory-2step-stake-s,518,1672079,0.0-19.0-0.0-0.28,AZ69TBTDH7AZS,3X4Q1O9UCK2WXV8VOBT8MFKQE0B7O9,3F0BG9B9MT3BDSARK078DQEFMOZY71,7,8
29,2,object_02,object_09,750.40000000596,3,2,439.19999998808,0.1111111111111111,1,object_05,1,472,0,1,8,forest_4,1,memory-2step-stake-s,519,1679871,0.0-19.0-0.0-0.29,AZ69TBTDH7AZS,3X4Q1O9UCK2WXV8VOBT8MFKQE0B7O9,3F0BG9B9MT3BDSARK078DQEFMOZY71,4,3
30,4,object_01,object_08,1461.7999999821,8,2,810.09999999404,0.8888888888888888,2,object_06,5,512,0,1,8,restaurant_4,1,memory-2step-stake-s,520,1688764,0.0-19.0-0.0-0.30,AZ69TBTDH7AZS,3X4Q1O9UCK2WXV8VOBT8MFKQE0B7O9,3F0BG9B9MT3BDSARK078DQEFMOZY71,7,8
31,2,object_02,object_09,715.19999998808,3,2,521.90000000596,0.1111111111111111,1,object_05,1,513,0,1,7,forest_8,1,memory-2step-stake-s,521,1696636,0.0-19.0-0.0-0.31,AZ69TBTDH7AZS,3X4Q1O9UCK2WXV8VOBT8MFKQE0B7O9,3F0BG9B9MT3BDSARK078DQEFMOZY71,4,3
32,1,object_03,object_04,827.59999999404,2,1,349.19999998808,1.0,2,object_06,1,522,0,0,9,desert_4,1,memory-2step-stake-s,522,1705172,0.0-19.0-0.0-0.32,AZ69TBTDH7AZS,3X4Q1O9UCK2WXV8VOBT8MFKQE0B7O9,3F0BG9B9MT3BDSARK078DQEFMOZY71,2,1
33,4,object_08,object_01,626.60000002384,7,2,533.79999998212,0.1111111111111111,1,object_05,5,527,0,1,7,restaurant_4,1,memory-2step-stake-s,523,1713055,0.0-19.0-0.0-0.33,AZ69TBTDH7AZS,3X4Q1O9UCK2WXV8VOBT8MFKQE0B7O9,3F0BG9B9MT3BDSARK078DQEFMOZY71,8,7
34,1,object_04,object_03,1289.099999994,1,1,1021.6999999881,0.5555555555555556,1,object_05,1,532,0,5,9,desert_2,1,memory-2step-stake-s,524,1721843,0.0-19.0-0.0-0.34,AZ69TBTDH7AZS,3X4Q1O9UCK2WXV8VOBT8MFKQE0B7O9,3F0BG9B9MT3BDSARK078DQEFMOZY71,1,2
35,2,object_02,object_09,681.69999998808,3,2,674.0,0.7777777777777778,1,object_05,1,539,0,7,7,forest_1,1,memory-2step-stake-s,525,1730501,0.0-19.0-0.0-0.35,AZ69TBTDH7AZS,3X4Q1O9UCK2WXV8VOBT8MFKQE0B7O9,3F0BG9B9MT3BDSARK078DQEFMOZY71,4,3
36,3,object_07,object_10,994.0,5,1,668.5,0.6666666666666666,1,object_05,5,569,0,6,3,library_1,1,memory-2step-stake-s,526,1739037,0.0-19.0-0.0-0.36,AZ69TBTDH7AZS,3X4Q1O9UCK2WXV8VOBT8MFKQE0B7O9,3F0BG9B9MT3BDSARK078DQEFMOZY71,5,6
37,3,object_07,object_10,-1.0,-1,-1,-1.0,0.0,-,0,5,569,0,8,4,library_3,1,memory-2step-stake-s,527,1745570,0.0-19.0-0.0-0.37,AZ69TBTDH7AZS,3X4Q1O9UCK2WXV8VOBT8MFKQE0B7O9,3F0BG9B9MT3BDSARK078DQEFMOZY71,5,6
38,2,object_09,object_02,656.5,3,1,451.29999998212,0.5555555555555556,1,object_05,1,574,0,5,4,forest_8,1,memory-2step-stake-s,528,1753829,0.0-19.0-0.0-0.38,AZ69TBTDH7AZS,3X4Q1O9UCK2WXV8VOBT8MFKQE0B7O9,3F0BG9B9MT3BDSARK078DQEFMOZY71,3,4
39,2,object_02,object_09,662.40000000596,3,2,456.69999998808,0.6666666666666666,1,object_05,1,580,0,6,0,forest_1,1,memory-2step-stake-s,529,1762164,0.0-19.0-0.0-0.39,AZ69TBTDH7AZS,3X4Q1O9UCK2WXV8VOBT8MFKQE0B7O9,3F0BG9B9MT3BDSARK078DQEFMOZY71,4,3
40,4,object_08,object_01,933.80000001192,7,2,478.90000000596,0.6666666666666666,1,object_05,5,610,0,6,0,restaurant_3,1,memory-2step-stake-s,530,1770523,0.0-19.0-0.0-0.40,AZ69TBTDH7AZS,3X4Q1O9UCK2WXV8VOBT8MFKQE0B7O9,3F0BG9B9MT3BDSARK078DQEFMOZY71,8,7
41,2,object_02,object_09,735.5,3,2,637.70000001788,0.8888888888888888,1,object_05,1,618,0,8,2,forest_8,1,memory-2step-stake-s,531,1779242,0.0-19.0-0.0-0.41,AZ69TBTDH7AZS,3X4Q1O9UCK2WXV8VOBT8MFKQE0B7O9,3F0BG9B9MT3BDSARK078DQEFMOZY71,4,3
42,2,object_09,object_02,682.29999998212,3,1,343.69999998808,0.7777777777777778,1,object_05,1,625,0,7,3,forest_2,1,memory-2step-stake-s,532,1787569,0.0-19.0-0.0-0.42,AZ69TBTDH7AZS,3X4Q1O9UCK2WXV8VOBT8MFKQE0B7O9,3F0BG9B9MT3BDSARK078DQEFMOZY71,3,4
43,4,object_01,object_08,-1.0,-1,-1,-1.0,0.0,-,0,5,625,0,6,0,restaurant_3,1,memory-2step-stake-s,533,1794109,0.0-19.0-0.0-0.43,AZ69TBTDH7AZS,3X4Q1O9UCK2WXV8VOBT8MFKQE0B7O9,3F0BG9B9MT3BDSARK078DQEFMOZY71,7,8
44,3,object_07,object_10,1441.099999994,6,2,619.69999998808,0.2222222222222222,2,object_06,5,635,0,6,2,library_8,1,memory-2step-stake-s,534,1802185,0.0-19.0-0.0-0.44,AZ69TBTDH7AZS,3X4Q1O9UCK2WXV8VOBT8MFKQE0B7O9,3F0BG9B9MT3BDSARK078DQEFMOZY71,5,6
45,3,object_10,object_07,937.39999997616,6,1,377.20000001788,0.2222222222222222,2,object_06,1,637,0,7,2,library_4,1,memory-2step-stake-s,535,1810019,0.0-19.0-0.0-0.45,AZ69TBTDH7AZS,3X4Q1O9UCK2WXV8VOBT8MFKQE0B7O9,3F0BG9B9MT3BDSARK078DQEFMOZY71,6,5
46,2,object_09,object_02,673.5,3,1,438.20000001788,0.6666666666666666,1,object_05,5,667,0,6,0,forest_1,1,memory-2step-stake-s,536,1818340,0.0-19.0-0.0-0.46,AZ69TBTDH7AZS,3X4Q1O9UCK2WXV8VOBT8MFKQE0B7O9,3F0BG9B9MT3BDSARK078DQEFMOZY71,3,4
47,2,object_02,object_09,615.40000000596,3,2,538.30000001192,0.4444444444444444,1,object_05,1,671,0,4,2,forest_4,1,memory-2step-stake-s,537,1826543,0.0-19.0-0.0-0.47,AZ69TBTDH7AZS,3X4Q1O9UCK2WXV8VOBT8MFKQE0B7O9,3F0BG9B9MT3BDSARK078DQEFMOZY71,4,3
48,2,object_02,object_09,604.69999998808,3,2,449.20000001788,0.2222222222222222,1,object_05,5,681,0,2,0,forest_2,1,memory-2step-stake-s,538,1834452,0.0-19.0-0.0-0.48,AZ69TBTDH7AZS,3X4Q1O9UCK2WXV8VOBT8MFKQE0B7O9,3F0BG9B9MT3BDSARK078DQEFMOZY71,4,3
49,2,object_02,object_09,661.29999998212,3,2,937.59999999404,0.5555555555555556,1,object_05,1,686,0,5,5,forest_8,1,memory-2step-stake-s,539,1843154,0.0-19.0-0.0-0.49,AZ69TBTDH7AZS,3X4Q1O9UCK2WXV8VOBT8MFKQE0B7O9,3F0BG9B9MT3BDSARK078DQEFMOZY71,4,3
50,1,object_03,object_04,864.09999999404,1,2,572.90000000596,0.6666666666666666,1,object_05,5,716,0,6,9,desert_4,1,memory-2step-stake-s,540,1851605,0.0-19.0-0.0-0.50,AZ69TBTDH7AZS,3X4Q1O9UCK2WXV8VOBT8MFKQE0B7O9,3F0BG9B9MT3BDSARK078DQEFMOZY71,2,1
51,3,object_10,object_07,825.90000000596,5,2,496.0,0.5555555555555556,1,object_05,5,741,0,5,6,library_1,1,memory-2step-stake-s,541,1859874,0.0-19.0-0.0-0.51,AZ69TBTDH7AZS,3X4Q1O9UCK2WXV8VOBT8MFKQE0B7O9,3F0BG9B9MT3BDSARK078DQEFMOZY71,6,5
52,4,object_01,object_08,-1.0,-1,-1,-1.0,0.0,-,0,5,741,0,5,4,restaurant_5,1,memory-2step-stake-s,542,1866416,0.0-19.0-0.0-0.52,AZ69TBTDH7AZS,3X4Q1O9UCK2WXV8VOBT8MFKQE0B7O9,3F0BG9B9MT3BDSARK078DQEFMOZY71,7,8
53,2,object_09,object_02,589.0,3,1,396.0,0.7777777777777778,1,object_05,1,748,0,7,1,forest_1,1,memory-2step-stake-s,543,1874798,0.0-19.0-0.0-0.53,AZ69TBTDH7AZS,3X4Q1O9UCK2WXV8VOBT8MFKQE0B7O9,3F0BG9B9MT3BDSARK078DQEFMOZY71,3,4
54,4,object_08,object_01,869.0,7,2,502.90000000596,0.6666666666666666,1,object_05,5,778,0,6,1,restaurant_8,1,memory-2step-stake-s,544,1883186,0.0-19.0-0.0-0.54,AZ69TBTDH7AZS,3X4Q1O9UCK2WXV8VOBT8MFKQE0B7O9,3F0BG9B9MT3BDSARK078DQEFMOZY71,8,7
55,4,object_01,object_08,691.69999998808,7,1,470.90000000596,0.8888888888888888,1,object_05,5,818,0,8,2,restaurant_5,1,memory-2step-stake-s,545,1891746,0.0-19.0-0.0-0.55,AZ69TBTDH7AZS,3X4Q1O9UCK2WXV8VOBT8MFKQE0B7O9,3F0BG9B9MT3BDSARK078DQEFMOZY71,7,8
56,4,object_01,object_08,726.0,7,1,428.0,1.0,1,object_05,5,863,0,9,4,restaurant_3,1,memory-2step-stake-s,546,1900383,0.0-19.0-0.0-0.56,AZ69TBTDH7AZS,3X4Q1O9UCK2WXV8VOBT8MFKQE0B7O9,3F0BG9B9MT3BDSARK078DQEFMOZY71,7,8
57,4,object_01,object_08,504.0,7,1,468.69999998808,0.7777777777777778,1,object_05,1,870,0,7,5,restaurant_3,1,memory-2step-stake-s,547,1908836,0.0-19.0-0.0-0.57,AZ69TBTDH7AZS,3X4Q1O9UCK2WXV8VOBT8MFKQE0B7O9,3F0BG9B9MT3BDSARK078DQEFMOZY71,7,8
58,1,object_03,object_04,-1.0,-1,-1,-1.0,0.0,-,0,1,870,0,6,5,desert_7,1,memory-2step-stake-s,548,1915383,0.0-19.0-0.0-0.58,AZ69TBTDH7AZS,3X4Q1O9UCK2WXV8VOBT8MFKQE0B7O9,3F0BG9B9MT3BDSARK078DQEFMOZY71,2,1
59,4,object_01,object_08,691.79999998212,7,1,505.89999997616,0.8888888888888888,1,object_05,5,910,0,8,3,restaurant_5,1,memory-2step-stake-s,549,1923980,0.0-19.0-0.0-0.59,AZ69TBTDH7AZS,3X4Q1O9UCK2WXV8VOBT8MFKQE0B7O9,3F0BG9B9MT3BDSARK078DQEFMOZY71,7,8
60,3,object_07,object_10,945.29999998212,6,2,627.5,0.1111111111111111,2,object_06,1,911,0,9,1,library_3,1,memory-2step-stake-s,550,1931973,0.0-19.0-0.0-0.60,AZ69TBTDH7AZS,3X4Q1O9UCK2WXV8VOBT8MFKQE0B7O9,3F0BG9B9MT3BDSARK078DQEFMOZY71,5,6
61,1,object_04,object_03,816.0,1,1,551.30000001192,0.4444444444444444,1,object_05,1,915,0,4,3,desert_7,1,memory-2step-stake-s,551,1940201,0.0-19.0-0.0-0.61,AZ69TBTDH7AZS,3X4Q1O9UCK2WXV8VOBT8MFKQE0B7O9,3F0BG9B9MT3BDSARK078DQEFMOZY71,1,2
62,1,object_03,object_04,1169.400000006,2,1,388.0,0.2222222222222222,2,object_06,1,917,0,7,2,desert_2,1,memory-2step-stake-s,552,1948046,0.0-19.0-0.0-0.62,AZ69TBTDH7AZS,3X4Q1O9UCK2WXV8VOBT8MFKQE0B7O9,3F0BG9B9MT3BDSARK078DQEFMOZY71,2,1
63,1,object_03,object_04,875.79999998212,1,2,509.0,0.7777777777777778,1,object_05,1,924,0,7,2,desert_2,1,memory-2step-stake-s,553,1956548,0.0-19.0-0.0-0.63,AZ69TBTDH7AZS,3X4Q1O9UCK2WXV8VOBT8MFKQE0B7O9,3F0BG9B9MT3BDSARK078DQEFMOZY71,2,1
64,3,object_07,object_10,610.20000001788,5,1,429.69999998808,1.0,1,object_05,5,969,0,9,4,library_4,1,memory-2step-stake-s,554,1965180,0.0-19.0-0.0-0.64,AZ69TBTDH7AZS,3X4Q1O9UCK2WXV8VOBT8MFKQE0B7O9,3F0BG9B9MT3BDSARK078DQEFMOZY71,5,6
65,4,object_01,object_08,600.59999999404,8,2,365.69999998808,0.4444444444444444,2,object_06,1,973,0,7,4,restaurant_5,1,memory-2step-stake-s,555,1973217,0.0-19.0-0.0-0.65,AZ69TBTDH7AZS,3X4Q1O9UCK2WXV8VOBT8MFKQE0B7O9,3F0BG9B9MT3BDSARK078DQEFMOZY71,7,8
66,4,object_01,object_08,710.09999999404,7,1,332.59999999404,0.5555555555555556,1,object_05,1,978,0,5,4,restaurant_8,1,memory-2step-stake-s,556,1981328,0.0-19.0-0.0-0.66,AZ69TBTDH7AZS,3X4Q1O9UCK2WXV8VOBT8MFKQE0B7O9,3F0BG9B9MT3BDSARK078DQEFMOZY71,7,8
67,2,object_02,object_09,738.70000001788,3,2,446.19999998808,0.7777777777777778,1,object_05,5,1013,0,7,5,forest_4,1,memory-2step-stake-s,557,1989760,0.0-19.0-0.0-0.67,AZ69TBTDH7AZS,3X4Q1O9UCK2WXV8VOBT8MFKQE0B7O9,3F0BG9B9MT3BDSARK078DQEFMOZY71,4,3
68,4,object_01,object_08,657.90000000596,7,1,360.80000001192,0.7777777777777778,1,object_05,1,1020,0,7,5,restaurant_5,1,memory-2step-stake-s,558,1998104,0.0-19.0-0.0-0.68,AZ69TBTDH7AZS,3X4Q1O9UCK2WXV8VOBT8MFKQE0B7O9,3F0BG9B9MT3BDSARK078DQEFMOZY71,7,8
69,4,object_01,object_08,684.09999999404,7,1,395.0,0.7777777777777778,1,object_05,5,1055,0,7,7,restaurant_5,1,memory-2step-stake-s,559,2006466,0.0-19.0-0.0-0.69,AZ69TBTDH7AZS,3X4Q1O9UCK2WXV8VOBT8MFKQE0B7O9,3F0BG9B9MT3BDSARK078DQEFMOZY71,7,8
70,1,object_04,object_03,642.59999999404,1,1,410.40000000596,0.5555555555555556,1,object_05,1,1060,0,5,8,desert_7,1,memory-2step-stake-s,560,2014642,0.0-19.0-0.0-0.70,AZ69TBTDH7AZS,3X4Q1O9UCK2WXV8VOBT8MFKQE0B7O9,3F0BG9B9MT3BDSARK078DQEFMOZY71,1,2
71,2,object_09,object_02,864.40000000596,3,1,392.09999999404,0.7777777777777778,1,object_05,5,1095,0,7,6,forest_8,1,memory-2step-stake-s,561,2022996,0.0-19.0-0.0-0.71,AZ69TBTDH7AZS,3X4Q1O9UCK2WXV8VOBT8MFKQE0B7O9,3F0BG9B9MT3BDSARK078DQEFMOZY71,3,4
72,2,object_09,object_02,604.70000001788,3,1,387.80000001192,0.5555555555555556,1,object_05,1,1100,0,5,5,forest_2,1,memory-2step-stake-s,562,2031143,0.0-19.0-0.0-0.72,AZ69TBTDH7AZS,3X4Q1O9UCK2WXV8VOBT8MFKQE0B7O9,3F0BG9B9MT3BDSARK078DQEFMOZY71,3,4
73,1,object_03,object_04,658.70000001788,1,2,480.60000002384,0.6666666666666666,1,object_05,1,1106,0,6,5,desert_2,1,memory-2step-stake-s,563,2039493,0.0-19.0-0.0-0.73,AZ69TBTDH7AZS,3X4Q1O9UCK2WXV8VOBT8MFKQE0B7O9,3F0BG9B9MT3BDSARK078DQEFMOZY71,2,1
74,2,object_02,object_09,617.80000001192,3,2,568.5,1.0,1,object_05,5,1151,0,9,8,forest_4,1,memory-2step-stake-s,564,2048247,0.0-19.0-0.0-0.74,AZ69TBTDH7AZS,3X4Q1O9UCK2WXV8VOBT8MFKQE0B7O9,3F0BG9B9MT3BDSARK078DQEFMOZY71,4,3
75,1,object_03,object_04,888.70000001788,1,2,296.80000001192,0.7777777777777778,1,object_05,1,1158,0,7,6,desert_7,1,memory-2step-stake-s,565,2056522,0.0-19.0-0.0-0.75,AZ69TBTDH7AZS,3X4Q1O9UCK2WXV8VOBT8MFKQE0B7O9,3F0BG9B9MT3BDSARK078DQEFMOZY71,2,1
76,4,object_01,object_08,573.39999997616,7,1,415.5,0.5555555555555556,1,object_05,5,1183,0,5,9,restaurant_8,1,memory-2step-stake-s,566,2064709,0.0-19.0-0.0-0.76,AZ69TBTDH7AZS,3X4Q1O9UCK2WXV8VOBT8MFKQE0B7O9,3F0BG9B9MT3BDSARK078DQEFMOZY71,7,8
77,4,object_01,object_08,841.69999998808,7,1,344.19999998808,0.6666666666666666,1,object_05,1,1189,0,6,8,restaurant_4,1,memory-2step-stake-s,567,2072926,0.0-19.0-0.0-0.77,AZ69TBTDH7AZS,3X4Q1O9UCK2WXV8VOBT8MFKQE0B7O9,3F0BG9B9MT3BDSARK078DQEFMOZY71,7,8
78,2,object_09,object_02,690.29999998212,3,1,448.5,0.5555555555555556,1,object_05,1,1194,0,5,9,forest_4,1,memory-2step-stake-s,568,2081141,0.0-19.0-0.0-0.78,AZ69TBTDH7AZS,3X4Q1O9UCK2WXV8VOBT8MFKQE0B7O9,3F0BG9B9MT3BDSARK078DQEFMOZY71,3,4
79,3,object_07,object_10,1082.900000006,6,2,519.40000000596,1.0,2,object_06,5,1239,0,4,9,library_1,1,memory-2step-stake-s,569,2089842,0.0-19.0-0.0-0.79,AZ69TBTDH7AZS,3X4Q1O9UCK2WXV8VOBT8MFKQE0B7O9,3F0BG9B9MT3BDSARK078DQEFMOZY71,5,6
80,3,object_07,object_10,710.59999999404,5,1,600.90000000596,0.7777777777777778,1,object_05,1,1246,0,7,8,library_8,1,memory-2step-stake-s,570,2098417,0.0-19.0-0.0-0.80,AZ69TBTDH7AZS,3X4Q1O9UCK2WXV8VOBT8MFKQE0B7O9,3F0BG9B9MT3BDSARK078DQEFMOZY71,5,6
81,1,object_04,object_03,589.59999999404,1,1,522.0,0.8888888888888888,1,object_05,1,1254,0,8,7,desert_4,1,memory-2step-stake-s,571,2107007,0.0-19.0-0.0-0.81,AZ69TBTDH7AZS,3X4Q1O9UCK2WXV8VOBT8MFKQE0B7O9,3F0BG9B9MT3BDSARK078DQEFMOZY71,1,2
82,3,object_10,object_07,807.69999998808,5,2,418.0,0.8888888888888888,1,object_05,1,1262,0,8,6,library_3,1,memory-2step-stake-s,572,2115512,0.0-19.0-0.0-0.82,AZ69TBTDH7AZS,3X4Q1O9UCK2WXV8VOBT8MFKQE0B7O9,3F0BG9B9MT3BDSARK078DQEFMOZY71,6,5
83,3,object_10,object_07,673.5,6,1,416.80000001192,0.7777777777777778,2,object_06,5,1297,0,7,7,library_3,1,memory-2step-stake-s,573,2123898,0.0-19.0-0.0-0.83,AZ69TBTDH7AZS,3X4Q1O9UCK2WXV8VOBT8MFKQE0B7O9,3F0BG9B9MT3BDSARK078DQEFMOZY71,6,5
84,1,object_03,object_04,738.09999999404,2,1,464.09999999404,0.7777777777777778,2,object_06,1,1304,0,8,7,desert_4,1,memory-2step-stake-s,574,2132334,0.0-19.0-0.0-0.84,AZ69TBTDH7AZS,3X4Q1O9UCK2WXV8VOBT8MFKQE0B7O9,3F0BG9B9MT3BDSARK078DQEFMOZY71,2,1
85,4,object_01,object_08,1037.3000000119,7,1,512.0,0.6666666666666666,1,object_05,5,1334,0,6,5,restaurant_8,1,memory-2step-stake-s,575,2140712,0.0-19.0-0.0-0.85,AZ69TBTDH7AZS,3X4Q1O9UCK2WXV8VOBT8MFKQE0B7O9,3F0BG9B9MT3BDSARK078DQEFMOZY71,7,8
86,1,object_04,object_03,845.09999999404,2,2,386.40000000596,0.8888888888888888,2,object_06,1,1342,0,6,8,desert_1,1,memory-2step-stake-s,576,2149170,0.0-19.0-0.0-0.86,AZ69TBTDH7AZS,3X4Q1O9UCK2WXV8VOBT8MFKQE0B7O9,3F0BG9B9MT3BDSARK078DQEFMOZY71,1,2
87,1,object_03,object_04,759.30000001192,2,1,693.20000001788,0.8888888888888888,2,object_06,1,1350,0,4,8,desert_1,1,memory-2step-stake-s,577,2157941,0.0-19.0-0.0-0.87,AZ69TBTDH7AZS,3X4Q1O9UCK2WXV8VOBT8MFKQE0B7O9,3F0BG9B9MT3BDSARK078DQEFMOZY71,2,1
88,1,object_04,object_03,704.5,2,2,444.19999998808,1.0,2,object_06,1,1359,0,2,9,desert_7,1,memory-2step-stake-s,578,2166572,0.0-19.0-0.0-0.88,AZ69TBTDH7AZS,3X4Q1O9UCK2WXV8VOBT8MFKQE0B7O9,3F0BG9B9MT3BDSARK078DQEFMOZY71,1,2
89,4,object_01,object_08,793.09999999404,8,2,424.29999998212,0.6666666666666666,2,object_06,5,1389,0,2,6,restaurant_3,1,memory-2step-stake-s,579,2174871,0.0-19.0-0.0-0.89,AZ69TBTDH7AZS,3X4Q1O9UCK2WXV8VOBT8MFKQE0B7O9,3F0BG9B9MT3BDSARK078DQEFMOZY71,7,8
90,1,object_04,object_03,563.20000001788,1,1,85.800000011921,0.2222222222222222,1,object_05,1,1391,0,2,8,desert_1,1,memory-2step-stake-s,580,2182406,0.0-19.0-0.0-0.90,AZ69TBTDH7AZS,3X4Q1O9UCK2WXV8VOBT8MFKQE0B7O9,3F0BG9B9MT3BDSARK078DQEFMOZY71,1,2
91,1,object_03,object_04,611.0,1,2,570.5,0.1111111111111111,1,object_05,1,1392,0,1,7,desert_7,1,memory-2step-stake-s,581,2190326,0.0-19.0-0.0-0.91,AZ69TBTDH7AZS,3X4Q1O9UCK2WXV8VOBT8MFKQE0B7O9,3F0BG9B9MT3BDSARK078DQEFMOZY71,2,1
92,4,object_08,object_01,1373.400000006,7,2,591.69999998808,0.1111111111111111,1,object_05,5,1397,0,1,6,restaurant_4,1,memory-2step-stake-s,582,2198273,0.0-19.0-0.0-0.92,AZ69TBTDH7AZS,3X4Q1O9UCK2WXV8VOBT8MFKQE0B7O9,3F0BG9B9MT3BDSARK078DQEFMOZY71,8,7
93,2,object_02,object_09,-1.0,-1,-1,-1.0,0.0,-,0,1,1397,0,2,3,forest_8,1,memory-2step-stake-s,583,2204814,0.0-19.0-0.0-0.93,AZ69TBTDH7AZS,3X4Q1O9UCK2WXV8VOBT8MFKQE0B7O9,3F0BG9B9MT3BDSARK078DQEFMOZY71,4,3
94,3,object_10,object_07,-1.0,-1,-1,-1.0,0.0,-,0,5,1397,0,4,1,library_8,1,memory-2step-stake-s,584,2211358,0.0-19.0-0.0-0.94,AZ69TBTDH7AZS,3X4Q1O9UCK2WXV8VOBT8MFKQE0B7O9,3F0BG9B9MT3BDSARK078DQEFMOZY71,6,5
95,3,object_07,object_10,976.80000001192,5,1,594.80000001192,0.5555555555555556,1,object_05,5,1422,0,5,2,library_4,1,memory-2step-stake-s,585,2219728,0.0-19.0-0.0-0.95,AZ69TBTDH7AZS,3X4Q1O9UCK2WXV8VOBT8MFKQE0B7O9,3F0BG9B9MT3BDSARK078DQEFMOZY71,5,6
96,2,object_02,object_09,1306.900000006,3,2,755.40000000596,0.4444444444444444,1,object_05,1,1426,0,4,1,forest_2,1,memory-2step-stake-s,586,2228150,0.0-19.0-0.0-0.96,AZ69TBTDH7AZS,3X4Q1O9UCK2WXV8VOBT8MFKQE0B7O9,3F0BG9B9MT3BDSARK078DQEFMOZY71,4,3
97,3,object_10,object_07,-1.0,-1,-1,-1.0,0.0,-,0,5,1426,0,4,1,library_4,1,memory-2step-stake-s,587,2234687,0.0-19.0-0.0-0.97,AZ69TBTDH7AZS,3X4Q1O9UCK2WXV8VOBT8MFKQE0B7O9,3F0BG9B9MT3BDSARK078DQEFMOZY71,6,5
98,1,object_03,object_04,1021.2999999821,1,2,485.10000002384,0.6666666666666666,1,object_05,1,1432,0,6,5,desert_7,1,memory-2step-stake-s,588,2243039,0.0-19.0-0.0-0.98,AZ69TBTDH7AZS,3X4Q1O9UCK2WXV8VOBT8MFKQE0B7O9,3F0BG9B9MT3BDSARK078DQEFMOZY71,2,1
99,2,object_09,object_02,-1.0,-1,-1,-1.0,0.0,-,0,5,1432,0,6,6,forest_4,1,memory-2step-stake-s,589,2249570,0.0-19.0-0.0-0.99,AZ69TBTDH7AZS,3X4Q1O9UCK2WXV8VOBT8MFKQE0B7O9,3F0BG9B9MT3BDSARK078DQEFMOZY71,3,4
100,2,object_02,object_09,-1.0,-1,-1,-1.0,0.0,-,0,1,1432,0,8,3,forest_1,1,memory-2step-stake-s,590,2256100,0.0-19.0-0.0-0.100,AZ69TBTDH7AZS,3X4Q1O9UCK2WXV8VOBT8MFKQE0B7O9,3F0BG9B9MT3BDSARK078DQEFMOZY71,4,3
101,3,object_10,object_07,-1.0,-1,-1,-1.0,0.0,-,0,5,1432,0,7,5,library_3,1,memory-2step-stake-s,591,2262624,0.0-19.0-0.0-0.101,AZ69TBTDH7AZS,3X4Q1O9UCK2WXV8VOBT8MFKQE0B7O9,3F0BG9B9MT3BDSARK078DQEFMOZY71,6,5
102,1,object_04,object_03,613.40000000596,1,1,722.19999998808,0.8888888888888888,1,object_05,1,1440,0,8,7,desert_7,1,memory-2step-stake-s,592,2273101,0.0-19.0-0.0-0.102,AZ69TBTDH7AZS,3X4Q1O9UCK2WXV8VOBT8MFKQE0B7O9,3F0BG9B9MT3BDSARK078DQEFMOZY71,1,2
103,1,object_03,object_04,838.0,1,2,712.0,0.8888888888888888,1,object_05,1,1448,0,8,2,desert_1,1,memory-2step-stake-s,593,2281914,0.0-19.0-0.0-0.103,AZ69TBTDH7AZS,3X4Q1O9UCK2WXV8VOBT8MFKQE0B7O9,3F0BG9B9MT3BDSARK078DQEFMOZY71,2,1
104,4,object_01,object_08,804.09999999404,8,2,420.69999998808,0.2222222222222222,2,object_06,5,1458,0,8,2,restaurant_8,1,memory-2step-stake-s,594,2289786,0.0-19.0-0.0-0.104,AZ69TBTDH7AZS,3X4Q1O9UCK2WXV8VOBT8MFKQE0B7O9,3F0BG9B9MT3BDSARK078DQEFMOZY71,7,8
105,2,object_09,object_02,-1.0,-1,-1,-1.0,0.0,-,0,1,1458,0,6,3,forest_4,1,memory-2step-stake-s,595,2296325,0.0-19.0-0.0-0.105,AZ69TBTDH7AZS,3X4Q1O9UCK2WXV8VOBT8MFKQE0B7O9,3F0BG9B9MT3BDSARK078DQEFMOZY71,3,4
106,2,object_09,object_02,-1.0,-1,-1,-1.0,0.0,-,0,1,1458,0,9,4,forest_1,1,memory-2step-stake-s,596,2302858,0.0-19.0-0.0-0.106,AZ69TBTDH7AZS,3X4Q1O9UCK2WXV8VOBT8MFKQE0B7O9,3F0BG9B9MT3BDSARK078DQEFMOZY71,3,4
107,2,object_02,object_09,-1.0,-1,-1,-1.0,0.0,-,0,1,1458,0,7,3,forest_8,1,memory-2step-stake-s,597,2309400,0.0-19.0-0.0-0.107,AZ69TBTDH7AZS,3X4Q1O9UCK2WXV8VOBT8MFKQE0B7O9,3F0BG9B9MT3BDSARK078DQEFMOZY71,4,3
108,3,object_10,object_07,574.80000001192,5,2,434.39999997616,0.6666666666666666,1,object_05,5,1488,0,6,6,library_1,1,memory-2step-stake-s,598,2317713,0.0-19.0-0.0-0.108,AZ69TBTDH7AZS,3X4Q1O9UCK2WXV8VOBT8MFKQE0B7O9,3F0BG9B9MT3BDSARK078DQEFMOZY71,6,5
109,3,object_10,object_07,1015.3000000119,6,1,1165.400000006,0.4444444444444444,2,object_06,1,1492,0,9,4,library_4,1,memory-2step-stake-s,599,2326548,0.0-19.0-0.0-0.109,AZ69TBTDH7AZS,3X4Q1O9UCK2WXV8VOBT8MFKQE0B7O9,3F0BG9B9MT3BDSARK078DQEFMOZY71,6,5
110,4,object_01,object_08,373.80000001192,8,2,484.20000001788,0.5555555555555556,2,object_06,1,1497,0,6,5,restaurant_3,1,memory-2step-stake-s,600,2334809,0.0-19.0-0.0-0.110,AZ69TBTDH7AZS,3X4Q1O9UCK2WXV8VOBT8MFKQE0B7O9,3F0BG9B9MT3BDSARK078DQEFMOZY71,7,8
111,1,object_04,object_03,796.39999997616,1,1,917.59999999404,0.5555555555555556,1,object_05,1,1502,0,5,8,desert_2,1,memory-2step-stake-s,601,2343510,0.0-19.0-0.0-0.111,AZ69TBTDH7AZS,3X4Q1O9UCK2WXV8VOBT8MFKQE0B7O9,3F0BG9B9MT3BDSARK078DQEFMOZY71,1,2
112,1,object_03,object_04,774.59999999404,1,2,383.20000001788,1.0,1,object_05,1,1511,0,9,9,desert_7,1,memory-2step-stake-s,602,2352090,0.0-19.0-0.0-0.112,AZ69TBTDH7AZS,3X4Q1O9UCK2WXV8VOBT8MFKQE0B7O9,3F0BG9B9MT3BDSARK078DQEFMOZY71,2,1
113,4,object_01,object_08,1151.2000000179,7,1,451.09999999404,0.8888888888888888,1,object_05,1,1519,0,8,7,restaurant_5,1,memory-2step-stake-s,603,2360623,0.0-19.0-0.0-0.113,AZ69TBTDH7AZS,3X4Q1O9UCK2WXV8VOBT8MFKQE0B7O9,3F0BG9B9MT3BDSARK078DQEFMOZY71,7,8
114,4,object_01,object_08,639.29999998212,7,1,143.09999999404,0.8888888888888888,1,object_05,5,1559,0,8,7,restaurant_5,1,memory-2step-stake-s,604,2368848,0.0-19.0-0.0-0.114,AZ69TBTDH7AZS,3X4Q1O9UCK2WXV8VOBT8MFKQE0B7O9,3F0BG9B9MT3BDSARK078DQEFMOZY71,7,8
115,1,object_03,object_04,647.40000000596,2,1,334.80000001192,0.5555555555555556,2,object_06,5,1584,0,8,5,desert_1,1,memory-2step-stake-s,605,2376952,0.0-19.0-0.0-0.115,AZ69TBTDH7AZS,3X4Q1O9UCK2WXV8VOBT8MFKQE0B7O9,3F0BG9B9MT3BDSARK078DQEFMOZY71,2,1
116,4,object_08,object_01,1404.599999994,8,1,1078.1999999881,0.8888888888888888,2,object_06,5,1624,0,5,8,restaurant_5,1,memory-2step-stake-s,606,2386121,0.0-19.0-0.0-0.116,AZ69TBTDH7AZS,3X4Q1O9UCK2WXV8VOBT8MFKQE0B7O9,3F0BG9B9MT3BDSARK078DQEFMOZY71,8,7
117,1,object_03,object_04,998.70000001788,2,1,-1.0,0.0,2,object_06,1,1624,0,4,6,desert_1,1,memory-2step-stake-s,607,2394668,0.0-19.0-0.0-0.117,AZ69TBTDH7AZS,3X4Q1O9UCK2WXV8VOBT8MFKQE0B7O9,3F0BG9B9MT3BDSARK078DQEFMOZY71,2,1
118,4,object_08,object_01,1141.599999994,8,1,289.20000001788,0.8888888888888888,2,object_06,5,1664,0,3,8,restaurant_3,1,memory-2step-stake-s,608,2403053,0.0-19.0-0.0-0.118,AZ69TBTDH7AZS,3X4Q1O9UCK2WXV8VOBT8MFKQE0B7O9,3F0BG9B9MT3BDSARK078DQEFMOZY71,8,7
119,4,object_01,object_08,-1.0,-1,-1,-1.0,0.0,-,0,5,1664,0,4,9,restaurant_3,1,memory-2step-stake-s,609,2409591,0.0-19.0-0.0-0.119,AZ69TBTDH7AZS,3X4Q1O9UCK2WXV8VOBT8MFKQE0B7O9,3F0BG9B9MT3BDSARK078DQEFMOZY71,7,8
120,2,object_09,object_02,546.60000002384,3,1,656.30000001192,0.5555555555555556,1,object_05,1,1669,0,5,7,forest_1,1,memory-2step-stake-s,610,2418018,0.0-19.0-0.0-0.120,AZ69TBTDH7AZS,3X4Q1O9UCK2WXV8VOBT8MFKQE0B7O9,3F0BG9B9MT3BDSARK078DQEFMOZY71,3,4
121,4,object_08,object_01,-1.0,-1,-1,-1.0,0.0,-,0,1,1669,0,5,5,restaurant_5,1,memory-2step-stake-s,611,2424546,0.0-19.0-0.0-0.121,AZ69TBTDH7AZS,3X4Q1O9UCK2WXV8VOBT8MFKQE0B7O9,3F0BG9B9MT3BDSARK078DQEFMOZY71,8,7
122,1,object_04,object_03,728.19999998808,1,1,810.69999998808,0.4444444444444444,1,object_05,1,1673,0,4,7,desert_4,1,memory-2step-stake-s,612,2433017,0.0-19.0-0.0-0.122,AZ69TBTDH7AZS,3X4Q1O9UCK2WXV8VOBT8MFKQE0B7O9,3F0BG9B9MT3BDSARK078DQEFMOZY71,1,2
123,1,object_03,object_04,593.29999998212,2,1,653.90000000596,0.7777777777777778,2,object_06,1,1680,0,2,7,desert_7,1,memory-2step-stake-s,613,2441652,0.0-19.0-0.0-0.123,AZ69TBTDH7AZS,3X4Q1O9UCK2WXV8VOBT8MFKQE0B7O9,3F0BG9B9MT3BDSARK078DQEFMOZY71,2,1
124,2,object_09,object_02,608.90000000596,3,1,625.30000001192,0.1111111111111111,1,object_05,1,1681,0,1,7,forest_2,1,memory-2step-stake-s,614,2449631,0.0-19.0-0.0-0.124,AZ69TBTDH7AZS,3X4Q1O9UCK2WXV8VOBT8MFKQE0B7O9,3F0BG9B9MT3BDSARK078DQEFMOZY71,3,4
125,2,object_02,object_09,723.19999998808,3,2,474.09999999404,0.2222222222222222,1,object_05,1,1683,0,2,7,forest_4,1,memory-2step-stake-s,615,2457572,0.0-19.0-0.0-0.125,AZ69TBTDH7AZS,3X4Q1O9UCK2WXV8VOBT8MFKQE0B7O9,3F0BG9B9MT3BDSARK078DQEFMOZY71,4,3
126,2,object_02,object_09,603.59999999404,3,2,393.19999998808,0.2222222222222222,1,object_05,1,1685,0,2,7,forest_8,1,memory-2step-stake-s,616,2465417,0.0-19.0-0.0-0.126,AZ69TBTDH7AZS,3X4Q1O9UCK2WXV8VOBT8MFKQE0B7O9,3F0BG9B9MT3BDSARK078DQEFMOZY71,4,3
127,2,object_09,object_02,529.29999998212,3,1,481.30000001192,0.1111111111111111,1,object_05,1,1686,0,1,8,forest_1,1,memory-2step-stake-s,617,2473259,0.0-19.0-0.0-0.127,AZ69TBTDH7AZS,3X4Q1O9UCK2WXV8VOBT8MFKQE0B7O9,3F0BG9B9MT3BDSARK078DQEFMOZY71,3,4
128,2,object_09,object_02,1150.7999999821,3,1,890.19999998808,0.3333333333333333,1,object_05,5,1701,0,3,7,forest_2,1,memory-2step-stake-s,619,2656498,0.0-19.0-0.1-0.128,AZ69TBTDH7AZS,3X4Q1O9UCK2WXV8VOBT8MFKQE0B7O9,3F0BG9B9MT3BDSARK078DQEFMOZY71,3,4
129,3,object_07,object_10,886.09999999404,6,2,490.5,0.4444444444444444,2,object_06,5,1721,0,2,4,library_3,1,memory-2step-stake-s,620,2664689,0.0-19.0-0.1-0.129,AZ69TBTDH7AZS,3X4Q1O9UCK2WXV8VOBT8MFKQE0B7O9,3F0BG9B9MT3BDSARK078DQEFMOZY71,5,6
130,4,object_01,object_08,846.59999999404,7,1,807.40000000596,0.1111111111111111,1,object_05,5,1726,0,1,4,restaurant_4,1,memory-2step-stake-s,621,2672879,0.0-19.0-0.1-0.130,AZ69TBTDH7AZS,3X4Q1O9UCK2WXV8VOBT8MFKQE0B7O9,3F0BG9B9MT3BDSARK078DQEFMOZY71,7,8
131,1,object_04,object_03,975.80000001192,1,1,840.90000000596,0.0,1,object_05,5,1726,0,0,6,desert_1,1,memory-2step-stake-s,622,2680989,0.0-19.0-0.1-0.131,AZ69TBTDH7AZS,3X4Q1O9UCK2WXV8VOBT8MFKQE0B7O9,3F0BG9B9MT3BDSARK078DQEFMOZY71,1,2
132,3,object_10,object_07,853.09999999404,5,2,1169.2999999821,0.3333333333333333,1,object_05,5,1741,0,3,6,library_8,1,memory-2step-stake-s,623,2689745,0.0-19.0-0.1-0.132,AZ69TBTDH7AZS,3X4Q1O9UCK2WXV8VOBT8MFKQE0B7O9,3F0BG9B9MT3BDSARK078DQEFMOZY71,6,5
133,3,object_07,object_10,-1.0,-1,-1,-1.0,0.0,-,0,5,1741,0,1,3,library_4,1,memory-2step-stake-s,624,2696282,0.0-19.0-0.1-0.133,AZ69TBTDH7AZS,3X4Q1O9UCK2WXV8VOBT8MFKQE0B7O9,3F0BG9B9MT3BDSARK078DQEFMOZY71,5,6
134,3,object_10,object_07,550.39999997616,6,1,573.69999998808,0.7777777777777778,2,object_06,5,1776,0,0,7,library_3,1,memory-2step-stake-s,625,2704820,0.0-19.0-0.1-0.134,AZ69TBTDH7AZS,3X4Q1O9UCK2WXV8VOBT8MFKQE0B7O9,3F0BG9B9MT3BDSARK078DQEFMOZY71,6,5
135,3,object_10,object_07,-1.0,-1,-1,-1.0,0.0,-,0,5,1776,0,1,3,library_3,1,memory-2step-stake-s,626,2711357,0.0-19.0-0.1-0.135,AZ69TBTDH7AZS,3X4Q1O9UCK2WXV8VOBT8MFKQE0B7O9,3F0BG9B9MT3BDSARK078DQEFMOZY71,6,5
136,4,object_01,object_08,649.80000001192,7,1,873.5,0.1111111111111111,1,object_05,5,1781,0,1,3,restaurant_3,1,memory-2step-stake-s,627,2719586,0.0-19.0-0.1-0.136,AZ69TBTDH7AZS,3X4Q1O9UCK2WXV8VOBT8MFKQE0B7O9,3F0BG9B9MT3BDSARK078DQEFMOZY71,7,8
137,3,object_10,object_07,758.70000001788,5,2,863.09999999404,0.1111111111111111,1,object_05,5,1786,0,1,2,library_8,1,memory-2step-stake-s,628,2727791,0.0-19.0-0.1-0.137,AZ69TBTDH7AZS,3X4Q1O9UCK2WXV8VOBT8MFKQE0B7O9,3F0BG9B9MT3BDSARK078DQEFMOZY71,6,5
138,2,object_09,object_02,700.10000002384,3,1,560.69999998808,0.1111111111111111,1,object_05,1,1787,0,1,5,forest_2,1,memory-2step-stake-s,629,2735696,0.0-19.0-0.1-0.138,AZ69TBTDH7AZS,3X4Q1O9UCK2WXV8VOBT8MFKQE0B7O9,3F0BG9B9MT3BDSARK078DQEFMOZY71,3,4
139,1,object_03,object_04,606.69999998808,1,2,867.69999998808,0.0,1,object_05,1,1787,0,0,2,desert_1,1,memory-2step-stake-s,630,2743803,0.0-19.0-0.1-0.139,AZ69TBTDH7AZS,3X4Q1O9UCK2WXV8VOBT8MFKQE0B7O9,3F0BG9B9MT3BDSARK078DQEFMOZY71,2,1
140,2,object_02,object_09,1246.6999999881,4,1,1126.3000000119,0.0,2,object_06,1,1787,0,2,0,forest_2,1,memory-2step-stake-s,631,2752180,0.0-19.0-0.1-0.140,AZ69TBTDH7AZS,3X4Q1O9UCK2WXV8VOBT8MFKQE0B7O9,3F0BG9B9MT3BDSARK078DQEFMOZY71,4,3
141,1,object_04,object_03,769.40000000596,2,2,716.0,0.1111111111111111,2,object_06,1,1788,0,2,1,desert_2,1,memory-2step-stake-s,632,2760232,0.0-19.0-0.1-0.141,AZ69TBTDH7AZS,3X4Q1O9UCK2WXV8VOBT8MFKQE0B7O9,3F0BG9B9MT3BDSARK078DQEFMOZY71,1,2
142,3,object_10,object_07,645.69999998808,6,1,693.5,0.1111111111111111,2,object_06,5,1793,0,2,1,library_4,1,memory-2step-stake-s,633,2768271,0.0-19.0-0.1-0.142,AZ69TBTDH7AZS,3X4Q1O9UCK2WXV8VOBT8MFKQE0B7O9,3F0BG9B9MT3BDSARK078DQEFMOZY71,6,5
143,2,object_09,object_02,889.40000000596,4,2,452.89999997616,0.0,2,object_06,5,1793,0,3,0,forest_8,1,memory-2step-stake-s,634,2775971,0.0-19.0-0.1-0.143,AZ69TBTDH7AZS,3X4Q1O9UCK2WXV8VOBT8MFKQE0B7O9,3F0BG9B9MT3BDSARK078DQEFMOZY71,3,4
144,4,object_08,object_01,819.0,7,2,501.0,0.4444444444444444,1,object_05,1,1797,0,4,0,restaurant_4,1,memory-2step-stake-s,635,2784127,0.0-19.0-0.1-0.144,AZ69TBTDH7AZS,3X4Q1O9UCK2WXV8VOBT8MFKQE0B7O9,3F0BG9B9MT3BDSARK078DQEFMOZY71,8,7
145,3,object_07,object_10,805.79999998212,5,1,462.79999998212,0.6666666666666666,1,object_05,5,1827,0,6,0,library_1,1,memory-2step-stake-s,636,2792450,0.0-19.0-0.1-0.145,AZ69TBTDH7AZS,3X4Q1O9UCK2WXV8VOBT8MFKQE0B7O9,3F0BG9B9MT3BDSARK078DQEFMOZY71,5,6
146,3,object_07,object_10,1176.1000000238,6,2,1430.099999994,0.2222222222222222,2,object_06,5,1837,0,4,2,library_3,1,memory-2step-stake-s,637,2801335,0.0-19.0-0.1-0.146,AZ69TBTDH7AZS,3X4Q1O9UCK2WXV8VOBT8MFKQE0B7O9,3F0BG9B9MT3BDSARK078DQEFMOZY71,5,6
147,3,object_07,object_10,799.40000000596,5,1,709.79999998212,0.4444444444444444,1,object_05,5,1857,0,4,3,library_1,1,memory-2step-stake-s,638,2809718,0.0-19.0-0.1-0.147,AZ69TBTDH7AZS,3X4Q1O9UCK2WXV8VOBT8MFKQE0B7O9,3F0BG9B9MT3BDSARK078DQEFMOZY71,5,6
148,3,object_07,object_10,845.30000001192,6,2,673.0,0.4444444444444444,2,object_06,5,1877,0,6,4,library_1,1,memory-2step-stake-s,639,2818060,0.0-19.0-0.1-0.148,AZ69TBTDH7AZS,3X4Q1O9UCK2WXV8VOBT8MFKQE0B7O9,3F0BG9B9MT3BDSARK078DQEFMOZY71,5,6
149,4,object_08,object_01,1160.599999994,7,2,479.40000000596,0.7777777777777778,1,object_05,5,1912,0,7,4,restaurant_8,1,memory-2step-stake-s,640,2826516,0.0-19.0-0.1-0.149,AZ69TBTDH7AZS,3X4Q1O9UCK2WXV8VOBT8MFKQE0B7O9,3F0BG9B9MT3BDSARK078DQEFMOZY71,8,7
150,4,object_01,object_08,1408.5,7,1,1050.7999999821,0.3333333333333333,1,object_05,5,1927,0,3,5,restaurant_8,1,memory-2step-stake-s,641,2835131,0.0-19.0-0.1-0.150,AZ69TBTDH7AZS,3X4Q1O9UCK2WXV8VOBT8MFKQE0B7O9,3F0BG9B9MT3BDSARK078DQEFMOZY71,7,8
151,2,object_02,object_09,814.30000001192,3,2,431.80000001192,0.2222222222222222,1,object_05,1,1929,0,2,5,forest_1,1,memory-2step-stake-s,642,2843029,0.0-19.0-0.1-0.151,AZ69TBTDH7AZS,3X4Q1O9UCK2WXV8VOBT8MFKQE0B7O9,3F0BG9B9MT3BDSARK078DQEFMOZY71,4,3
152,1,object_03,object_04,620.40000000596,2,1,361.40000000596,0.5555555555555556,2,object_06,1,1934,0,2,5,desert_2,1,memory-2step-stake-s,643,2851160,0.0-19.0-0.1-0.152,AZ69TBTDH7AZS,3X4Q1O9UCK2WXV8VOBT8MFKQE0B7O9,3F0BG9B9MT3BDSARK078DQEFMOZY71,2,1
153,1,object_03,object_04,576.29999998212,2,1,1174.1999999881,0.6666666666666666,2,object_06,1,1940,0,3,6,desert_1,1,memory-2step-stake-s,644,2860211,0.0-19.0-0.1-0.153,AZ69TBTDH7AZS,3X4Q1O9UCK2WXV8VOBT8MFKQE0B7O9,3F0BG9B9MT3BDSARK078DQEFMOZY71,2,1
154,3,object_07,object_10,607.20000001788,5,1,440.59999999404,0.3333333333333333,1,object_05,5,1955,0,3,9,library_8,1,memory-2step-stake-s,645,2868214,0.0-19.0-0.1-0.154,AZ69TBTDH7AZS,3X4Q1O9UCK2WXV8VOBT8MFKQE0B7O9,3F0BG9B9MT3BDSARK078DQEFMOZY71,5,6
155,2,object_02,object_09,703.69999998808,3,2,1297.1999999881,0.4444444444444444,1,object_05,1,1959,0,4,7,forest_4,1,memory-2step-stake-s,646,2877187,0.0-19.0-0.1-0.155,AZ69TBTDH7AZS,3X4Q1O9UCK2WXV8VOBT8MFKQE0B7O9,3F0BG9B9MT3BDSARK078DQEFMOZY71,4,3
156,1,object_04,object_03,877.0,1,1,963.79999998212,0.5555555555555556,1,object_05,1,1964,0,5,8,desert_7,1,memory-2step-stake-s,647,2885925,0.0-19.0-0.1-0.156,AZ69TBTDH7AZS,3X4Q1O9UCK2WXV8VOBT8MFKQE0B7O9,3F0BG9B9MT3BDSARK078DQEFMOZY71,1,2
157,4,object_08,object_01,883.59999999404,7,2,592.0,0.4444444444444444,1,object_05,5,1984,0,4,8,restaurant_3,1,memory-2step-stake-s,648,2894180,0.0-19.0-0.1-0.157,AZ69TBTDH7AZS,3X4Q1O9UCK2WXV8VOBT8MFKQE0B7O9,3F0BG9B9MT3BDSARK078DQEFMOZY71,8,7
158,4,object_08,object_01,952.29999998212,7,2,-1.0,0.0,1,object_05,5,1984,0,5,7,restaurant_4,1,memory-2step-stake-s,649,2902725,0.0-19.0-0.1-0.158,AZ69TBTDH7AZS,3X4Q1O9UCK2WXV8VOBT8MFKQE0B7O9,3F0BG9B9MT3BDSARK078DQEFMOZY71,8,7
159,3,object_10,object_07,463.90000000596,6,1,543.59999999404,0.8888888888888888,2,object_06,5,2024,0,4,8,library_8,1,memory-2step-stake-s,650,2911357,0.0-19.0-0.1-0.159,AZ69TBTDH7AZS,3X4Q1O9UCK2WXV8VOBT8MFKQE0B7O9,3F0BG9B9MT3BDSARK078DQEFMOZY71,6,5
160,2,object_02,object_09,693.69999998808,3,2,480.69999998808,0.4444444444444444,1,object_05,1,2028,0,4,6,forest_4,1,memory-2step-stake-s,651,2919522,0.0-19.0-0.1-0.160,AZ69TBTDH7AZS,3X4Q1O9UCK2WXV8VOBT8MFKQE0B7O9,3F0BG9B9MT3BDSARK078DQEFMOZY71,4,3
161,3,object_10,object_07,813.29999998212,6,1,-1.0,0.0,2,object_06,5,2028,0,3,7,library_8,1,memory-2step-stake-s,652,2928079,0.0-19.0-0.1-0.161,AZ69TBTDH7AZS,3X4Q1O9UCK2WXV8VOBT8MFKQE0B7O9,3F0BG9B9MT3BDSARK078DQEFMOZY71,6,5
162,2,object_02,object_09,788.39999997616,3,2,568.70000001788,0.2222222222222222,1,object_05,1,2030,0,2,9,forest_8,1,memory-2step-stake-s,653,2936109,0.0-19.0-0.1-0.162,AZ69TBTDH7AZS,3X4Q1O9UCK2WXV8VOBT8MFKQE0B7O9,3F0BG9B9MT3BDSARK078DQEFMOZY71,4,3
163,1,object_04,object_03,917.79999998212,1,1,557.5,0.4444444444444444,1,object_05,1,2034,0,4,5,desert_4,1,memory-2step-stake-s,654,2944335,0.0-19.0-0.1-0.163,AZ69TBTDH7AZS,3X4Q1O9UCK2WXV8VOBT8MFKQE0B7O9,3F0BG9B9MT3BDSARK078DQEFMOZY71,1,2
164,4,object_01,object_08,587.19999998808,7,1,452.5,0.4444444444444444,1,object_05,1,2038,0,4,4,restaurant_4,1,memory-2step-stake-s,655,2952471,0.0-19.0-0.1-0.164,AZ69TBTDH7AZS,3X4Q1O9UCK2WXV8VOBT8MFKQE0B7O9,3F0BG9B9MT3BDSARK078DQEFMOZY71,7,8
165,1,object_03,object_04,745.20000001788,1,2,768.40000000596,0.7777777777777778,1,object_05,1,2045,0,7,0,desert_2,1,memory-2step-stake-s,656,2961214,0.0-19.0-0.1-0.165,AZ69TBTDH7AZS,3X4Q1O9UCK2WXV8VOBT8MFKQE0B7O9,3F0BG9B9MT3BDSARK078DQEFMOZY71,2,1
166,2,object_09,object_02,766.40000000596,3,1,-1.0,0.0,1,object_05,1,2045,0,6,1,forest_8,1,memory-2step-stake-s,657,2969766,0.0-19.0-0.1-0.166,AZ69TBTDH7AZS,3X4Q1O9UCK2WXV8VOBT8MFKQE0B7O9,3F0BG9B9MT3BDSARK078DQEFMOZY71,3,4
167,2,object_02,object_09,-1.0,-1,-1,-1.0,0.0,-,0,1,2045,0,3,2,forest_1,1,memory-2step-stake-s,658,2976377,0.0-19.0-0.1-0.167,AZ69TBTDH7AZS,3X4Q1O9UCK2WXV8VOBT8MFKQE0B7O9,3F0BG9B9MT3BDSARK078DQEFMOZY71,4,3
168,3,object_10,object_07,670.19999998808,6,1,431.80000001192,0.2222222222222222,2,object_06,5,2055,0,0,2,library_1,1,memory-2step-stake-s,659,2984254,0.0-19.0-0.1-0.168,AZ69TBTDH7AZS,3X4Q1O9UCK2WXV8VOBT8MFKQE0B7O9,3F0BG9B9MT3BDSARK078DQEFMOZY71,6,5
169,1,object_03,object_04,466.0,1,2,354.19999998808,0.1111111111111111,1,object_05,5,2060,0,1,1,desert_7,1,memory-2step-stake-s,660,2991946,0.0-19.0-0.1-0.169,AZ69TBTDH7AZS,3X4Q1O9UCK2WXV8VOBT8MFKQE0B7O9,3F0BG9B9MT3BDSARK078DQEFMOZY71,2,1
170,2,object_09,object_02,1320.099999994,4,2,658.90000000596,0.2222222222222222,2,object_06,1,2062,0,0,2,forest_2,1,memory-2step-stake-s,661,3000049,0.0-19.0-0.1-0.170,AZ69TBTDH7AZS,3X4Q1O9UCK2WXV8VOBT8MFKQE0B7O9,3F0BG9B9MT3BDSARK078DQEFMOZY71,3,4
171,3,object_07,object_10,840.90000000596,5,1,910.59999999404,0.2222222222222222,1,object_05,5,2072,0,2,2,library_1,1,memory-2step-stake-s,662,3008402,0.0-19.0-0.1-0.171,AZ69TBTDH7AZS,3X4Q1O9UCK2WXV8VOBT8MFKQE0B7O9,3F0BG9B9MT3BDSARK078DQEFMOZY71,5,6
172,2,object_09,object_02,508.90000000596,3,1,436.20000001788,0.1111111111111111,1,object_05,1,2073,0,1,5,forest_1,1,memory-2step-stake-s,663,3016181,0.0-19.0-0.1-0.172,AZ69TBTDH7AZS,3X4Q1O9UCK2WXV8VOBT8MFKQE0B7O9,3F0BG9B9MT3BDSARK078DQEFMOZY71,3,4
173,4,object_08,object_01,609.20000001788,7,2,464.80000001192,0.3333333333333333,1,object_05,5,2088,0,3,5,restaurant_8,1,memory-2step-stake-s,664,3024193,0.0-19.0-0.1-0.173,AZ69TBTDH7AZS,3X4Q1O9UCK2WXV8VOBT8MFKQE0B7O9,3F0BG9B9MT3BDSARK078DQEFMOZY71,8,7
174,4,object_08,object_01,663.0,7,2,355.69999998808,0.5555555555555556,1,object_05,5,2113,0,5,3,restaurant_4,1,memory-2step-stake-s,665,3032311,0.0-19.0-0.1-0.174,AZ69TBTDH7AZS,3X4Q1O9UCK2WXV8VOBT8MFKQE0B7O9,3F0BG9B9MT3BDSARK078DQEFMOZY71,8,7
175,2,object_02,object_09,-1.0,-1,-1,-1.0,0.0,-,0,1,2113,0,5,0,forest_4,1,memory-2step-stake-s,666,3038849,0.0-19.0-0.1-0.175,AZ69TBTDH7AZS,3X4Q1O9UCK2WXV8VOBT8MFKQE0B7O9,3F0BG9B9MT3BDSARK078DQEFMOZY71,4,3
176,4,object_01,object_08,491.80000001192,8,2,506.30000001192,0.1111111111111111,2,object_06,5,2118,0,7,1,restaurant_8,1,memory-2step-stake-s,667,3046700,0.0-19.0-0.1-0.176,AZ69TBTDH7AZS,3X4Q1O9UCK2WXV8VOBT8MFKQE0B7O9,3F0BG9B9MT3BDSARK078DQEFMOZY71,7,8
177,4,object_08,object_01,411.40000000596,8,1,407.79999998212,0.0,2,object_06,5,2118,0,5,0,restaurant_3,1,memory-2step-stake-s,668,3054348,0.0-19.0-0.1-0.177,AZ69TBTDH7AZS,3X4Q1O9UCK2WXV8VOBT8MFKQE0B7O9,3F0BG9B9MT3BDSARK078DQEFMOZY71,8,7
178,2,object_02,object_09,824.90000000596,4,1,646.5,0.1111111111111111,2,object_06,1,2119,0,7,1,forest_8,1,memory-2step-stake-s,669,3062340,0.0-19.0-0.1-0.178,AZ69TBTDH7AZS,3X4Q1O9UCK2WXV8VOBT8MFKQE0B7O9,3F0BG9B9MT3BDSARK078DQEFMOZY71,4,3
179,3,object_10,object_07,516.59999999404,6,1,738.40000000596,0.0,2,object_06,5,2119,0,4,0,library_8,1,memory-2step-stake-s,670,3070316,0.0-19.0-0.1-0.179,AZ69TBTDH7AZS,3X4Q1O9UCK2WXV8VOBT8MFKQE0B7O9,3F0BG9B9MT3BDSARK078DQEFMOZY71,6,5
180,4,object_08,object_01,844.90000000596,8,1,729.30000001192,0.0,2,object_06,5,2119,0,4,0,restaurant_4,1,memory-2step-stake-s,671,3078284,0.0-19.0-0.1-0.180,AZ69TBTDH7AZS,3X4Q1O9UCK2WXV8VOBT8MFKQE0B7O9,3F0BG9B9MT3BDSARK078DQEFMOZY71,8,7
181,1,object_04,object_03,581.19999998808,2,2,574.0,0.4444444444444444,2,object_06,1,2123,0,2,4,desert_1,1,memory-2step-stake-s,672,3086512,0.0-19.0-0.1-0.181,AZ69TBTDH7AZS,3X4Q1O9UCK2WXV8VOBT8MFKQE0B7O9,3F0BG9B9MT3BDSARK078DQEFMOZY71,1,2
182,2,object_09,object_02,926.09999999404,3,1,-1.0,0.0,1,object_05,1,2123,0,2,4,forest_2,1,memory-2step-stake-s,673,3095054,0.0-19.0-0.1-0.182,AZ69TBTDH7AZS,3X4Q1O9UCK2WXV8VOBT8MFKQE0B7O9,3F0BG9B9MT3BDSARK078DQEFMOZY71,3,4
183,4,object_01,object_08,1028.099999994,7,1,521.29999998212,0.5555555555555556,1,object_05,5,2148,0,5,3,restaurant_8,1,memory-2step-stake-s,674,3103346,0.0-19.0-0.1-0.183,AZ69TBTDH7AZS,3X4Q1O9UCK2WXV8VOBT8MFKQE0B7O9,3F0BG9B9MT3BDSARK078DQEFMOZY71,7,8
184,2,object_09,object_02,651.40000000596,4,2,523.60000002384,0.3333333333333333,2,object_06,1,2151,0,2,3,forest_4,1,memory-2step-stake-s,675,3111421,0.0-19.0-0.1-0.184,AZ69TBTDH7AZS,3X4Q1O9UCK2WXV8VOBT8MFKQE0B7O9,3F0BG9B9MT3BDSARK078DQEFMOZY71,3,4
185,3,object_07,object_10,415.80000001192,5,1,113.59999999404,0.2222222222222222,1,object_05,5,2161,0,2,4,library_4,1,memory-2step-stake-s,676,3118988,0.0-19.0-0.1-0.185,AZ69TBTDH7AZS,3X4Q1O9UCK2WXV8VOBT8MFKQE0B7O9,3F0BG9B9MT3BDSARK078DQEFMOZY71,5,6
186,2,object_09,object_02,841.90000000596,4,2,552.40000000596,0.6666666666666666,2,object_06,1,2167,0,2,6,forest_2,1,memory-2step-stake-s,677,3127411,0.0-19.0-0.1-0.186,AZ69TBTDH7AZS,3X4Q1O9UCK2WXV8VOBT8MFKQE0B7O9,3F0BG9B9MT3BDSARK078DQEFMOZY71,3,4
187,3,object_10,object_07,-1.0,-1,-1,-1.0,0.0,-,0,1,2167,0,3,3,library_1,1,memory-2step-stake-s,678,3133947,0.0-19.0-0.1-0.187,AZ69TBTDH7AZS,3X4Q1O9UCK2WXV8VOBT8MFKQE0B7O9,3F0BG9B9MT3BDSARK078DQEFMOZY71,6,5
188,3,object_10,object_07,548.70000001788,5,2,448.40000000596,0.1111111111111111,1,object_05,5,2172,0,1,3,library_4,1,memory-2step-stake-s,679,3141745,0.0-19.0-0.1-0.188,AZ69TBTDH7AZS,3X4Q1O9UCK2WXV8VOBT8MFKQE0B7O9,3F0BG9B9MT3BDSARK078DQEFMOZY71,6,5
189,3,object_07,object_10,470.69999998808,6,2,622.0,0.1111111111111111,2,object_06,5,2177,0,2,1,library_4,1,memory-2step-stake-s,680,3149716,0.0-19.0-0.1-0.189,AZ69TBTDH7AZS,3X4Q1O9UCK2WXV8VOBT8MFKQE0B7O9,3F0BG9B9MT3BDSARK078DQEFMOZY71,5,6
190,4,object_01,object_08,523.40000000596,7,1,438.09999999404,0.3333333333333333,1,object_05,5,2192,0,3,2,restaurant_3,1,memory-2step-stake-s,681,3157715,0.0-19.0-0.1-0.190,AZ69TBTDH7AZS,3X4Q1O9UCK2WXV8VOBT8MFKQE0B7O9,3F0BG9B9MT3BDSARK078DQEFMOZY71,7,8
191,3,object_07,object_10,593.79999998212,5,1,469.09999999404,0.4444444444444444,1,object_05,5,2212,0,4,1,library_3,1,memory-2step-stake-s,682,3165861,0.0-19.0-0.1-0.191,AZ69TBTDH7AZS,3X4Q1O9UCK2WXV8VOBT8MFKQE0B7O9,3F0BG9B9MT3BDSARK078DQEFMOZY71,5,6
192,2,object_09,object_02,-1.0,-1,-1,-1.0,0.0,-,0,1,2212,0,6,3,forest_4,1,memory-2step-stake-s,683,3172395,0.0-19.0-0.1-0.192,AZ69TBTDH7AZS,3X4Q1O9UCK2WXV8VOBT8MFKQE0B7O9,3F0BG9B9MT3BDSARK078DQEFMOZY71,3,4
193,1,object_03,object_04,527.90000000596,1,2,534.70000001788,0.8888888888888888,1,object_05,1,2220,0,8,3,desert_4,1,memory-2step-stake-s,684,3181007,0.0-19.0-0.1-0.193,AZ69TBTDH7AZS,3X4Q1O9UCK2WXV8VOBT8MFKQE0B7O9,3F0BG9B9MT3BDSARK078DQEFMOZY71,2,1
194,1,object_03,object_04,1047.900000006,1,2,1106.900000006,0.7777777777777778,1,object_05,1,2227,0,7,4,desert_1,1,memory-2step-stake-s,685,3190091,0.0-19.0-0.1-0.194,AZ69TBTDH7AZS,3X4Q1O9UCK2WXV8VOBT8MFKQE0B7O9,3F0BG9B9MT3BDSARK078DQEFMOZY71,2,1
195,4,object_08,object_01,1100.099999994,7,2,663.59999999404,1.0,1,object_05,1,2236,0,9,5,restaurant_5,1,memory-2step-stake-s,686,3198950,0.0-19.0-0.1-0.195,AZ69TBTDH7AZS,3X4Q1O9UCK2WXV8VOBT8MFKQE0B7O9,3F0BG9B9MT3BDSARK078DQEFMOZY71,8,7
196,3,object_10,object_07,327.0,6,1,396.09999999404,0.5555555555555556,2,object_06,1,2241,0,6,5,library_8,1,memory-2step-stake-s,687,3207114,0.0-19.0-0.1-0.196,AZ69TBTDH7AZS,3X4Q1O9UCK2WXV8VOBT8MFKQE0B7O9,3F0BG9B9MT3BDSARK078DQEFMOZY71,6,5
197,1,object_03,object_04,653.69999998808,1,2,416.20000001788,0.8888888888888888,1,object_05,1,2249,0,8,4,desert_1,1,memory-2step-stake-s,688,3215629,0.0-19.0-0.1-0.197,AZ69TBTDH7AZS,3X4Q1O9UCK2WXV8VOBT8MFKQE0B7O9,3F0BG9B9MT3BDSARK078DQEFMOZY71,2,1
198,3,object_10,object_07,503.80000001192,5,2,791.69999998808,0.5555555555555556,1,object_05,1,2254,0,5,2,library_8,1,memory-2step-stake-s,689,3224183,0.0-19.0-0.1-0.198,AZ69TBTDH7AZS,3X4Q1O9UCK2WXV8VOBT8MFKQE0B7O9,3F0BG9B9MT3BDSARK078DQEFMOZY71,6,5
199,4,object_01,object_08,383.30000001192,7,1,356.80000001192,0.6666666666666666,1,object_05,5,2284,0,6,1,restaurant_4,1,memory-2step-stake-s,690,3232400,0.0-19.0-0.1-0.199,AZ69TBTDH7AZS,3X4Q1O9UCK2WXV8VOBT8MFKQE0B7O9,3F0BG9B9MT3BDSARK078DQEFMOZY71,7,8
200,2,object_09,object_02,592.09999999404,4,2,236.5,0.4444444444444444,2,object_06,1,2288,0,8,4,forest_2,1,memory-2step-stake-s,691,3240295,0.0-19.0-0.1-0.200,AZ69TBTDH7AZS,3X4Q1O9UCK2WXV8VOBT8MFKQE0B7O9,3F0BG9B9MT3BDSARK078DQEFMOZY71,3,4
201,1,object_03,object_04,557.60000002384,1,2,438.10000002384,0.6666666666666666,1,object_05,1,2294,0,6,0,desert_2,1,memory-2step-stake-s,692,3248593,0.0-19.0-0.1-0.201,AZ69TBTDH7AZS,3X4Q1O9UCK2WXV8VOBT8MFKQE0B7O9,3F0BG9B9MT3BDSARK078DQEFMOZY71,2,1
202,3,object_10,object_07,706.60000002384,6,1,594.79999998212,0.1111111111111111,2,object_06,5,2299,0,5,1,library_1,1,memory-2step-stake-s,693,3256529,0.0-19.0-0.1-0.202,AZ69TBTDH7AZS,3X4Q1O9UCK2WXV8VOBT8MFKQE0B7O9,3F0BG9B9MT3BDSARK078DQEFMOZY71,6,5
203,4,object_01,object_08,372.20000001788,8,2,343.29999998212,0.1111111111111111,2,object_06,1,2300,0,8,1,restaurant_8,1,memory-2step-stake-s,694,3264210,0.0-19.0-0.1-0.203,AZ69TBTDH7AZS,3X4Q1O9UCK2WXV8VOBT8MFKQE0B7O9,3F0BG9B9MT3BDSARK078DQEFMOZY71,7,8
204,2,object_09,object_02,540.59999999404,3,1,413.0,0.8888888888888888,1,object_05,1,2308,0,8,0,forest_1,1,memory-2step-stake-s,695,3272696,0.0-19.0-0.1-0.204,AZ69TBTDH7AZS,3X4Q1O9UCK2WXV8VOBT8MFKQE0B7O9,3F0BG9B9MT3BDSARK078DQEFMOZY71,3,4
205,1,object_03,object_04,477.19999998808,1,2,287.20000001788,0.5555555555555556,1,object_05,1,2313,0,5,1,desert_2,1,memory-2step-stake-s,696,3280742,0.0-19.0-0.1-0.205,AZ69TBTDH7AZS,3X4Q1O9UCK2WXV8VOBT8MFKQE0B7O9,3F0BG9B9MT3BDSARK078DQEFMOZY71,2,1
206,1,object_03,object_04,592.69999998808,2,1,327.80000001192,0.0,2,object_06,5,2313,0,8,0,desert_1,1,memory-2step-stake-s,697,3288305,0.0-19.0-0.1-0.206,AZ69TBTDH7AZS,3X4Q1O9UCK2WXV8VOBT8MFKQE0B7O9,3F0BG9B9MT3BDSARK078DQEFMOZY71,2,1
207,2,object_09,object_02,355.30000001192,4,2,458.40000000596,0.1111111111111111,2,object_06,1,2314,0,7,1,forest_2,1,memory-2step-stake-s,698,3296110,0.0-19.0-0.1-0.207,AZ69TBTDH7AZS,3X4Q1O9UCK2WXV8VOBT8MFKQE0B7O9,3F0BG9B9MT3BDSARK078DQEFMOZY71,3,4
208,3,object_07,object_10,698.09999999404,5,1,342.20000001788,1.0,1,object_05,1,2323,0,9,0,library_8,1,memory-2step-stake-s,699,3304635,0.0-19.0-0.1-0.208,AZ69TBTDH7AZS,3X4Q1O9UCK2WXV8VOBT8MFKQE0B7O9,3F0BG9B9MT3BDSARK078DQEFMOZY71,5,6
209,3,object_10,object_07,485.59999999404,5,2,-1.0,0.0,1,object_05,5,2323,0,5,2,library_8,1,memory-2step-stake-s,700,3313171,0.0-19.0-0.1-0.209,AZ69TBTDH7AZS,3X4Q1O9UCK2WXV8VOBT8MFKQE0B7O9,3F0BG9B9MT3BDSARK078DQEFMOZY71,6,5
210,1,object_04,object_03,442.0,2,2,378.59999999404,0.2222222222222222,2,object_06,1,2325,0,0,2,desert_4,1,memory-2step-stake-s,701,3320999,0.0-19.0-0.1-0.210,AZ69TBTDH7AZS,3X4Q1O9UCK2WXV8VOBT8MFKQE0B7O9,3F0BG9B9MT3BDSARK078DQEFMOZY71,1,2
211,1,object_03,object_04,-1.0,-1,-1,-1.0,0.0,-,0,5,2325,0,0,1,desert_4,1,memory-2step-stake-s,702,3327533,0.0-19.0-0.1-0.211,AZ69TBTDH7AZS,3X4Q1O9UCK2WXV8VOBT8MFKQE0B7O9,3F0BG9B9MT3BDSARK078DQEFMOZY71,2,1
212,3,object_07,object_10,625.59999999404,6,2,528.10000002384,0.5555555555555556,2,object_06,1,2330,0,0,5,library_1,1,memory-2step-stake-s,703,3335824,0.0-19.0-0.1-0.212,AZ69TBTDH7AZS,3X4Q1O9UCK2WXV8VOBT8MFKQE0B7O9,3F0BG9B9MT3BDSARK078DQEFMOZY71,5,6
213,1,object_04,object_03,547.39999997616,2,2,616.80000001192,0.3333333333333333,2,object_06,1,2333,0,1,3,desert_4,1,memory-2step-stake-s,704,3343997,0.0-19.0-0.1-0.213,AZ69TBTDH7AZS,3X4Q1O9UCK2WXV8VOBT8MFKQE0B7O9,3F0BG9B9MT3BDSARK078DQEFMOZY71,1,2
214,3,object_10,object_07,514.59999999404,6,1,1001.400000006,0.5555555555555556,2,object_06,5,2358,0,7,5,library_4,1,memory-2step-stake-s,705,3352766,0.0-19.0-0.1-0.214,AZ69TBTDH7AZS,3X4Q1O9UCK2WXV8VOBT8MFKQE0B7O9,3F0BG9B9MT3BDSARK078DQEFMOZY71,6,5
215,1,object_04,object_03,489.60000002384,2,2,755.0,1.0,2,object_06,1,2367,0,7,9,desert_7,1,memory-2step-stake-s,706,3361696,0.0-19.0-0.1-0.215,AZ69TBTDH7AZS,3X4Q1O9UCK2WXV8VOBT8MFKQE0B7O9,3F0BG9B9MT3BDSARK078DQEFMOZY71,1,2
216,3,object_10,object_07,1263.8000000119,6,1,843.0,0.8888888888888888,2,object_06,5,2407,0,8,8,library_1,1,memory-2step-stake-s,707,3370615,0.0-19.0-0.1-0.216,AZ69TBTDH7AZS,3X4Q1O9UCK2WXV8VOBT8MFKQE0B7O9,3F0BG9B9MT3BDSARK078DQEFMOZY71,6,5
217,4,object_08,object_01,601.5,7,2,787.5,0.7777777777777778,1,object_05,1,2414,0,7,7,restaurant_8,1,memory-2step-stake-s,708,3379372,0.0-19.0-0.1-0.217,AZ69TBTDH7AZS,3X4Q1O9UCK2WXV8VOBT8MFKQE0B7O9,3F0BG9B9MT3BDSARK078DQEFMOZY71,8,7
218,1,object_03,object_04,601.0,1,2,334.90000000596,0.7777777777777778,1,object_05,1,2421,0,7,8,desert_2,1,memory-2step-stake-s,709,3387678,0.0-19.0-0.1-0.218,AZ69TBTDH7AZS,3X4Q1O9UCK2WXV8VOBT8MFKQE0B7O9,3F0BG9B9MT3BDSARK078DQEFMOZY71,2,1
219,1,object_03,object_04,761.30000001192,2,1,615.09999999404,0.8888888888888888,2,object_06,5,2461,0,7,8,desert_4,1,memory-2step-stake-s,710,3396368,0.0-19.0-0.1-0.219,AZ69TBTDH7AZS,3X4Q1O9UCK2WXV8VOBT8MFKQE0B7O9,3F0BG9B9MT3BDSARK078DQEFMOZY71,2,1
220,4,object_01,object_08,497.30000001192,8,2,1299.599999994,0.7777777777777778,2,object_06,5,2496,0,5,7,restaurant_4,1,memory-2step-stake-s,711,3405639,0.0-19.0-0.1-0.220,AZ69TBTDH7AZS,3X4Q1O9UCK2WXV8VOBT8MFKQE0B7O9,3F0BG9B9MT3BDSARK078DQEFMOZY71,7,8
221,4,object_08,object_01,568.89999997616,7,2,462.19999998808,0.4444444444444444,1,object_05,5,2516,0,4,9,restaurant_4,1,memory-2step-stake-s,712,3413761,0.0-19.0-0.1-0.221,AZ69TBTDH7AZS,3X4Q1O9UCK2WXV8VOBT8MFKQE0B7O9,3F0BG9B9MT3BDSARK078DQEFMOZY71,8,7
222,3,object_07,object_10,406.90000000596,6,2,553.60000002384,1.0,2,object_06,5,2561,0,4,9,library_3,1,memory-2step-stake-s,713,3422490,0.0-19.0-0.1-0.222,AZ69TBTDH7AZS,3X4Q1O9UCK2WXV8VOBT8MFKQE0B7O9,3F0BG9B9MT3BDSARK078DQEFMOZY71,5,6
223,3,object_10,object_07,468.5,5,2,353.90000000596,0.8888888888888888,1,object_05,5,2601,0,8,8,library_8,1,memory-2step-stake-s,714,3430929,0.0-19.0-0.1-0.223,AZ69TBTDH7AZS,3X4Q1O9UCK2WXV8VOBT8MFKQE0B7O9,3F0BG9B9MT3BDSARK078DQEFMOZY71,6,5
224,2,object_02,object_09,503.29999998212,3,2,403.59999999404,0.7777777777777778,1,object_05,1,2608,0,7,7,forest_4,1,memory-2step-stake-s,715,3439297,0.0-19.0-0.1-0.224,AZ69TBTDH7AZS,3X4Q1O9UCK2WXV8VOBT8MFKQE0B7O9,3F0BG9B9MT3BDSARK078DQEFMOZY71,4,3
225,4,object_01,object_08,472.5,7,1,328.20000001788,0.7777777777777778,1,object_05,5,2643,0,7,8,restaurant_5,1,memory-2step-stake-s,716,3447596,0.0-19.0-0.1-0.225,AZ69TBTDH7AZS,3X4Q1O9UCK2WXV8VOBT8MFKQE0B7O9,3F0BG9B9MT3BDSARK078DQEFMOZY71,7,8
226,2,object_09,object_02,630.09999999404,4,2,1171.6999999881,0.6666666666666666,2,object_06,1,2649,0,7,6,forest_4,1,memory-2step-stake-s,717,3456635,0.0-19.0-0.1-0.226,AZ69TBTDH7AZS,3X4Q1O9UCK2WXV8VOBT8MFKQE0B7O9,3F0BG9B9MT3BDSARK078DQEFMOZY71,3,4
227,2,object_02,object_09,786.80000001192,4,1,546.09999999404,0.2222222222222222,2,object_06,1,2651,0,6,2,forest_1,1,memory-2step-stake-s,718,3464628,0.0-19.0-0.1-0.227,AZ69TBTDH7AZS,3X4Q1O9UCK2WXV8VOBT8MFKQE0B7O9,3F0BG9B9MT3BDSARK078DQEFMOZY71,4,3
228,1,object_03,object_04,808.80000001192,2,1,620.70000001788,0.1111111111111111,2,object_06,1,2652,0,2,1,desert_4,1,memory-2step-stake-s,719,3472590,0.0-19.0-0.1-0.228,AZ69TBTDH7AZS,3X4Q1O9UCK2WXV8VOBT8MFKQE0B7O9,3F0BG9B9MT3BDSARK078DQEFMOZY71,2,1
229,3,object_10,object_07,544.69999998808,5,2,718.0,0.2222222222222222,1,object_05,5,2662,0,2,3,library_4,1,memory-2step-stake-s,720,3480769,0.0-19.0-0.1-0.229,AZ69TBTDH7AZS,3X4Q1O9UCK2WXV8VOBT8MFKQE0B7O9,3F0BG9B9MT3BDSARK078DQEFMOZY71,6,5
230,2,object_09,object_02,909.90000000596,3,1,1379.599999994,0.1111111111111111,1,object_05,5,2667,0,1,4,forest_2,1,memory-2step-stake-s,721,3489490,0.0-19.0-0.1-0.230,AZ69TBTDH7AZS,3X4Q1O9UCK2WXV8VOBT8MFKQE0B7O9,3F0BG9B9MT3BDSARK078DQEFMOZY71,3,4
231,1,object_04,object_03,554.69999998808,2,2,1012.599999994,0.7777777777777778,2,object_06,1,2674,0,1,7,desert_7,1,memory-2step-stake-s,722,3498485,0.0-19.0-0.1-0.231,AZ69TBTDH7AZS,3X4Q1O9UCK2WXV8VOBT8MFKQE0B7O9,3F0BG9B9MT3BDSARK078DQEFMOZY71,1,2
232,1,object_04,object_03,570.59999999404,2,2,969.10000002384,0.7777777777777778,2,object_06,1,2681,0,1,7,desert_4,1,memory-2step-stake-s,723,3507431,0.0-19.0-0.1-0.232,AZ69TBTDH7AZS,3X4Q1O9UCK2WXV8VOBT8MFKQE0B7O9,3F0BG9B9MT3BDSARK078DQEFMOZY71,1,2
233,4,object_01,object_08,549.90000000596,7,1,1036.900000006,0.4444444444444444,1,object_05,5,2701,0,4,6,restaurant_8,1,memory-2step-stake-s,724,3516132,0.0-19.0-0.1-0.233,AZ69TBTDH7AZS,3X4Q1O9UCK2WXV8VOBT8MFKQE0B7O9,3F0BG9B9MT3BDSARK078DQEFMOZY71,7,8
234,1,object_03,object_04,1332.900000006,1,2,937.30000001192,0.3333333333333333,1,object_05,1,2704,0,3,8,desert_4,1,memory-2step-stake-s,725,3524630,0.0-19.0-0.1-0.234,AZ69TBTDH7AZS,3X4Q1O9UCK2WXV8VOBT8MFKQE0B7O9,3F0BG9B9MT3BDSARK078DQEFMOZY71,2,1
235,1,object_04,object_03,812.40000000596,1,1,306.70000001788,0.2222222222222222,1,object_05,5,2714,0,2,8,desert_1,1,memory-2step-stake-s,726,3532391,0.0-19.0-0.1-0.235,AZ69TBTDH7AZS,3X4Q1O9UCK2WXV8VOBT8MFKQE0B7O9,3F0BG9B9MT3BDSARK078DQEFMOZY71,1,2
236,3,object_07,object_10,474.69999998808,6,2,698.69999998808,0.5555555555555556,2,object_06,5,2739,0,2,5,library_3,1,memory-2step-stake-s,727,3540855,0.0-19.0-0.1-0.236,AZ69TBTDH7AZS,3X4Q1O9UCK2WXV8VOBT8MFKQE0B7O9,3F0BG9B9MT3BDSARK078DQEFMOZY71,5,6
237,1,object_03,object_04,500.40000000596,2,1,576.70000001788,0.7777777777777778,2,object_06,1,2746,0,2,7,desert_2,1,memory-2step-stake-s,728,3549407,0.0-19.0-0.1-0.237,AZ69TBTDH7AZS,3X4Q1O9UCK2WXV8VOBT8MFKQE0B7O9,3F0BG9B9MT3BDSARK078DQEFMOZY71,2,1
238,1,object_03,object_04,491.19999998808,1,2,318.09999999404,0.1111111111111111,1,object_05,5,2751,0,1,8,desert_2,1,memory-2step-stake-s,729,3557076,0.0-19.0-0.1-0.238,AZ69TBTDH7AZS,3X4Q1O9UCK2WXV8VOBT8MFKQE0B7O9,3F0BG9B9MT3BDSARK078DQEFMOZY71,2,1
239,1,object_04,object_03,677.10000002384,2,2,1274.1000000238,0.7777777777777778,2,object_06,1,2758,0,1,7,desert_2,1,memory-2step-stake-s,730,3566317,0.0-19.0-0.1-0.239,AZ69TBTDH7AZS,3X4Q1O9UCK2WXV8VOBT8MFKQE0B7O9,3F0BG9B9MT3BDSARK078DQEFMOZY71,1,2
240,2,object_02,object_09,1138.7999999821,3,2,824.40000000596,0.2222222222222222,1,object_05,1,2760,0,2,9,forest_8,1,memory-2step-stake-s,731,3574600,0.0-19.0-0.1-0.240,AZ69TBTDH7AZS,3X4Q1O9UCK2WXV8VOBT8MFKQE0B7O9,3F0BG9B9MT3BDSARK078DQEFMOZY71,4,3
241,2,object_02,object_09,522.89999997616,4,1,375.70000001788,0.5555555555555556,2,object_06,1,2765,0,2,5,forest_1,1,memory-2step-stake-s,732,3582742,0.0-19.0-0.1-0.241,AZ69TBTDH7AZS,3X4Q1O9UCK2WXV8VOBT8MFKQE0B7O9,3F0BG9B9MT3BDSARK078DQEFMOZY71,4,3
242,4,object_01,object_08,604.59999999404,7,1,487.5,0.2222222222222222,1,object_05,5,2775,0,2,4,restaurant_3,1,memory-2step-stake-s,733,3590683,0.0-19.0-0.1-0.242,AZ69TBTDH7AZS,3X4Q1O9UCK2WXV8VOBT8MFKQE0B7O9,3F0BG9B9MT3BDSARK078DQEFMOZY71,7,8
243,2,object_09,object_02,1263.3000000119,4,2,349.09999999404,0.6666666666666666,2,object_06,1,2781,0,4,6,forest_8,1,memory-2step-stake-s,734,3598903,0.0-19.0-0.1-0.243,AZ69TBTDH7AZS,3X4Q1O9UCK2WXV8VOBT8MFKQE0B7O9,3F0BG9B9MT3BDSARK078DQEFMOZY71,3,4
244,4,object_08,object_01,866.70000001788,7,2,595.39999997616,0.6666666666666666,1,object_05,5,2811,0,6,9,restaurant_4,1,memory-2step-stake-s,735,3607375,0.0-19.0-0.1-0.244,AZ69TBTDH7AZS,3X4Q1O9UCK2WXV8VOBT8MFKQE0B7O9,3F0BG9B9MT3BDSARK078DQEFMOZY71,8,7
245,3,object_10,object_07,539.0,5,2,317.19999998808,0.4444444444444444,1,object_05,5,2831,0,4,7,library_8,1,memory-2step-stake-s,736,3615356,0.0-19.0-0.1-0.245,AZ69TBTDH7AZS,3X4Q1O9UCK2WXV8VOBT8MFKQE0B7O9,3F0BG9B9MT3BDSARK078DQEFMOZY71,6,5
246,3,object_07,object_10,530.80000001192,5,1,382.69999998808,0.7777777777777778,1,object_05,5,2866,0,7,8,library_3,1,memory-2step-stake-s,737,3623715,0.0-19.0-0.1-0.246,AZ69TBTDH7AZS,3X4Q1O9UCK2WXV8VOBT8MFKQE0B7O9,3F0BG9B9MT3BDSARK078DQEFMOZY71,5,6
247,3,object_10,object_07,-1.0,-1,-1,-1.0,0.0,-,0,5,2866,0,6,9,library_3,1,memory-2step-stake-s,738,3630252,0.0-19.0-0.1-0.247,AZ69TBTDH7AZS,3X4Q1O9UCK2WXV8VOBT8MFKQE0B7O9,3F0BG9B9MT3BDSARK078DQEFMOZY71,6,5
248,3,object_10,object_07,464.19999998808,5,2,438.0,0.7777777777777778,1,object_05,5,2901,0,7,5,library_8,1,memory-2step-stake-s,739,3638669,0.0-19.0-0.1-0.248,AZ69TBTDH7AZS,3X4Q1O9UCK2WXV8VOBT8MFKQE0B7O9,3F0BG9B9MT3BDSARK078DQEFMOZY71,6,5
249,4,object_01,object_08,547.39999997616,8,2,491.80000001192,0.5555555555555556,2,object_06,5,2926,0,9,5,restaurant_5,1,memory-2step-stake-s,740,3646923,0.0-19.0-0.1-0.249,AZ69TBTDH7AZS,3X4Q1O9UCK2WXV8VOBT8MFKQE0B7O9,3F0BG9B9MT3BDSARK078DQEFMOZY71,7,8
250,2,object_02,object_09,524.10000002384,3,2,954.40000000596,0.8888888888888888,1,object_05,1,2934,0,8,5,forest_4,1,memory-2step-stake-s,741,3655956,0.0-19.0-0.1-0.250,AZ69TBTDH7AZS,3X4Q1O9UCK2WXV8VOBT8MFKQE0B7O9,3F0BG9B9MT3BDSARK078DQEFMOZY71,4,3
251,3,object_07,object_10,482.90000000596,5,1,781.0,0.8888888888888888,1,object_05,5,2974,0,8,7,library_3,1,memory-2step-stake-s,742,3664817,0.0-19.0-0.1-0.251,AZ69TBTDH7AZS,3X4Q1O9UCK2WXV8VOBT8MFKQE0B7O9,3F0BG9B9MT3BDSARK078DQEFMOZY71,5,6
252,1,object_04,object_03,447.19999998808,2,2,789.90000000596,1.0,2,object_06,1,2983,0,9,9,desert_7,1,memory-2step-stake-s,743,3673794,0.0-19.0-0.1-0.252,AZ69TBTDH7AZS,3X4Q1O9UCK2WXV8VOBT8MFKQE0B7O9,3F0BG9B9MT3BDSARK078DQEFMOZY71,1,2
253,2,object_02,object_09,1102.099999994,4,1,408.39999997616,0.8888888888888888,2,object_06,1,2991,0,7,8,forest_8,1,memory-2step-stake-s,744,3682286,0.0-19.0-0.1-0.253,AZ69TBTDH7AZS,3X4Q1O9UCK2WXV8VOBT8MFKQE0B7O9,3F0BG9B9MT3BDSARK078DQEFMOZY71,4,3
254,4,object_01,object_08,621.69999998808,7,1,370.69999998808,0.6666666666666666,1,object_05,5,3021,0,6,8,restaurant_5,1,memory-2step-stake-s,745,3690529,0.0-19.0-0.1-0.254,AZ69TBTDH7AZS,3X4Q1O9UCK2WXV8VOBT8MFKQE0B7O9,3F0BG9B9MT3BDSARK078DQEFMOZY71,7,8
255,1,object_04,object_03,955.29999998212,2,2,432.5,0.8888888888888888,2,object_06,1,3029,0,9,8,desert_4,1,memory-2step-stake-s,746,3699045,0.0-19.0-0.1-0.255,AZ69TBTDH7AZS,3X4Q1O9UCK2WXV8VOBT8MFKQE0B7O9,3F0BG9B9MT3BDSARK078DQEFMOZY71,1,2
