,state1,stim_left,stim_right,rt_1,choice1,response1,rt_2,points,state2,stim_state2,stake,score,practice,rews1,rews2,background,high_arm,trial_type,trial_index,time_elapsed,internal_node_id,subid,hitid,assignmentid,stim_left_num,stim_right_num
0,4,object_08,object_02,-1.0,-1,-1,-1.0,0.0,-,0,1,0,0,8,1,restaurant_7,2,memory-2step-stake-s,512,3772848,0.0-19.0-0.0-0.0,AGILQEFEPEK7N,3MQKOF1EF54KJDI76AN431783D3WDT,3ZY8KE4ISNJ4FGK1BOTU6IRG9VPQVE,7,8
1,3,object_09,object_06,831.79999999888,5,2,-1.0,0.0,1,object_05,1,0,0,8,2,library_4,2,memory-2step-stake-s,513,3781424,0.0-19.0-0.0-0.1,AGILQEFEPEK7N,3MQKOF1EF54KJDI76AN431783D3WDT,3ZY8KE4ISNJ4FGK1BOTU6IRG9VPQVE,6,5
2,3,object_09,object_06,619.90000000037,5,2,800.80000000075,0.7777777777777778,1,object_05,5,35,0,7,2,library_8,2,memory-2step-stake-s,514,3790302,0.0-19.0-0.0-0.2,AGILQEFEPEK7N,3MQKOF1EF54KJDI76AN431783D3WDT,3ZY8KE4ISNJ4FGK1BOTU6IRG9VPQVE,6,5
3,3,object_09,object_06,536.70000000112,5,2,570.90000000037,0.6666666666666666,1,object_05,1,41,0,6,4,library_3,2,memory-2step-stake-s,515,3798781,0.0-19.0-0.0-0.3,AGILQEFEPEK7N,3MQKOF1EF54KJDI76AN431783D3WDT,3ZY8KE4ISNJ4FGK1BOTU6IRG9VPQVE,6,5
4,4,object_02,object_08,1063.4000000004,7,2,725.29999999888,0.8888888888888888,1,object_05,1,49,0,8,4,restaurant_2,2,memory-2step-stake-s,516,3807634,0.0-19.0-0.0-0.4,AGILQEFEPEK7N,3MQKOF1EF54KJDI76AN431783D3WDT,3ZY8KE4ISNJ4FGK1BOTU6IRG9VPQVE,8,7
5,3,object_06,object_09,816.90000000037,6,2,721.90000000037,0.3333333333333333,2,object_03,5,64,0,8,3,library_5,2,memory-2step-stake-s,517,3815932,0.0-19.0-0.0-0.5,AGILQEFEPEK7N,3MQKOF1EF54KJDI76AN431783D3WDT,3ZY8KE4ISNJ4FGK1BOTU6IRG9VPQVE,5,6
6,4,object_08,object_02,1201.9000000004,7,1,869.89999999851,0.8888888888888888,1,object_05,1,72,0,8,7,restaurant_5,2,memory-2step-stake-s,518,3824917,0.0-19.0-0.0-0.6,AGILQEFEPEK7N,3MQKOF1EF54KJDI76AN431783D3WDT,3ZY8KE4ISNJ4FGK1BOTU6IRG9VPQVE,7,8
7,3,object_09,object_06,636.79999999888,5,2,490.5,0.7777777777777778,1,object_05,1,79,0,7,7,library_3,2,memory-2step-stake-s,519,3833470,0.0-19.0-0.0-0.7,AGILQEFEPEK7N,3MQKOF1EF54KJDI76AN431783D3WDT,3ZY8KE4ISNJ4FGK1BOTU6IRG9VPQVE,6,5
8,4,object_08,object_02,-1.0,-1,-1,-1.0,0.0,-,0,1,79,0,9,7,restaurant_5,2,memory-2step-stake-s,520,3840037,0.0-19.0-0.0-0.8,AGILQEFEPEK7N,3MQKOF1EF54KJDI76AN431783D3WDT,3ZY8KE4ISNJ4FGK1BOTU6IRG9VPQVE,7,8
9,4,object_08,object_02,508.29999999888,7,1,373.69999999925,0.6666666666666666,1,object_05,1,85,0,6,5,restaurant_2,2,memory-2step-stake-s,521,3848308,0.0-19.0-0.0-0.9,AGILQEFEPEK7N,3MQKOF1EF54KJDI76AN431783D3WDT,3ZY8KE4ISNJ4FGK1BOTU6IRG9VPQVE,7,8
10,4,object_08,object_02,598.80000000075,7,1,385.80000000075,0.5555555555555556,1,object_05,1,90,0,5,6,restaurant_2,2,memory-2step-stake-s,522,3856522,0.0-19.0-0.0-0.10,AGILQEFEPEK7N,3MQKOF1EF54KJDI76AN431783D3WDT,3ZY8KE4ISNJ4FGK1BOTU6IRG9VPQVE,7,8
11,2,object_07,object_04,641.70000000112,3,1,483.39999999851,0.5555555555555556,1,object_05,5,115,0,5,8,forest_4,2,memory-2step-stake-s,523,3864806,0.0-19.0-0.0-0.11,AGILQEFEPEK7N,3MQKOF1EF54KJDI76AN431783D3WDT,3ZY8KE4ISNJ4FGK1BOTU6IRG9VPQVE,3,4
12,3,object_06,object_09,538.19999999925,6,2,416.80000000075,0.8888888888888888,2,object_03,1,123,0,7,8,library_4,2,memory-2step-stake-s,524,3873360,0.0-19.0-0.0-0.12,AGILQEFEPEK7N,3MQKOF1EF54KJDI76AN431783D3WDT,3ZY8KE4ISNJ4FGK1BOTU6IRG9VPQVE,5,6
13,3,object_09,object_06,416.39999999851,5,2,404.5,0.8888888888888888,1,object_05,5,163,0,8,8,library_4,2,memory-2step-stake-s,525,3881903,0.0-19.0-0.0-0.13,AGILQEFEPEK7N,3MQKOF1EF54KJDI76AN431783D3WDT,3ZY8KE4ISNJ4FGK1BOTU6IRG9VPQVE,6,5
14,2,object_04,object_07,374.80000000075,4,1,440.69999999925,0.4444444444444444,2,object_03,5,183,0,9,4,forest_5,2,memory-2step-stake-s,526,3890052,0.0-19.0-0.0-0.14,AGILQEFEPEK7N,3MQKOF1EF54KJDI76AN431783D3WDT,3ZY8KE4ISNJ4FGK1BOTU6IRG9VPQVE,4,3
15,3,object_09,object_06,374.5,6,1,657.20000000112,0.5555555555555556,2,object_03,1,188,0,7,5,library_3,2,memory-2step-stake-s,527,3898541,0.0-19.0-0.0-0.15,AGILQEFEPEK7N,3MQKOF1EF54KJDI76AN431783D3WDT,3ZY8KE4ISNJ4FGK1BOTU6IRG9VPQVE,6,5
16,4,object_02,object_08,295.69999999925,7,2,474.69999999925,0.2222222222222222,1,object_05,1,190,0,2,5,restaurant_7,2,memory-2step-stake-s,528,3906518,0.0-19.0-0.0-0.16,AGILQEFEPEK7N,3MQKOF1EF54KJDI76AN431783D3WDT,3ZY8KE4ISNJ4FGK1BOTU6IRG9VPQVE,8,7
17,4,object_08,object_02,21.599999999627,7,1,154.70000000112,0.3333333333333333,1,object_05,5,205,0,3,4,restaurant_4,2,memory-2step-stake-s,529,3914266,0.0-19.0-0.0-0.17,AGILQEFEPEK7N,3MQKOF1EF54KJDI76AN431783D3WDT,3ZY8KE4ISNJ4FGK1BOTU6IRG9VPQVE,7,8
18,4,object_08,object_02,781.20000000112,8,2,738.80000000075,0.4444444444444444,2,object_03,1,209,0,7,4,restaurant_4,2,memory-2step-stake-s,530,3922701,0.0-19.0-0.0-0.18,AGILQEFEPEK7N,3MQKOF1EF54KJDI76AN431783D3WDT,3ZY8KE4ISNJ4FGK1BOTU6IRG9VPQVE,7,8
19,2,object_07,object_04,315.09999999963,4,2,1509.0,0.4444444444444444,2,object_03,5,229,0,6,4,forest_5,2,memory-2step-stake-s,531,3931926,0.0-19.0-0.0-0.19,AGILQEFEPEK7N,3MQKOF1EF54KJDI76AN431783D3WDT,3ZY8KE4ISNJ4FGK1BOTU6IRG9VPQVE,3,4
20,2,object_07,object_04,373.80000000075,4,2,704.5,0.5555555555555556,2,object_03,5,254,0,8,5,forest_3,2,memory-2step-stake-s,532,3940460,0.0-19.0-0.0-0.20,AGILQEFEPEK7N,3MQKOF1EF54KJDI76AN431783D3WDT,3ZY8KE4ISNJ4FGK1BOTU6IRG9VPQVE,3,4
21,1,object_10,object_01,86.0,1,2,897.59999999963,0.7777777777777778,1,object_05,1,261,0,7,6,desert_3,2,memory-2step-stake-s,533,3949382,0.0-19.0-0.0-0.21,AGILQEFEPEK7N,3MQKOF1EF54KJDI76AN431783D3WDT,3ZY8KE4ISNJ4FGK1BOTU6IRG9VPQVE,2,1
22,2,object_04,object_07,494.30000000075,3,2,398.59999999963,0.8888888888888888,1,object_05,5,301,0,8,4,forest_5,2,memory-2step-stake-s,534,3957921,0.0-19.0-0.0-0.22,AGILQEFEPEK7N,3MQKOF1EF54KJDI76AN431783D3WDT,3ZY8KE4ISNJ4FGK1BOTU6IRG9VPQVE,4,3
23,1,object_10,object_01,279.30000000075,1,2,499.0,0.7777777777777778,1,object_05,5,336,0,7,8,desert_4,2,memory-2step-stake-s,535,3966436,0.0-19.0-0.0-0.23,AGILQEFEPEK7N,3MQKOF1EF54KJDI76AN431783D3WDT,3ZY8KE4ISNJ4FGK1BOTU6IRG9VPQVE,2,1
24,3,object_09,object_06,917.30000000075,5,2,30.400000000373,0.6666666666666666,1,object_05,1,342,0,6,7,library_4,2,memory-2step-stake-s,536,3974409,0.0-19.0-0.0-0.24,AGILQEFEPEK7N,3MQKOF1EF54KJDI76AN431783D3WDT,3ZY8KE4ISNJ4FGK1BOTU6IRG9VPQVE,6,5
25,4,object_02,object_08,82.599999999627,8,1,370.40000000037,0.5555555555555556,2,object_03,1,347,0,5,5,restaurant_7,2,memory-2step-stake-s,537,3982586,0.0-19.0-0.0-0.25,AGILQEFEPEK7N,3MQKOF1EF54KJDI76AN431783D3WDT,3ZY8KE4ISNJ4FGK1BOTU6IRG9VPQVE,8,7
26,3,object_06,object_09,462.0,6,2,1041.8000000007,0.5555555555555556,2,object_03,1,352,0,7,5,library_4,2,memory-2step-stake-s,538,3991441,0.0-19.0-0.0-0.26,AGILQEFEPEK7N,3MQKOF1EF54KJDI76AN431783D3WDT,3ZY8KE4ISNJ4FGK1BOTU6IRG9VPQVE,5,6
27,4,object_02,object_08,966.90000000037,7,2,769.60000000149,0.5555555555555556,1,object_05,1,357,0,5,9,restaurant_2,2,memory-2step-stake-s,539,4000060,0.0-19.0-0.0-0.27,AGILQEFEPEK7N,3MQKOF1EF54KJDI76AN431783D3WDT,3ZY8KE4ISNJ4FGK1BOTU6IRG9VPQVE,8,7
28,1,object_10,object_01,710.5,2,1,446.09999999963,0.8888888888888888,2,object_03,5,397,0,5,8,desert_3,2,memory-2step-stake-s,540,4008673,0.0-19.0-0.0-0.28,AGILQEFEPEK7N,3MQKOF1EF54KJDI76AN431783D3WDT,3ZY8KE4ISNJ4FGK1BOTU6IRG9VPQVE,2,1
29,1,object_01,object_10,766.69999999925,1,1,613.29999999888,0.4444444444444444,1,object_05,5,417,0,4,7,desert_3,2,memory-2step-stake-s,541,4016996,0.0-19.0-0.0-0.29,AGILQEFEPEK7N,3MQKOF1EF54KJDI76AN431783D3WDT,3ZY8KE4ISNJ4FGK1BOTU6IRG9VPQVE,1,2
30,2,object_07,object_04,861.19999999925,3,1,640.40000000037,0.7777777777777778,1,object_05,5,452,0,7,8,forest_3,2,memory-2step-stake-s,542,4025649,0.0-19.0-0.0-0.30,AGILQEFEPEK7N,3MQKOF1EF54KJDI76AN431783D3WDT,3ZY8KE4ISNJ4FGK1BOTU6IRG9VPQVE,3,4
31,1,object_10,object_01,375.5,1,2,439.29999999888,0.4444444444444444,1,object_05,5,472,0,4,7,desert_8,2,memory-2step-stake-s,543,4033770,0.0-19.0-0.0-0.31,AGILQEFEPEK7N,3MQKOF1EF54KJDI76AN431783D3WDT,3ZY8KE4ISNJ4FGK1BOTU6IRG9VPQVE,2,1
32,2,object_04,object_07,314.69999999925,4,1,485.10000000149,0.7777777777777778,2,object_03,5,507,0,6,7,forest_7,2,memory-2step-stake-s,544,4042296,0.0-19.0-0.0-0.32,AGILQEFEPEK7N,3MQKOF1EF54KJDI76AN431783D3WDT,3ZY8KE4ISNJ4FGK1BOTU6IRG9VPQVE,4,3
33,4,object_08,object_02,1309.0999999996,7,1,843.29999999888,0.6666666666666666,1,object_05,1,513,0,6,5,restaurant_5,2,memory-2step-stake-s,545,4051070,0.0-19.0-0.0-0.33,AGILQEFEPEK7N,3MQKOF1EF54KJDI76AN431783D3WDT,3ZY8KE4ISNJ4FGK1BOTU6IRG9VPQVE,7,8
34,1,object_10,object_01,54.700000001118,1,2,1000.0999999996,0.7777777777777778,1,object_05,5,548,0,7,7,desert_3,2,memory-2step-stake-s,546,4060080,0.0-19.0-0.0-0.34,AGILQEFEPEK7N,3MQKOF1EF54KJDI76AN431783D3WDT,3ZY8KE4ISNJ4FGK1BOTU6IRG9VPQVE,2,1
35,4,object_08,object_02,710.19999999925,7,1,626.89999999851,0.7777777777777778,1,object_05,1,555,0,7,8,restaurant_4,2,memory-2step-stake-s,547,4068734,0.0-19.0-0.0-0.35,AGILQEFEPEK7N,3MQKOF1EF54KJDI76AN431783D3WDT,3ZY8KE4ISNJ4FGK1BOTU6IRG9VPQVE,7,8
36,2,object_07,object_04,477.69999999925,4,2,473.69999999925,0.8888888888888888,2,object_03,5,595,0,5,8,forest_3,2,memory-2step-stake-s,548,4077330,0.0-19.0-0.0-0.36,AGILQEFEPEK7N,3MQKOF1EF54KJDI76AN431783D3WDT,3ZY8KE4ISNJ4FGK1BOTU6IRG9VPQVE,3,4
37,3,object_06,object_09,471.09999999963,5,1,639.0,0.3333333333333333,1,object_05,1,598,0,3,6,library_8,2,memory-2step-stake-s,549,4085598,0.0-19.0-0.0-0.37,AGILQEFEPEK7N,3MQKOF1EF54KJDI76AN431783D3WDT,3ZY8KE4ISNJ4FGK1BOTU6IRG9VPQVE,5,6
38,3,object_06,object_09,352.80000000075,6,2,542.40000000037,0.5555555555555556,2,object_03,1,603,0,5,5,library_3,2,memory-2step-stake-s,550,4093924,0.0-19.0-0.0-0.38,AGILQEFEPEK7N,3MQKOF1EF54KJDI76AN431783D3WDT,3ZY8KE4ISNJ4FGK1BOTU6IRG9VPQVE,5,6
39,4,object_08,object_02,307.69999999925,7,1,538.30000000075,0.3333333333333333,1,object_05,1,606,0,3,3,restaurant_7,2,memory-2step-stake-s,551,4102040,0.0-19.0-0.0-0.39,AGILQEFEPEK7N,3MQKOF1EF54KJDI76AN431783D3WDT,3ZY8KE4ISNJ4FGK1BOTU6IRG9VPQVE,7,8
40,3,object_09,object_06,692.09999999963,5,2,540.59999999963,0.4444444444444444,1,object_05,5,626,0,4,0,library_5,2,memory-2step-stake-s,552,4110278,0.0-19.0-0.0-0.40,AGILQEFEPEK7N,3MQKOF1EF54KJDI76AN431783D3WDT,3ZY8KE4ISNJ4FGK1BOTU6IRG9VPQVE,6,5
41,2,object_07,object_04,1118.9000000004,3,1,782.09999999963,0.6666666666666666,1,object_05,5,656,0,6,5,forest_4,2,memory-2step-stake-s,553,4119019,0.0-19.0-0.0-0.41,AGILQEFEPEK7N,3MQKOF1EF54KJDI76AN431783D3WDT,3ZY8KE4ISNJ4FGK1BOTU6IRG9VPQVE,3,4
42,2,object_04,object_07,853.09999999963,3,2,441.5,0.6666666666666666,1,object_05,5,686,0,6,5,forest_7,2,memory-2step-stake-s,554,4127390,0.0-19.0-0.0-0.42,AGILQEFEPEK7N,3MQKOF1EF54KJDI76AN431783D3WDT,3ZY8KE4ISNJ4FGK1BOTU6IRG9VPQVE,4,3
43,1,object_01,object_10,1032.3999999985,1,1,1005.9000000004,0.7777777777777778,1,object_05,5,721,0,7,4,desert_4,2,memory-2step-stake-s,555,4136410,0.0-19.0-0.0-0.43,AGILQEFEPEK7N,3MQKOF1EF54KJDI76AN431783D3WDT,3ZY8KE4ISNJ4FGK1BOTU6IRG9VPQVE,1,2
44,1,object_10,object_01,772.59999999963,1,2,726.5,0.8888888888888888,1,object_05,5,761,0,8,1,desert_3,2,memory-2step-stake-s,556,4145263,0.0-19.0-0.0-0.44,AGILQEFEPEK7N,3MQKOF1EF54KJDI76AN431783D3WDT,3ZY8KE4ISNJ4FGK1BOTU6IRG9VPQVE,2,1
45,2,object_07,object_04,739.90000000037,3,1,618.0,0.5555555555555556,1,object_05,5,786,0,5,0,forest_7,2,memory-2step-stake-s,557,4153695,0.0-19.0-0.0-0.45,AGILQEFEPEK7N,3MQKOF1EF54KJDI76AN431783D3WDT,3ZY8KE4ISNJ4FGK1BOTU6IRG9VPQVE,3,4
46,1,object_01,object_10,729.80000000075,1,1,743.30000000075,0.5555555555555556,1,object_05,5,811,0,5,1,desert_5,2,memory-2step-stake-s,558,4162261,0.0-19.0-0.0-0.46,AGILQEFEPEK7N,3MQKOF1EF54KJDI76AN431783D3WDT,3ZY8KE4ISNJ4FGK1BOTU6IRG9VPQVE,1,2
47,4,object_08,object_02,668.09999999963,7,1,506.80000000075,0.6666666666666666,1,object_05,1,817,0,6,2,restaurant_2,2,memory-2step-stake-s,559,4170696,0.0-19.0-0.0-0.47,AGILQEFEPEK7N,3MQKOF1EF54KJDI76AN431783D3WDT,3ZY8KE4ISNJ4FGK1BOTU6IRG9VPQVE,7,8
48,2,object_07,object_04,718.0,3,1,520.90000000037,0.8888888888888888,1,object_05,1,825,0,8,1,forest_4,2,memory-2step-stake-s,560,4179345,0.0-19.0-0.0-0.48,AGILQEFEPEK7N,3MQKOF1EF54KJDI76AN431783D3WDT,3ZY8KE4ISNJ4FGK1BOTU6IRG9VPQVE,3,4
49,1,object_10,object_01,838.40000000037,1,2,1217.8999999985,0.8888888888888888,1,object_05,5,865,0,8,1,desert_5,2,memory-2step-stake-s,561,4188708,0.0-19.0-0.0-0.49,AGILQEFEPEK7N,3MQKOF1EF54KJDI76AN431783D3WDT,3ZY8KE4ISNJ4FGK1BOTU6IRG9VPQVE,2,1
50,2,object_04,object_07,683.5,3,2,510.90000000037,0.8888888888888888,1,object_05,5,905,0,8,1,forest_7,2,memory-2step-stake-s,562,4197391,0.0-19.0-0.0-0.50,AGILQEFEPEK7N,3MQKOF1EF54KJDI76AN431783D3WDT,3ZY8KE4ISNJ4FGK1BOTU6IRG9VPQVE,4,3
51,1,object_10,object_01,860.09999999963,1,2,740.10000000149,1.0,1,object_05,1,914,0,9,1,desert_8,2,memory-2step-stake-s,563,4206376,0.0-19.0-0.0-0.51,AGILQEFEPEK7N,3MQKOF1EF54KJDI76AN431783D3WDT,3ZY8KE4ISNJ4FGK1BOTU6IRG9VPQVE,2,1
52,2,object_04,object_07,750.40000000037,3,2,1128.4000000004,0.5555555555555556,1,object_05,1,919,0,5,0,forest_7,2,memory-2step-stake-s,564,4215321,0.0-19.0-0.0-0.52,AGILQEFEPEK7N,3MQKOF1EF54KJDI76AN431783D3WDT,3ZY8KE4ISNJ4FGK1BOTU6IRG9VPQVE,4,3
53,2,object_04,object_07,656.69999999925,3,2,553.59999999963,0.4444444444444444,1,object_05,5,939,0,4,0,forest_4,2,memory-2step-stake-s,565,4223552,0.0-19.0-0.0-0.53,AGILQEFEPEK7N,3MQKOF1EF54KJDI76AN431783D3WDT,3ZY8KE4ISNJ4FGK1BOTU6IRG9VPQVE,4,3
54,4,object_02,object_08,1188.9000000004,7,2,799.30000000075,0.4444444444444444,1,object_05,1,943,0,4,0,restaurant_7,2,memory-2step-stake-s,566,4232070,0.0-19.0-0.0-0.54,AGILQEFEPEK7N,3MQKOF1EF54KJDI76AN431783D3WDT,3ZY8KE4ISNJ4FGK1BOTU6IRG9VPQVE,8,7
55,2,object_04,object_07,588.5,3,2,1070.4000000004,0.6666666666666666,1,object_05,5,973,0,6,1,forest_4,2,memory-2step-stake-s,567,4241073,0.0-19.0-0.0-0.55,AGILQEFEPEK7N,3MQKOF1EF54KJDI76AN431783D3WDT,3ZY8KE4ISNJ4FGK1BOTU6IRG9VPQVE,4,3
56,3,object_09,object_06,703.80000000075,5,2,603.79999999888,0.4444444444444444,1,object_05,1,977,0,4,1,library_4,2,memory-2step-stake-s,568,4249389,0.0-19.0-0.0-0.56,AGILQEFEPEK7N,3MQKOF1EF54KJDI76AN431783D3WDT,3ZY8KE4ISNJ4FGK1BOTU6IRG9VPQVE,6,5
57,2,object_07,object_04,763.80000000075,3,1,690.09999999963,0.5555555555555556,1,object_05,5,1002,0,5,5,forest_4,2,memory-2step-stake-s,569,4257881,0.0-19.0-0.0-0.57,AGILQEFEPEK7N,3MQKOF1EF54KJDI76AN431783D3WDT,3ZY8KE4ISNJ4FGK1BOTU6IRG9VPQVE,3,4
58,3,object_06,object_09,702.20000000112,5,1,695.5,0.8888888888888888,1,object_05,1,1010,0,8,4,library_4,2,memory-2step-stake-s,570,4266692,0.0-19.0-0.0-0.58,AGILQEFEPEK7N,3MQKOF1EF54KJDI76AN431783D3WDT,3ZY8KE4ISNJ4FGK1BOTU6IRG9VPQVE,5,6
59,1,object_01,object_10,1024.1999999993,1,1,743.60000000149,0.6666666666666666,1,object_05,5,1040,0,6,4,desert_8,2,memory-2step-stake-s,571,4275366,0.0-19.0-0.0-0.59,AGILQEFEPEK7N,3MQKOF1EF54KJDI76AN431783D3WDT,3ZY8KE4ISNJ4FGK1BOTU6IRG9VPQVE,1,2
60,2,object_07,object_04,527.89999999851,3,1,677.39999999851,0.7777777777777778,1,object_05,5,1075,0,7,5,forest_7,2,memory-2step-stake-s,572,4284084,0.0-19.0-0.0-0.60,AGILQEFEPEK7N,3MQKOF1EF54KJDI76AN431783D3WDT,3ZY8KE4ISNJ4FGK1BOTU6IRG9VPQVE,3,4
61,1,object_10,object_01,757.59999999776,1,2,674.19999999925,0.6666666666666666,1,object_05,1,1081,0,6,9,desert_3,2,memory-2step-stake-s,573,4292668,0.0-19.0-0.0-0.61,AGILQEFEPEK7N,3MQKOF1EF54KJDI76AN431783D3WDT,3ZY8KE4ISNJ4FGK1BOTU6IRG9VPQVE,2,1
62,4,object_02,object_08,839.30000000075,7,2,1004.3999999985,0.7777777777777778,1,object_05,1,1088,0,7,9,restaurant_2,2,memory-2step-stake-s,574,4301706,0.0-19.0-0.0-0.62,AGILQEFEPEK7N,3MQKOF1EF54KJDI76AN431783D3WDT,3ZY8KE4ISNJ4FGK1BOTU6IRG9VPQVE,8,7
63,2,object_04,object_07,736.59999999776,3,2,1004.3000000007,0.6666666666666666,1,object_05,5,1118,0,6,7,forest_3,2,memory-2step-stake-s,575,4310627,0.0-19.0-0.0-0.63,AGILQEFEPEK7N,3MQKOF1EF54KJDI76AN431783D3WDT,3ZY8KE4ISNJ4FGK1BOTU6IRG9VPQVE,4,3
64,4,object_08,object_02,841.40000000224,7,1,-1.0,0.0,1,object_05,1,1118,0,8,7,restaurant_7,2,memory-2step-stake-s,576,4319218,0.0-19.0-0.0-0.64,AGILQEFEPEK7N,3MQKOF1EF54KJDI76AN431783D3WDT,3ZY8KE4ISNJ4FGK1BOTU6IRG9VPQVE,7,8
65,2,object_07,object_04,551.19999999925,3,1,305.19999999925,1.0,1,object_05,5,1163,0,9,6,forest_7,2,memory-2step-stake-s,577,4327766,0.0-19.0-0.0-0.65,AGILQEFEPEK7N,3MQKOF1EF54KJDI76AN431783D3WDT,3ZY8KE4ISNJ4FGK1BOTU6IRG9VPQVE,3,4
66,2,object_04,object_07,769.09999999776,3,2,527.80000000075,0.8888888888888888,1,object_05,5,1203,0,8,4,forest_7,2,memory-2step-stake-s,578,4336405,0.0-19.0-0.0-0.66,AGILQEFEPEK7N,3MQKOF1EF54KJDI76AN431783D3WDT,3ZY8KE4ISNJ4FGK1BOTU6IRG9VPQVE,4,3
67,4,object_08,object_02,635.30000000075,7,1,715.80000000075,0.8888888888888888,1,object_05,5,1243,0,8,4,restaurant_4,2,memory-2step-stake-s,579,4345275,0.0-19.0-0.0-0.67,AGILQEFEPEK7N,3MQKOF1EF54KJDI76AN431783D3WDT,3ZY8KE4ISNJ4FGK1BOTU6IRG9VPQVE,7,8
68,3,object_09,object_06,1319.6000000015,6,1,-1.0,0.0,2,object_03,1,1243,0,8,2,library_3,2,memory-2step-stake-s,580,4353836,0.0-19.0-0.0-0.68,AGILQEFEPEK7N,3MQKOF1EF54KJDI76AN431783D3WDT,3ZY8KE4ISNJ4FGK1BOTU6IRG9VPQVE,6,5
69,4,object_02,object_08,681.70000000298,7,2,954.09999999776,0.8888888888888888,1,object_05,1,1251,0,8,1,restaurant_4,2,memory-2step-stake-s,581,4362927,0.0-19.0-0.0-0.69,AGILQEFEPEK7N,3MQKOF1EF54KJDI76AN431783D3WDT,3ZY8KE4ISNJ4FGK1BOTU6IRG9VPQVE,8,7
70,2,object_07,object_04,772.0,3,1,528.20000000298,0.6666666666666666,1,object_05,5,1281,0,6,2,forest_3,2,memory-2step-stake-s,582,4371402,0.0-19.0-0.0-0.70,AGILQEFEPEK7N,3MQKOF1EF54KJDI76AN431783D3WDT,3ZY8KE4ISNJ4FGK1BOTU6IRG9VPQVE,3,4
71,4,object_08,object_02,660.39999999851,7,1,755.60000000149,0.5555555555555556,1,object_05,1,1286,0,5,4,restaurant_5,2,memory-2step-stake-s,583,4379968,0.0-19.0-0.0-0.71,AGILQEFEPEK7N,3MQKOF1EF54KJDI76AN431783D3WDT,3ZY8KE4ISNJ4FGK1BOTU6IRG9VPQVE,7,8
72,2,object_07,object_04,701.80000000075,3,1,566.30000000075,0.7777777777777778,1,object_05,5,1321,0,7,4,forest_7,2,memory-2step-stake-s,584,4388581,0.0-19.0-0.0-0.72,AGILQEFEPEK7N,3MQKOF1EF54KJDI76AN431783D3WDT,3ZY8KE4ISNJ4FGK1BOTU6IRG9VPQVE,3,4
73,2,object_07,object_04,610.80000000075,3,1,547.0,0.6666666666666666,1,object_05,5,1351,0,6,1,forest_4,2,memory-2step-stake-s,585,4397045,0.0-19.0-0.0-0.73,AGILQEFEPEK7N,3MQKOF1EF54KJDI76AN431783D3WDT,3ZY8KE4ISNJ4FGK1BOTU6IRG9VPQVE,3,4
74,3,object_06,object_09,656.0,5,1,656.0,0.7777777777777778,1,object_05,1,1358,0,7,0,library_8,2,memory-2step-stake-s,586,4405775,0.0-19.0-0.0-0.74,AGILQEFEPEK7N,3MQKOF1EF54KJDI76AN431783D3WDT,3ZY8KE4ISNJ4FGK1BOTU6IRG9VPQVE,5,6
75,3,object_06,object_09,640.19999999925,5,1,954.19999999925,0.7777777777777778,1,object_05,1,1365,0,7,3,library_8,2,memory-2step-stake-s,587,4414765,0.0-19.0-0.0-0.75,AGILQEFEPEK7N,3MQKOF1EF54KJDI76AN431783D3WDT,3ZY8KE4ISNJ4FGK1BOTU6IRG9VPQVE,5,6
76,4,object_08,object_02,744.80000000075,7,1,492.5,0.7777777777777778,1,object_05,1,1372,0,7,3,restaurant_5,2,memory-2step-stake-s,588,4423266,0.0-19.0-0.0-0.76,AGILQEFEPEK7N,3MQKOF1EF54KJDI76AN431783D3WDT,3ZY8KE4ISNJ4FGK1BOTU6IRG9VPQVE,7,8
77,4,object_08,object_02,814.69999999925,7,1,652.60000000149,0.8888888888888888,1,object_05,1,1380,0,8,5,restaurant_7,2,memory-2step-stake-s,589,4432073,0.0-19.0-0.0-0.77,AGILQEFEPEK7N,3MQKOF1EF54KJDI76AN431783D3WDT,3ZY8KE4ISNJ4FGK1BOTU6IRG9VPQVE,7,8
78,4,object_02,object_08,1145.0999999978,7,2,773.59999999776,0.7777777777777778,1,object_05,1,1387,0,7,4,restaurant_7,2,memory-2step-stake-s,590,4440863,0.0-19.0-0.0-0.78,AGILQEFEPEK7N,3MQKOF1EF54KJDI76AN431783D3WDT,3ZY8KE4ISNJ4FGK1BOTU6IRG9VPQVE,8,7
79,1,object_01,object_10,897.10000000149,1,1,960.5,0.2222222222222222,1,object_05,5,1397,0,2,0,desert_5,2,memory-2step-stake-s,591,4449316,0.0-19.0-0.0-0.79,AGILQEFEPEK7N,3MQKOF1EF54KJDI76AN431783D3WDT,3ZY8KE4ISNJ4FGK1BOTU6IRG9VPQVE,1,2
80,1,object_01,object_10,862.70000000298,1,1,559.09999999776,0.0,1,object_05,1,1397,0,0,0,desert_4,2,memory-2step-stake-s,592,4457148,0.0-19.0-0.0-0.80,AGILQEFEPEK7N,3MQKOF1EF54KJDI76AN431783D3WDT,3ZY8KE4ISNJ4FGK1BOTU6IRG9VPQVE,1,2
81,1,object_01,object_10,871.40000000224,1,1,792.59999999776,0.3333333333333333,1,object_05,5,1412,0,3,0,desert_8,2,memory-2step-stake-s,593,4465576,0.0-19.0-0.0-0.81,AGILQEFEPEK7N,3MQKOF1EF54KJDI76AN431783D3WDT,3ZY8KE4ISNJ4FGK1BOTU6IRG9VPQVE,1,2
82,2,object_07,object_04,682.19999999925,3,1,485.29999999702,0.0,1,object_05,5,1412,0,0,0,forest_3,2,memory-2step-stake-s,594,4473310,0.0-19.0-0.0-0.82,AGILQEFEPEK7N,3MQKOF1EF54KJDI76AN431783D3WDT,3ZY8KE4ISNJ4FGK1BOTU6IRG9VPQVE,3,4
83,3,object_09,object_06,882.80000000075,6,1,812.19999999925,0.1111111111111111,2,object_03,1,1413,0,1,1,library_5,2,memory-2step-stake-s,595,4481491,0.0-19.0-0.0-0.83,AGILQEFEPEK7N,3MQKOF1EF54KJDI76AN431783D3WDT,3ZY8KE4ISNJ4FGK1BOTU6IRG9VPQVE,6,5
84,2,object_07,object_04,846.70000000298,4,2,507.39999999851,0.1111111111111111,2,object_03,5,1418,0,1,1,forest_4,2,memory-2step-stake-s,596,4489354,0.0-19.0-0.0-0.84,AGILQEFEPEK7N,3MQKOF1EF54KJDI76AN431783D3WDT,3ZY8KE4ISNJ4FGK1BOTU6IRG9VPQVE,3,4
85,3,object_06,object_09,1210.6999999993,6,2,477.40000000224,0.1111111111111111,2,object_03,1,1419,0,1,1,library_4,2,memory-2step-stake-s,597,4497199,0.0-19.0-0.0-0.85,AGILQEFEPEK7N,3MQKOF1EF54KJDI76AN431783D3WDT,3ZY8KE4ISNJ4FGK1BOTU6IRG9VPQVE,5,6
86,4,object_08,object_02,1140.5,8,2,1111.8999999985,0.1111111111111111,2,object_03,1,1420,0,3,1,restaurant_4,2,memory-2step-stake-s,598,4505701,0.0-19.0-0.0-0.86,AGILQEFEPEK7N,3MQKOF1EF54KJDI76AN431783D3WDT,3ZY8KE4ISNJ4FGK1BOTU6IRG9VPQVE,7,8
87,4,object_02,object_08,1172.5999999978,7,2,585.39999999851,0.2222222222222222,1,object_05,1,1422,0,2,3,restaurant_2,2,memory-2step-stake-s,599,4513771,0.0-19.0-0.0-0.87,AGILQEFEPEK7N,3MQKOF1EF54KJDI76AN431783D3WDT,3ZY8KE4ISNJ4FGK1BOTU6IRG9VPQVE,8,7
88,4,object_08,object_02,1145.0,7,1,696.0,0.3333333333333333,1,object_05,1,1425,0,3,1,restaurant_4,2,memory-2step-stake-s,600,4522076,0.0-19.0-0.0-0.88,AGILQEFEPEK7N,3MQKOF1EF54KJDI76AN431783D3WDT,3ZY8KE4ISNJ4FGK1BOTU6IRG9VPQVE,7,8
89,3,object_09,object_06,1008.9000000022,5,2,409.30000000075,0.5555555555555556,1,object_05,1,1430,0,5,1,library_8,2,memory-2step-stake-s,601,4530279,0.0-19.0-0.0-0.89,AGILQEFEPEK7N,3MQKOF1EF54KJDI76AN431783D3WDT,3ZY8KE4ISNJ4FGK1BOTU6IRG9VPQVE,6,5
90,3,object_06,object_09,745.30000000075,5,1,678.5,0.2222222222222222,1,object_05,5,1440,0,2,1,library_3,2,memory-2step-stake-s,602,4538452,0.0-19.0-0.0-0.90,AGILQEFEPEK7N,3MQKOF1EF54KJDI76AN431783D3WDT,3ZY8KE4ISNJ4FGK1BOTU6IRG9VPQVE,5,6
91,2,object_04,object_07,1304.0999999978,3,2,649.0,0.2222222222222222,1,object_05,5,1450,0,2,6,forest_5,2,memory-2step-stake-s,603,4546583,0.0-19.0-0.0-0.91,AGILQEFEPEK7N,3MQKOF1EF54KJDI76AN431783D3WDT,3ZY8KE4ISNJ4FGK1BOTU6IRG9VPQVE,4,3
92,1,object_10,object_01,996.5,1,2,547.0,0.4444444444444444,1,object_05,1,1454,0,4,6,desert_4,2,memory-2step-stake-s,604,4554825,0.0-19.0-0.0-0.92,AGILQEFEPEK7N,3MQKOF1EF54KJDI76AN431783D3WDT,3ZY8KE4ISNJ4FGK1BOTU6IRG9VPQVE,2,1
93,2,object_04,object_07,1041.3999999985,3,2,802.5,0.3333333333333333,1,object_05,5,1469,0,3,2,forest_4,2,memory-2step-stake-s,605,4563219,0.0-19.0-0.0-0.93,AGILQEFEPEK7N,3MQKOF1EF54KJDI76AN431783D3WDT,3ZY8KE4ISNJ4FGK1BOTU6IRG9VPQVE,4,3
94,1,object_10,object_01,843.0,1,2,635.10000000149,0.6666666666666666,1,object_05,1,1475,0,6,4,desert_3,2,memory-2step-stake-s,606,4571769,0.0-19.0-0.0-0.94,AGILQEFEPEK7N,3MQKOF1EF54KJDI76AN431783D3WDT,3ZY8KE4ISNJ4FGK1BOTU6IRG9VPQVE,2,1
95,4,object_02,object_08,760.39999999851,7,2,575.19999999925,0.4444444444444444,1,object_05,1,1479,0,4,4,restaurant_4,2,memory-2step-stake-s,607,4580024,0.0-19.0-0.0-0.95,AGILQEFEPEK7N,3MQKOF1EF54KJDI76AN431783D3WDT,3ZY8KE4ISNJ4FGK1BOTU6IRG9VPQVE,8,7
96,1,object_01,object_10,682.39999999851,1,1,618.0,0.5555555555555556,1,object_05,5,1504,0,5,4,desert_8,2,memory-2step-stake-s,608,4588461,0.0-19.0-0.0-0.96,AGILQEFEPEK7N,3MQKOF1EF54KJDI76AN431783D3WDT,3ZY8KE4ISNJ4FGK1BOTU6IRG9VPQVE,1,2
97,2,object_07,object_04,876.60000000149,3,1,722.69999999925,0.2222222222222222,1,object_05,5,1514,0,2,3,forest_4,2,memory-2step-stake-s,609,4596688,0.0-19.0-0.0-0.97,AGILQEFEPEK7N,3MQKOF1EF54KJDI76AN431783D3WDT,3ZY8KE4ISNJ4FGK1BOTU6IRG9VPQVE,3,4
98,2,object_07,object_04,605.10000000149,3,1,555.80000000075,0.1111111111111111,1,object_05,5,1519,0,1,2,forest_3,2,memory-2step-stake-s,610,4604633,0.0-19.0-0.0-0.98,AGILQEFEPEK7N,3MQKOF1EF54KJDI76AN431783D3WDT,3ZY8KE4ISNJ4FGK1BOTU6IRG9VPQVE,3,4
99,3,object_09,object_06,879.19999999925,5,2,644.0,0.2222222222222222,1,object_05,5,1529,0,2,2,library_8,2,memory-2step-stake-s,611,4612778,0.0-19.0-0.0-0.99,AGILQEFEPEK7N,3MQKOF1EF54KJDI76AN431783D3WDT,3ZY8KE4ISNJ4FGK1BOTU6IRG9VPQVE,6,5
100,1,object_10,object_01,656.40000000224,1,2,464.5,0.0,1,object_05,5,1529,0,0,2,desert_3,2,memory-2step-stake-s,612,4620522,0.0-19.0-0.0-0.100,AGILQEFEPEK7N,3MQKOF1EF54KJDI76AN431783D3WDT,3ZY8KE4ISNJ4FGK1BOTU6IRG9VPQVE,2,1
101,1,object_01,object_10,904.5,2,2,454.80000000075,0.4444444444444444,2,object_03,5,1549,0,2,4,desert_3,2,memory-2step-stake-s,613,4628700,0.0-19.0-0.0-0.101,AGILQEFEPEK7N,3MQKOF1EF54KJDI76AN431783D3WDT,3ZY8KE4ISNJ4FGK1BOTU6IRG9VPQVE,1,2
102,1,object_01,object_10,1088.0999999978,2,2,1064.5,0.4444444444444444,2,object_03,5,1569,0,4,4,desert_5,2,memory-2step-stake-s,614,4637480,0.0-19.0-0.0-0.102,AGILQEFEPEK7N,3MQKOF1EF54KJDI76AN431783D3WDT,3ZY8KE4ISNJ4FGK1BOTU6IRG9VPQVE,1,2
103,2,object_07,object_04,1116.6999999993,4,2,636.80000000075,0.3333333333333333,2,object_03,5,1584,0,3,3,forest_5,2,memory-2step-stake-s,615,4645727,0.0-19.0-0.0-0.103,AGILQEFEPEK7N,3MQKOF1EF54KJDI76AN431783D3WDT,3ZY8KE4ISNJ4FGK1BOTU6IRG9VPQVE,3,4
104,2,object_04,object_07,998.0,4,1,645.5,0.2222222222222222,2,object_03,5,1594,0,3,2,forest_4,2,memory-2step-stake-s,616,4653835,0.0-19.0-0.0-0.104,AGILQEFEPEK7N,3MQKOF1EF54KJDI76AN431783D3WDT,3ZY8KE4ISNJ4FGK1BOTU6IRG9VPQVE,4,3
105,4,object_08,object_02,1305.8000000007,8,2,749.0,0.3333333333333333,2,object_03,1,1597,0,4,3,restaurant_5,2,memory-2step-stake-s,617,4662182,0.0-19.0-0.0-0.105,AGILQEFEPEK7N,3MQKOF1EF54KJDI76AN431783D3WDT,3ZY8KE4ISNJ4FGK1BOTU6IRG9VPQVE,7,8
106,2,object_07,object_04,784.19999999925,4,2,696.60000000149,0.4444444444444444,2,object_03,5,1617,0,3,4,forest_7,2,memory-2step-stake-s,618,4670615,0.0-19.0-0.0-0.106,AGILQEFEPEK7N,3MQKOF1EF54KJDI76AN431783D3WDT,3ZY8KE4ISNJ4FGK1BOTU6IRG9VPQVE,3,4
107,1,object_01,object_10,898.59999999776,2,2,471.5,0.1111111111111111,2,object_03,5,1622,0,2,1,desert_8,2,memory-2step-stake-s,619,4678445,0.0-19.0-0.0-0.107,AGILQEFEPEK7N,3MQKOF1EF54KJDI76AN431783D3WDT,3ZY8KE4ISNJ4FGK1BOTU6IRG9VPQVE,1,2
108,1,object_10,object_01,874.0,1,2,621.10000000149,0.2222222222222222,1,object_05,5,1632,0,2,0,desert_4,2,memory-2step-stake-s,620,4686551,0.0-19.0-0.0-0.108,AGILQEFEPEK7N,3MQKOF1EF54KJDI76AN431783D3WDT,3ZY8KE4ISNJ4FGK1BOTU6IRG9VPQVE,2,1
109,4,object_08,object_02,1133.8000000007,7,1,506.69999999925,0.1111111111111111,1,object_05,5,1637,0,1,1,restaurant_5,2,memory-2step-stake-s,621,4694414,0.0-19.0-0.0-0.109,AGILQEFEPEK7N,3MQKOF1EF54KJDI76AN431783D3WDT,3ZY8KE4ISNJ4FGK1BOTU6IRG9VPQVE,7,8
110,2,object_07,object_04,851.09999999776,4,2,596.70000000298,0.1111111111111111,2,object_03,5,1642,0,6,1,forest_5,2,memory-2step-stake-s,622,4702403,0.0-19.0-0.0-0.110,AGILQEFEPEK7N,3MQKOF1EF54KJDI76AN431783D3WDT,3ZY8KE4ISNJ4FGK1BOTU6IRG9VPQVE,3,4
111,3,object_06,object_09,616.5,5,1,442.0,0.5555555555555556,1,object_05,1,1647,0,5,2,library_3,2,memory-2step-stake-s,623,4710649,0.0-19.0-0.0-0.111,AGILQEFEPEK7N,3MQKOF1EF54KJDI76AN431783D3WDT,3ZY8KE4ISNJ4FGK1BOTU6IRG9VPQVE,5,6
112,1,object_10,object_01,875.10000000149,1,2,569.79999999702,1.0,1,object_05,5,1692,0,9,2,desert_8,2,memory-2step-stake-s,624,4719572,0.0-19.0-0.0-0.112,AGILQEFEPEK7N,3MQKOF1EF54KJDI76AN431783D3WDT,3ZY8KE4ISNJ4FGK1BOTU6IRG9VPQVE,2,1
113,3,object_09,object_06,743.19999999925,5,2,578.60000000149,0.8888888888888888,1,object_05,5,1732,0,8,2,library_5,2,memory-2step-stake-s,625,4728298,0.0-19.0-0.0-0.113,AGILQEFEPEK7N,3MQKOF1EF54KJDI76AN431783D3WDT,3ZY8KE4ISNJ4FGK1BOTU6IRG9VPQVE,6,5
114,2,object_07,object_04,1308.8000000007,3,1,511.0,0.8888888888888888,1,object_05,5,1772,0,8,6,forest_3,2,memory-2step-stake-s,626,4736939,0.0-19.0-0.0-0.114,AGILQEFEPEK7N,3MQKOF1EF54KJDI76AN431783D3WDT,3ZY8KE4ISNJ4FGK1BOTU6IRG9VPQVE,3,4
115,1,object_01,object_10,772.59999999776,1,1,416.30000000075,0.6666666666666666,1,object_05,5,1802,0,6,8,desert_4,2,memory-2step-stake-s,627,4745349,0.0-19.0-0.0-0.115,AGILQEFEPEK7N,3MQKOF1EF54KJDI76AN431783D3WDT,3ZY8KE4ISNJ4FGK1BOTU6IRG9VPQVE,1,2
116,1,object_01,object_10,899.39999999851,1,1,689.69999999925,1.0,1,object_05,5,1847,0,9,8,desert_5,2,memory-2step-stake-s,628,4754290,0.0-19.0-0.0-0.116,AGILQEFEPEK7N,3MQKOF1EF54KJDI76AN431783D3WDT,3ZY8KE4ISNJ4FGK1BOTU6IRG9VPQVE,1,2
117,2,object_07,object_04,909.19999999925,3,1,290.20000000298,1.0,1,object_05,1,1856,0,9,7,forest_3,2,memory-2step-stake-s,629,4762854,0.0-19.0-0.0-0.117,AGILQEFEPEK7N,3MQKOF1EF54KJDI76AN431783D3WDT,3ZY8KE4ISNJ4FGK1BOTU6IRG9VPQVE,3,4
118,1,object_10,object_01,765.0,1,2,364.39999999851,1.0,1,object_05,5,1901,0,9,3,desert_4,2,memory-2step-stake-s,630,4771516,0.0-19.0-0.0-0.118,AGILQEFEPEK7N,3MQKOF1EF54KJDI76AN431783D3WDT,3ZY8KE4ISNJ4FGK1BOTU6IRG9VPQVE,2,1
119,3,object_06,object_09,835.89999999851,5,1,388.59999999776,0.7777777777777778,1,object_05,1,1908,0,7,2,library_4,2,memory-2step-stake-s,631,4780005,0.0-19.0-0.0-0.119,AGILQEFEPEK7N,3MQKOF1EF54KJDI76AN431783D3WDT,3ZY8KE4ISNJ4FGK1BOTU6IRG9VPQVE,5,6
120,4,object_02,object_08,733.09999999776,7,2,-1.0,0.0,1,object_05,1,1908,0,7,2,restaurant_5,2,memory-2step-stake-s,632,4788597,0.0-19.0-0.0-0.120,AGILQEFEPEK7N,3MQKOF1EF54KJDI76AN431783D3WDT,3ZY8KE4ISNJ4FGK1BOTU6IRG9VPQVE,8,7
121,1,object_01,object_10,838.29999999702,1,1,810.60000000149,0.7777777777777778,1,object_05,5,1943,0,7,4,desert_5,2,memory-2step-stake-s,633,4797436,0.0-19.0-0.0-0.121,AGILQEFEPEK7N,3MQKOF1EF54KJDI76AN431783D3WDT,3ZY8KE4ISNJ4FGK1BOTU6IRG9VPQVE,1,2
122,4,object_02,object_08,591.89999999851,7,2,894.5,0.8888888888888888,1,object_05,1,1951,0,8,3,restaurant_7,2,memory-2step-stake-s,634,4806476,0.0-19.0-0.0-0.122,AGILQEFEPEK7N,3MQKOF1EF54KJDI76AN431783D3WDT,3ZY8KE4ISNJ4FGK1BOTU6IRG9VPQVE,8,7
123,2,object_04,object_07,879.60000000149,3,2,636.5,0.8888888888888888,1,object_05,5,1991,0,8,2,forest_3,2,memory-2step-stake-s,635,4815244,0.0-19.0-0.0-0.123,AGILQEFEPEK7N,3MQKOF1EF54KJDI76AN431783D3WDT,3ZY8KE4ISNJ4FGK1BOTU6IRG9VPQVE,4,3
124,3,object_06,object_09,599.40000000224,5,1,734.0,0.8888888888888888,1,object_05,5,2031,0,8,2,library_8,2,memory-2step-stake-s,636,4824131,0.0-19.0-0.0-0.124,AGILQEFEPEK7N,3MQKOF1EF54KJDI76AN431783D3WDT,3ZY8KE4ISNJ4FGK1BOTU6IRG9VPQVE,5,6
125,4,object_02,object_08,698.60000000149,7,2,723.19999999925,0.7777777777777778,1,object_05,5,2066,0,7,2,restaurant_2,2,memory-2step-stake-s,637,4832873,0.0-19.0-0.0-0.125,AGILQEFEPEK7N,3MQKOF1EF54KJDI76AN431783D3WDT,3ZY8KE4ISNJ4FGK1BOTU6IRG9VPQVE,8,7
126,2,object_07,object_04,685.30000000075,3,1,503.30000000075,0.3333333333333333,1,object_05,5,2081,0,3,7,forest_4,2,memory-2step-stake-s,638,4840964,0.0-19.0-0.0-0.126,AGILQEFEPEK7N,3MQKOF1EF54KJDI76AN431783D3WDT,3ZY8KE4ISNJ4FGK1BOTU6IRG9VPQVE,3,4
127,3,object_09,object_06,767.39999999851,5,2,-1.0,0.0,1,object_05,1,2081,0,0,4,library_5,2,memory-2step-stake-s,639,4849540,0.0-19.0-0.0-0.127,AGILQEFEPEK7N,3MQKOF1EF54KJDI76AN431783D3WDT,3ZY8KE4ISNJ4FGK1BOTU6IRG9VPQVE,6,5
128,3,object_09,object_06,895.80000000075,5,2,831.09999999776,0.1111111111111111,1,object_05,1,2082,0,1,0,library_3,2,memory-2step-stake-s,641,4938334,0.0-19.0-0.1-0.128,AGILQEFEPEK7N,3MQKOF1EF54KJDI76AN431783D3WDT,3ZY8KE4ISNJ4FGK1BOTU6IRG9VPQVE,6,5
129,1,object_10,object_01,783.0,1,2,660.90000000224,0.5555555555555556,1,object_05,5,2107,0,5,1,desert_8,2,memory-2step-stake-s,642,4946782,0.0-19.0-0.1-0.129,AGILQEFEPEK7N,3MQKOF1EF54KJDI76AN431783D3WDT,3ZY8KE4ISNJ4FGK1BOTU6IRG9VPQVE,2,1
130,4,object_08,object_02,861.0,7,1,575.59999999776,0.4444444444444444,1,object_05,1,2111,0,4,1,restaurant_7,2,memory-2step-stake-s,643,4955084,0.0-19.0-0.1-0.130,AGILQEFEPEK7N,3MQKOF1EF54KJDI76AN431783D3WDT,3ZY8KE4ISNJ4FGK1BOTU6IRG9VPQVE,7,8
131,2,object_04,object_07,878.80000000075,3,2,594.79999999702,0.5555555555555556,1,object_05,5,2136,0,5,2,forest_3,2,memory-2step-stake-s,644,4963476,0.0-19.0-0.1-0.131,AGILQEFEPEK7N,3MQKOF1EF54KJDI76AN431783D3WDT,3ZY8KE4ISNJ4FGK1BOTU6IRG9VPQVE,4,3
132,4,object_08,object_02,555.80000000075,7,1,403.89999999851,0.2222222222222222,1,object_05,1,2138,0,2,0,restaurant_5,2,memory-2step-stake-s,645,4971371,0.0-19.0-0.1-0.132,AGILQEFEPEK7N,3MQKOF1EF54KJDI76AN431783D3WDT,3ZY8KE4ISNJ4FGK1BOTU6IRG9VPQVE,7,8
133,1,object_01,object_10,677.69999999925,1,1,353.5,0.2222222222222222,1,object_05,1,2140,0,2,5,desert_3,2,memory-2step-stake-s,646,4979208,0.0-19.0-0.1-0.133,AGILQEFEPEK7N,3MQKOF1EF54KJDI76AN431783D3WDT,3ZY8KE4ISNJ4FGK1BOTU6IRG9VPQVE,1,2
134,1,object_10,object_01,730.69999999925,1,2,-1.0,0.0,1,object_05,1,2140,0,3,3,desert_5,2,memory-2step-stake-s,647,4987781,0.0-19.0-0.1-0.134,AGILQEFEPEK7N,3MQKOF1EF54KJDI76AN431783D3WDT,3ZY8KE4ISNJ4FGK1BOTU6IRG9VPQVE,2,1
135,4,object_08,object_02,583.19999999925,7,1,527.0,0.2222222222222222,1,object_05,1,2142,0,2,0,restaurant_5,2,memory-2step-stake-s,648,4995792,0.0-19.0-0.1-0.135,AGILQEFEPEK7N,3MQKOF1EF54KJDI76AN431783D3WDT,3ZY8KE4ISNJ4FGK1BOTU6IRG9VPQVE,7,8
136,1,object_10,object_01,537.39999999851,1,2,-1.0,0.0,1,object_05,5,2142,0,1,0,desert_4,2,memory-2step-stake-s,649,5004354,0.0-19.0-0.1-0.136,AGILQEFEPEK7N,3MQKOF1EF54KJDI76AN431783D3WDT,3ZY8KE4ISNJ4FGK1BOTU6IRG9VPQVE,2,1
137,1,object_01,object_10,571.0,1,1,754.90000000224,0.0,1,object_05,5,2142,0,0,0,desert_8,2,memory-2step-stake-s,650,5012387,0.0-19.0-0.1-0.137,AGILQEFEPEK7N,3MQKOF1EF54KJDI76AN431783D3WDT,3ZY8KE4ISNJ4FGK1BOTU6IRG9VPQVE,1,2
138,1,object_01,object_10,563.19999999925,1,1,755.5,0.1111111111111111,1,object_05,5,2147,0,1,2,desert_5,2,memory-2step-stake-s,651,5020514,0.0-19.0-0.1-0.138,AGILQEFEPEK7N,3MQKOF1EF54KJDI76AN431783D3WDT,3ZY8KE4ISNJ4FGK1BOTU6IRG9VPQVE,1,2
139,2,object_07,object_04,801.69999999925,4,2,295.5,0.1111111111111111,2,object_03,5,2152,0,3,1,forest_4,2,memory-2step-stake-s,652,5028203,0.0-19.0-0.1-0.139,AGILQEFEPEK7N,3MQKOF1EF54KJDI76AN431783D3WDT,3ZY8KE4ISNJ4FGK1BOTU6IRG9VPQVE,3,4
140,3,object_06,object_09,506.70000000298,5,1,450.0,0.2222222222222222,1,object_05,5,2162,0,2,0,library_4,2,memory-2step-stake-s,653,5036170,0.0-19.0-0.1-0.140,AGILQEFEPEK7N,3MQKOF1EF54KJDI76AN431783D3WDT,3ZY8KE4ISNJ4FGK1BOTU6IRG9VPQVE,5,6
141,3,object_06,object_09,610.89999999851,5,1,673.80000000075,0.2222222222222222,1,object_05,1,2164,0,2,2,library_4,2,memory-2step-stake-s,654,5044369,0.0-19.0-0.1-0.141,AGILQEFEPEK7N,3MQKOF1EF54KJDI76AN431783D3WDT,3ZY8KE4ISNJ4FGK1BOTU6IRG9VPQVE,5,6
142,1,object_10,object_01,511.80000000075,1,2,384.5,0.2222222222222222,1,object_05,5,2174,0,2,1,desert_5,2,memory-2step-stake-s,655,5052258,0.0-19.0-0.1-0.142,AGILQEFEPEK7N,3MQKOF1EF54KJDI76AN431783D3WDT,3ZY8KE4ISNJ4FGK1BOTU6IRG9VPQVE,2,1
143,3,object_09,object_06,486.20000000298,5,2,456.69999999925,0.0,1,object_05,1,2174,0,0,3,library_5,2,memory-2step-stake-s,656,5059986,0.0-19.0-0.1-0.143,AGILQEFEPEK7N,3MQKOF1EF54KJDI76AN431783D3WDT,3ZY8KE4ISNJ4FGK1BOTU6IRG9VPQVE,6,5
144,1,object_10,object_01,713.30000000075,1,2,428.69999999925,0.2222222222222222,1,object_05,5,2184,0,2,7,desert_8,2,memory-2step-stake-s,657,5067894,0.0-19.0-0.1-0.144,AGILQEFEPEK7N,3MQKOF1EF54KJDI76AN431783D3WDT,3ZY8KE4ISNJ4FGK1BOTU6IRG9VPQVE,2,1
145,3,object_09,object_06,606.5,5,2,621.0,0.1111111111111111,1,object_05,1,2185,0,1,7,library_5,2,memory-2step-stake-s,658,5075897,0.0-19.0-0.1-0.145,AGILQEFEPEK7N,3MQKOF1EF54KJDI76AN431783D3WDT,3ZY8KE4ISNJ4FGK1BOTU6IRG9VPQVE,6,5
146,2,object_07,object_04,1327.0999999978,3,1,549.89999999851,0.3333333333333333,1,object_05,5,2200,0,3,6,forest_5,2,memory-2step-stake-s,659,5084054,0.0-19.0-0.1-0.146,AGILQEFEPEK7N,3MQKOF1EF54KJDI76AN431783D3WDT,3ZY8KE4ISNJ4FGK1BOTU6IRG9VPQVE,3,4
147,1,object_01,object_10,559.5,1,1,486.69999999925,0.3333333333333333,1,object_05,5,2215,0,3,6,desert_8,2,memory-2step-stake-s,660,5092118,0.0-19.0-0.1-0.147,AGILQEFEPEK7N,3MQKOF1EF54KJDI76AN431783D3WDT,3ZY8KE4ISNJ4FGK1BOTU6IRG9VPQVE,1,2
148,4,object_08,object_02,680.19999999925,7,1,422.40000000224,0.4444444444444444,1,object_05,1,2219,0,4,3,restaurant_2,2,memory-2step-stake-s,661,5100253,0.0-19.0-0.1-0.148,AGILQEFEPEK7N,3MQKOF1EF54KJDI76AN431783D3WDT,3ZY8KE4ISNJ4FGK1BOTU6IRG9VPQVE,7,8
149,1,object_10,object_01,221.80000000075,2,1,-1.0,0.0,2,object_03,5,2219,0,4,5,desert_8,2,memory-2step-stake-s,662,5108821,0.0-19.0-0.1-0.149,AGILQEFEPEK7N,3MQKOF1EF54KJDI76AN431783D3WDT,3ZY8KE4ISNJ4FGK1BOTU6IRG9VPQVE,2,1
150,2,object_07,object_04,1025.1999999993,3,1,459.89999999851,0.6666666666666666,1,object_05,1,2225,0,6,5,forest_7,2,memory-2step-stake-s,663,5117210,0.0-19.0-0.1-0.150,AGILQEFEPEK7N,3MQKOF1EF54KJDI76AN431783D3WDT,3ZY8KE4ISNJ4FGK1BOTU6IRG9VPQVE,3,4
151,3,object_09,object_06,582.80000000075,5,2,503.09999999776,0.3333333333333333,1,object_05,1,2228,0,3,1,library_8,2,memory-2step-stake-s,664,5125299,0.0-19.0-0.1-0.151,AGILQEFEPEK7N,3MQKOF1EF54KJDI76AN431783D3WDT,3ZY8KE4ISNJ4FGK1BOTU6IRG9VPQVE,6,5
152,2,object_04,object_07,708.0,4,1,383.29999999702,0.1111111111111111,2,object_03,5,2233,0,3,1,forest_5,2,memory-2step-stake-s,665,5133064,0.0-19.0-0.1-0.152,AGILQEFEPEK7N,3MQKOF1EF54KJDI76AN431783D3WDT,3ZY8KE4ISNJ4FGK1BOTU6IRG9VPQVE,4,3
153,4,object_02,object_08,696.10000000149,7,2,247.60000000149,0.4444444444444444,1,object_05,1,2237,0,4,2,restaurant_4,2,memory-2step-stake-s,666,5141013,0.0-19.0-0.1-0.153,AGILQEFEPEK7N,3MQKOF1EF54KJDI76AN431783D3WDT,3ZY8KE4ISNJ4FGK1BOTU6IRG9VPQVE,8,7
154,2,object_04,object_07,394.69999999925,4,1,202.80000000075,0.0,2,object_03,5,2237,0,4,0,forest_3,2,memory-2step-stake-s,667,5148484,0.0-19.0-0.1-0.154,AGILQEFEPEK7N,3MQKOF1EF54KJDI76AN431783D3WDT,3ZY8KE4ISNJ4FGK1BOTU6IRG9VPQVE,4,3
155,4,object_02,object_08,684.39999999851,7,2,881.80000000075,0.3333333333333333,1,object_05,1,2240,0,3,1,restaurant_4,2,memory-2step-stake-s,668,5156950,0.0-19.0-0.1-0.155,AGILQEFEPEK7N,3MQKOF1EF54KJDI76AN431783D3WDT,3ZY8KE4ISNJ4FGK1BOTU6IRG9VPQVE,8,7
156,3,object_06,object_09,940.5,6,2,737.0,0.1111111111111111,2,object_03,1,2241,0,9,1,library_8,2,memory-2step-stake-s,669,5165054,0.0-19.0-0.1-0.156,AGILQEFEPEK7N,3MQKOF1EF54KJDI76AN431783D3WDT,3ZY8KE4ISNJ4FGK1BOTU6IRG9VPQVE,5,6
157,2,object_04,object_07,351.29999999702,3,2,333.79999999702,0.7777777777777778,1,object_05,5,2276,0,7,1,forest_3,2,memory-2step-stake-s,670,5173429,0.0-19.0-0.1-0.157,AGILQEFEPEK7N,3MQKOF1EF54KJDI76AN431783D3WDT,3ZY8KE4ISNJ4FGK1BOTU6IRG9VPQVE,4,3
158,2,object_07,object_04,624.5,3,1,984.39999999851,0.7777777777777778,1,object_05,1,2283,0,7,2,forest_3,2,memory-2step-stake-s,671,5182429,0.0-19.0-0.1-0.158,AGILQEFEPEK7N,3MQKOF1EF54KJDI76AN431783D3WDT,3ZY8KE4ISNJ4FGK1BOTU6IRG9VPQVE,3,4
159,2,object_07,object_04,624.10000000149,3,1,511.80000000075,0.6666666666666666,1,object_05,1,2289,0,6,2,forest_7,2,memory-2step-stake-s,672,5190889,0.0-19.0-0.1-0.159,AGILQEFEPEK7N,3MQKOF1EF54KJDI76AN431783D3WDT,3ZY8KE4ISNJ4FGK1BOTU6IRG9VPQVE,3,4
160,3,object_09,object_06,680.59999999776,5,2,622.0,0.8888888888888888,1,object_05,1,2297,0,8,4,library_5,2,memory-2step-stake-s,673,5199663,0.0-19.0-0.1-0.160,AGILQEFEPEK7N,3MQKOF1EF54KJDI76AN431783D3WDT,3ZY8KE4ISNJ4FGK1BOTU6IRG9VPQVE,6,5
161,2,object_07,object_04,656.19999999925,3,1,347.0,0.8888888888888888,1,object_05,1,2305,0,8,2,forest_5,2,memory-2step-stake-s,674,5208146,0.0-19.0-0.1-0.161,AGILQEFEPEK7N,3MQKOF1EF54KJDI76AN431783D3WDT,3ZY8KE4ISNJ4FGK1BOTU6IRG9VPQVE,3,4
162,1,object_01,object_10,1133.3999999985,1,1,464.39999999851,1.0,1,object_05,5,2350,0,9,2,desert_3,2,memory-2step-stake-s,675,5216852,0.0-19.0-0.1-0.162,AGILQEFEPEK7N,3MQKOF1EF54KJDI76AN431783D3WDT,3ZY8KE4ISNJ4FGK1BOTU6IRG9VPQVE,1,2
163,4,object_08,object_02,798.19999999925,7,1,480.0,0.5555555555555556,1,object_05,1,2355,0,5,1,restaurant_5,2,memory-2step-stake-s,676,5225169,0.0-19.0-0.1-0.163,AGILQEFEPEK7N,3MQKOF1EF54KJDI76AN431783D3WDT,3ZY8KE4ISNJ4FGK1BOTU6IRG9VPQVE,7,8
164,4,object_08,object_02,-1.0,-1,-1,-1.0,0.0,-,0,1,2355,0,4,1,restaurant_4,2,memory-2step-stake-s,677,5231738,0.0-19.0-0.1-0.164,AGILQEFEPEK7N,3MQKOF1EF54KJDI76AN431783D3WDT,3ZY8KE4ISNJ4FGK1BOTU6IRG9VPQVE,7,8
165,4,object_08,object_02,624.30000000075,7,1,455.40000000224,0.2222222222222222,1,object_05,1,2357,0,2,1,restaurant_7,2,memory-2step-stake-s,678,5239675,0.0-19.0-0.1-0.165,AGILQEFEPEK7N,3MQKOF1EF54KJDI76AN431783D3WDT,3ZY8KE4ISNJ4FGK1BOTU6IRG9VPQVE,7,8
166,3,object_06,object_09,675.39999999851,5,1,437.90000000224,0.1111111111111111,1,object_05,1,2358,0,1,4,library_5,2,memory-2step-stake-s,679,5247508,0.0-19.0-0.1-0.166,AGILQEFEPEK7N,3MQKOF1EF54KJDI76AN431783D3WDT,3ZY8KE4ISNJ4FGK1BOTU6IRG9VPQVE,5,6
167,3,object_06,object_09,587.80000000075,5,1,668.10000000149,0.2222222222222222,1,object_05,1,2360,0,2,7,library_8,2,memory-2step-stake-s,680,5255655,0.0-19.0-0.1-0.167,AGILQEFEPEK7N,3MQKOF1EF54KJDI76AN431783D3WDT,3ZY8KE4ISNJ4FGK1BOTU6IRG9VPQVE,5,6
168,4,object_02,object_08,820.09999999776,7,2,446.89999999851,0.1111111111111111,1,object_05,1,2361,0,1,9,restaurant_2,2,memory-2step-stake-s,681,5263490,0.0-19.0-0.1-0.168,AGILQEFEPEK7N,3MQKOF1EF54KJDI76AN431783D3WDT,3ZY8KE4ISNJ4FGK1BOTU6IRG9VPQVE,8,7
169,1,object_01,object_10,475.39999999851,1,1,622.19999999925,0.3333333333333333,1,object_05,5,2376,0,3,8,desert_4,2,memory-2step-stake-s,682,5271740,0.0-19.0-0.1-0.169,AGILQEFEPEK7N,3MQKOF1EF54KJDI76AN431783D3WDT,3ZY8KE4ISNJ4FGK1BOTU6IRG9VPQVE,1,2
170,1,object_01,object_10,564.80000000075,1,1,571.39999999851,0.6666666666666666,1,object_05,5,2406,0,6,7,desert_8,2,memory-2step-stake-s,683,5280225,0.0-19.0-0.1-0.170,AGILQEFEPEK7N,3MQKOF1EF54KJDI76AN431783D3WDT,3ZY8KE4ISNJ4FGK1BOTU6IRG9VPQVE,1,2
171,1,object_01,object_10,998.40000000224,1,1,555.10000000149,1.0,1,object_05,1,2415,0,9,7,desert_4,2,memory-2step-stake-s,684,5289026,0.0-19.0-0.1-0.171,AGILQEFEPEK7N,3MQKOF1EF54KJDI76AN431783D3WDT,3ZY8KE4ISNJ4FGK1BOTU6IRG9VPQVE,1,2
172,1,object_01,object_10,542.5,1,1,489.0,1.0,1,object_05,1,2424,0,9,7,desert_5,2,memory-2step-stake-s,685,5297818,0.0-19.0-0.1-0.172,AGILQEFEPEK7N,3MQKOF1EF54KJDI76AN431783D3WDT,3ZY8KE4ISNJ4FGK1BOTU6IRG9VPQVE,1,2
173,4,object_02,object_08,1099.5999999978,7,2,564.30000000075,0.7777777777777778,1,object_05,1,2431,0,7,7,restaurant_5,2,memory-2step-stake-s,686,5306419,0.0-19.0-0.1-0.173,AGILQEFEPEK7N,3MQKOF1EF54KJDI76AN431783D3WDT,3ZY8KE4ISNJ4FGK1BOTU6IRG9VPQVE,8,7
174,2,object_04,object_07,744.5,3,2,454.19999999925,1.0,1,object_05,5,2476,0,9,8,forest_5,2,memory-2step-stake-s,687,5315154,0.0-19.0-0.1-0.174,AGILQEFEPEK7N,3MQKOF1EF54KJDI76AN431783D3WDT,3ZY8KE4ISNJ4FGK1BOTU6IRG9VPQVE,4,3
175,1,object_10,object_01,648.90000000224,1,2,521.90000000224,1.0,1,object_05,1,2485,0,9,6,desert_8,2,memory-2step-stake-s,688,5323955,0.0-19.0-0.1-0.175,AGILQEFEPEK7N,3MQKOF1EF54KJDI76AN431783D3WDT,3ZY8KE4ISNJ4FGK1BOTU6IRG9VPQVE,2,1
176,2,object_04,object_07,603.5,3,2,526.39999999851,0.6666666666666666,1,object_05,5,2515,0,6,4,forest_5,2,memory-2step-stake-s,689,5332395,0.0-19.0-0.1-0.176,AGILQEFEPEK7N,3MQKOF1EF54KJDI76AN431783D3WDT,3ZY8KE4ISNJ4FGK1BOTU6IRG9VPQVE,4,3
177,4,object_02,object_08,734.09999999776,7,2,569.0,0.4444444444444444,1,object_05,1,2519,0,4,5,restaurant_2,2,memory-2step-stake-s,690,5340683,0.0-19.0-0.1-0.177,AGILQEFEPEK7N,3MQKOF1EF54KJDI76AN431783D3WDT,3ZY8KE4ISNJ4FGK1BOTU6IRG9VPQVE,8,7
178,1,object_01,object_10,864.79999999702,1,1,841.40000000224,0.4444444444444444,1,object_05,5,2539,0,4,5,desert_4,2,memory-2step-stake-s,691,5349213,0.0-19.0-0.1-0.178,AGILQEFEPEK7N,3MQKOF1EF54KJDI76AN431783D3WDT,3ZY8KE4ISNJ4FGK1BOTU6IRG9VPQVE,1,2
179,4,object_02,object_08,1353.8000000007,7,2,560.0,0.5555555555555556,1,object_05,5,2564,0,5,4,restaurant_5,2,memory-2step-stake-s,692,5357577,0.0-19.0-0.1-0.179,AGILQEFEPEK7N,3MQKOF1EF54KJDI76AN431783D3WDT,3ZY8KE4ISNJ4FGK1BOTU6IRG9VPQVE,8,7
180,4,object_02,object_08,492.19999999925,7,2,703.80000000075,0.7777777777777778,1,object_05,1,2571,0,7,5,restaurant_4,2,memory-2step-stake-s,693,5366305,0.0-19.0-0.1-0.180,AGILQEFEPEK7N,3MQKOF1EF54KJDI76AN431783D3WDT,3ZY8KE4ISNJ4FGK1BOTU6IRG9VPQVE,8,7
181,1,object_10,object_01,688.30000000075,1,2,745.60000000149,0.6666666666666666,1,object_05,5,2601,0,6,5,desert_3,2,memory-2step-stake-s,694,5374968,0.0-19.0-0.1-0.181,AGILQEFEPEK7N,3MQKOF1EF54KJDI76AN431783D3WDT,3ZY8KE4ISNJ4FGK1BOTU6IRG9VPQVE,2,1
182,4,object_08,object_02,703.90000000224,7,1,568.69999999925,0.5555555555555556,1,object_05,1,2606,0,5,6,restaurant_5,2,memory-2step-stake-s,695,5383342,0.0-19.0-0.1-0.182,AGILQEFEPEK7N,3MQKOF1EF54KJDI76AN431783D3WDT,3ZY8KE4ISNJ4FGK1BOTU6IRG9VPQVE,7,8
183,2,object_04,object_07,902.5,3,2,-1.0,0.0,1,object_05,1,2606,0,5,5,forest_7,2,memory-2step-stake-s,696,5391908,0.0-19.0-0.1-0.183,AGILQEFEPEK7N,3MQKOF1EF54KJDI76AN431783D3WDT,3ZY8KE4ISNJ4FGK1BOTU6IRG9VPQVE,4,3
184,3,object_06,object_09,718.19999999925,5,1,628.09999999776,0.7777777777777778,1,object_05,1,2613,0,7,3,library_5,2,memory-2step-stake-s,697,5400576,0.0-19.0-0.1-0.184,AGILQEFEPEK7N,3MQKOF1EF54KJDI76AN431783D3WDT,3ZY8KE4ISNJ4FGK1BOTU6IRG9VPQVE,5,6
185,3,object_06,object_09,997.0,5,1,397.10000000149,0.7777777777777778,1,object_05,1,2620,0,7,1,library_3,2,memory-2step-stake-s,698,5409007,0.0-19.0-0.1-0.185,AGILQEFEPEK7N,3MQKOF1EF54KJDI76AN431783D3WDT,3ZY8KE4ISNJ4FGK1BOTU6IRG9VPQVE,5,6
186,2,object_07,object_04,667.30000000075,3,1,821.60000000149,0.6666666666666666,1,object_05,5,2650,0,6,1,forest_5,2,memory-2step-stake-s,699,5417753,0.0-19.0-0.1-0.186,AGILQEFEPEK7N,3MQKOF1EF54KJDI76AN431783D3WDT,3ZY8KE4ISNJ4FGK1BOTU6IRG9VPQVE,3,4
187,3,object_09,object_06,719.10000000149,5,2,713.80000000075,0.7777777777777778,1,object_05,1,2657,0,7,2,library_5,2,memory-2step-stake-s,700,5426494,0.0-19.0-0.1-0.187,AGILQEFEPEK7N,3MQKOF1EF54KJDI76AN431783D3WDT,3ZY8KE4ISNJ4FGK1BOTU6IRG9VPQVE,6,5
188,4,object_02,object_08,551.80000000075,7,2,592.59999999776,0.7777777777777778,1,object_05,1,2664,0,7,2,restaurant_7,2,memory-2step-stake-s,701,5435090,0.0-19.0-0.1-0.188,AGILQEFEPEK7N,3MQKOF1EF54KJDI76AN431783D3WDT,3ZY8KE4ISNJ4FGK1BOTU6IRG9VPQVE,8,7
189,3,object_09,object_06,579.89999999851,5,2,577.10000000149,0.8888888888888888,1,object_05,1,2672,0,8,2,library_8,2,memory-2step-stake-s,702,5443805,0.0-19.0-0.1-0.189,AGILQEFEPEK7N,3MQKOF1EF54KJDI76AN431783D3WDT,3ZY8KE4ISNJ4FGK1BOTU6IRG9VPQVE,6,5
190,3,object_09,object_06,658.59999999776,5,2,634.19999999925,0.8888888888888888,1,object_05,1,2680,0,8,2,library_4,2,memory-2step-stake-s,703,5452568,0.0-19.0-0.1-0.190,AGILQEFEPEK7N,3MQKOF1EF54KJDI76AN431783D3WDT,3ZY8KE4ISNJ4FGK1BOTU6IRG9VPQVE,6,5
191,2,object_04,object_07,647.90000000224,3,2,752.39999999851,0.8888888888888888,1,object_05,5,2720,0,8,1,forest_5,2,memory-2step-stake-s,704,5461494,0.0-19.0-0.1-0.191,AGILQEFEPEK7N,3MQKOF1EF54KJDI76AN431783D3WDT,3ZY8KE4ISNJ4FGK1BOTU6IRG9VPQVE,4,3
192,2,object_04,object_07,693.10000000149,3,2,593.40000000224,0.8888888888888888,1,object_05,5,2760,0,8,2,forest_3,2,memory-2step-stake-s,705,5470225,0.0-19.0-0.1-0.192,AGILQEFEPEK7N,3MQKOF1EF54KJDI76AN431783D3WDT,3ZY8KE4ISNJ4FGK1BOTU6IRG9VPQVE,4,3
193,1,object_01,object_10,767.0,1,1,820.39999999851,1.0,1,object_05,1,2769,0,9,2,desert_5,2,memory-2step-stake-s,706,5479297,0.0-19.0-0.1-0.193,AGILQEFEPEK7N,3MQKOF1EF54KJDI76AN431783D3WDT,3ZY8KE4ISNJ4FGK1BOTU6IRG9VPQVE,1,2
194,3,object_06,object_09,652.0,5,1,664.10000000149,0.7777777777777778,1,object_05,1,2776,0,7,1,library_5,2,memory-2step-stake-s,707,5487974,0.0-19.0-0.1-0.194,AGILQEFEPEK7N,3MQKOF1EF54KJDI76AN431783D3WDT,3ZY8KE4ISNJ4FGK1BOTU6IRG9VPQVE,5,6
195,1,object_01,object_10,651.59999999776,1,1,861.80000000075,0.4444444444444444,1,object_05,5,2796,0,4,2,desert_3,2,memory-2step-stake-s,708,5496577,0.0-19.0-0.1-0.195,AGILQEFEPEK7N,3MQKOF1EF54KJDI76AN431783D3WDT,3ZY8KE4ISNJ4FGK1BOTU6IRG9VPQVE,1,2
196,1,object_01,object_10,619.20000000298,1,1,531.09999999776,0.4444444444444444,1,object_05,5,2816,0,4,2,desert_4,2,memory-2step-stake-s,709,5504811,0.0-19.0-0.1-0.196,AGILQEFEPEK7N,3MQKOF1EF54KJDI76AN431783D3WDT,3ZY8KE4ISNJ4FGK1BOTU6IRG9VPQVE,1,2
197,4,object_02,object_08,792.80000000075,7,2,566.80000000075,1.0,1,object_05,1,2825,0,9,5,restaurant_2,2,memory-2step-stake-s,710,5513611,0.0-19.0-0.1-0.197,AGILQEFEPEK7N,3MQKOF1EF54KJDI76AN431783D3WDT,3ZY8KE4ISNJ4FGK1BOTU6IRG9VPQVE,8,7
198,3,object_09,object_06,641.5,5,2,1020.1999999993,0.8888888888888888,1,object_05,1,2833,0,8,5,library_5,2,memory-2step-stake-s,711,5522772,0.0-19.0-0.1-0.198,AGILQEFEPEK7N,3MQKOF1EF54KJDI76AN431783D3WDT,3ZY8KE4ISNJ4FGK1BOTU6IRG9VPQVE,6,5
199,3,object_09,object_06,727.40000000224,5,2,716.39999999851,0.8888888888888888,1,object_05,1,2841,0,8,1,library_3,2,memory-2step-stake-s,712,5531628,0.0-19.0-0.1-0.199,AGILQEFEPEK7N,3MQKOF1EF54KJDI76AN431783D3WDT,3ZY8KE4ISNJ4FGK1BOTU6IRG9VPQVE,6,5
200,1,object_01,object_10,636.69999999925,1,1,787.10000000149,0.8888888888888888,1,object_05,5,2881,0,8,1,desert_5,2,memory-2step-stake-s,713,5540521,0.0-19.0-0.1-0.200,AGILQEFEPEK7N,3MQKOF1EF54KJDI76AN431783D3WDT,3ZY8KE4ISNJ4FGK1BOTU6IRG9VPQVE,1,2
201,4,object_08,object_02,574.80000000075,7,1,467.5,1.0,1,object_05,1,2890,0,9,3,restaurant_2,2,memory-2step-stake-s,714,5549223,0.0-19.0-0.1-0.201,AGILQEFEPEK7N,3MQKOF1EF54KJDI76AN431783D3WDT,3ZY8KE4ISNJ4FGK1BOTU6IRG9VPQVE,7,8
202,2,object_04,object_07,637.60000000149,3,2,962.89999999851,1.0,1,object_05,1,2899,0,9,4,forest_5,2,memory-2step-stake-s,715,5558462,0.0-19.0-0.1-0.202,AGILQEFEPEK7N,3MQKOF1EF54KJDI76AN431783D3WDT,3ZY8KE4ISNJ4FGK1BOTU6IRG9VPQVE,4,3
203,4,object_08,object_02,811.89999999851,7,1,573.10000000149,0.8888888888888888,1,object_05,5,2939,0,8,2,restaurant_7,2,memory-2step-stake-s,716,5567178,0.0-19.0-0.1-0.203,AGILQEFEPEK7N,3MQKOF1EF54KJDI76AN431783D3WDT,3ZY8KE4ISNJ4FGK1BOTU6IRG9VPQVE,7,8
204,2,object_07,object_04,847.10000000149,3,1,866.0,1.0,1,object_05,5,2984,0,9,2,forest_4,2,memory-2step-stake-s,717,5576252,0.0-19.0-0.1-0.204,AGILQEFEPEK7N,3MQKOF1EF54KJDI76AN431783D3WDT,3ZY8KE4ISNJ4FGK1BOTU6IRG9VPQVE,3,4
205,3,object_09,object_06,705.5,5,2,655.19999999925,1.0,1,object_05,1,2993,0,9,3,library_5,2,memory-2step-stake-s,718,5585138,0.0-19.0-0.1-0.205,AGILQEFEPEK7N,3MQKOF1EF54KJDI76AN431783D3WDT,3ZY8KE4ISNJ4FGK1BOTU6IRG9VPQVE,6,5
206,1,object_10,object_01,666.10000000149,1,2,1082.0,1.0,1,object_05,5,3038,0,9,3,desert_5,2,memory-2step-stake-s,719,5594478,0.0-19.0-0.1-0.206,AGILQEFEPEK7N,3MQKOF1EF54KJDI76AN431783D3WDT,3ZY8KE4ISNJ4FGK1BOTU6IRG9VPQVE,2,1
207,1,object_10,object_01,568.80000000075,1,2,578.90000000224,0.8888888888888888,1,object_05,5,3078,0,8,0,desert_5,2,memory-2step-stake-s,720,5603171,0.0-19.0-0.1-0.207,AGILQEFEPEK7N,3MQKOF1EF54KJDI76AN431783D3WDT,3ZY8KE4ISNJ4FGK1BOTU6IRG9VPQVE,2,1
208,1,object_10,object_01,615.89999999851,1,2,1228.9000000022,0.7777777777777778,1,object_05,5,3113,0,7,1,desert_3,2,memory-2step-stake-s,721,5612446,0.0-19.0-0.1-0.208,AGILQEFEPEK7N,3MQKOF1EF54KJDI76AN431783D3WDT,3ZY8KE4ISNJ4FGK1BOTU6IRG9VPQVE,2,1
209,2,object_04,object_07,619.39999999851,3,2,530.79999999702,0.5555555555555556,1,object_05,1,3118,0,5,1,forest_7,2,memory-2step-stake-s,722,5620808,0.0-19.0-0.1-0.209,AGILQEFEPEK7N,3MQKOF1EF54KJDI76AN431783D3WDT,3ZY8KE4ISNJ4FGK1BOTU6IRG9VPQVE,4,3
210,1,object_01,object_10,463.10000000149,1,1,458.59999999776,0.6666666666666666,1,object_05,5,3148,0,6,0,desert_8,2,memory-2step-stake-s,723,5629202,0.0-19.0-0.1-0.210,AGILQEFEPEK7N,3MQKOF1EF54KJDI76AN431783D3WDT,3ZY8KE4ISNJ4FGK1BOTU6IRG9VPQVE,1,2
211,1,object_10,object_01,612.89999999851,1,2,631.80000000075,0.6666666666666666,1,object_05,1,3154,0,6,0,desert_4,2,memory-2step-stake-s,724,5637767,0.0-19.0-0.1-0.211,AGILQEFEPEK7N,3MQKOF1EF54KJDI76AN431783D3WDT,3ZY8KE4ISNJ4FGK1BOTU6IRG9VPQVE,2,1
212,4,object_02,object_08,679.39999999851,7,2,832.19999999925,0.4444444444444444,1,object_05,1,3158,0,4,1,restaurant_5,2,memory-2step-stake-s,725,5646303,0.0-19.0-0.1-0.212,AGILQEFEPEK7N,3MQKOF1EF54KJDI76AN431783D3WDT,3ZY8KE4ISNJ4FGK1BOTU6IRG9VPQVE,8,7
213,3,object_09,object_06,654.19999999925,5,2,672.5,0.2222222222222222,1,object_05,1,3160,0,2,0,library_8,2,memory-2step-stake-s,726,5654461,0.0-19.0-0.1-0.213,AGILQEFEPEK7N,3MQKOF1EF54KJDI76AN431783D3WDT,3ZY8KE4ISNJ4FGK1BOTU6IRG9VPQVE,6,5
214,4,object_02,object_08,1068.0,7,2,606.10000000149,0.6666666666666666,1,object_05,1,3166,0,6,1,restaurant_2,2,memory-2step-stake-s,727,5662986,0.0-19.0-0.1-0.214,AGILQEFEPEK7N,3MQKOF1EF54KJDI76AN431783D3WDT,3ZY8KE4ISNJ4FGK1BOTU6IRG9VPQVE,8,7
215,1,object_10,object_01,686.90000000224,1,2,648.30000000075,0.7777777777777778,1,object_05,5,3201,0,7,2,desert_4,2,memory-2step-stake-s,728,5671691,0.0-19.0-0.1-0.215,AGILQEFEPEK7N,3MQKOF1EF54KJDI76AN431783D3WDT,3ZY8KE4ISNJ4FGK1BOTU6IRG9VPQVE,2,1
216,3,object_06,object_09,690.69999999925,5,1,941.19999999925,0.6666666666666666,1,object_05,1,3207,0,6,0,library_8,2,memory-2step-stake-s,729,5680544,0.0-19.0-0.1-0.216,AGILQEFEPEK7N,3MQKOF1EF54KJDI76AN431783D3WDT,3ZY8KE4ISNJ4FGK1BOTU6IRG9VPQVE,5,6
217,3,object_06,object_09,684.30000000075,5,1,748.5,0.5555555555555556,1,object_05,1,3212,0,5,2,library_8,2,memory-2step-stake-s,730,5689112,0.0-19.0-0.1-0.217,AGILQEFEPEK7N,3MQKOF1EF54KJDI76AN431783D3WDT,3ZY8KE4ISNJ4FGK1BOTU6IRG9VPQVE,5,6
218,3,object_06,object_09,519.30000000075,5,1,506.69999999925,0.6666666666666666,1,object_05,1,3218,0,6,6,library_8,2,memory-2step-stake-s,731,5697523,0.0-19.0-0.1-0.218,AGILQEFEPEK7N,3MQKOF1EF54KJDI76AN431783D3WDT,3ZY8KE4ISNJ4FGK1BOTU6IRG9VPQVE,5,6
219,2,object_04,object_07,686.30000000075,3,2,733.20000000298,0.8888888888888888,1,object_05,1,3226,0,8,3,forest_4,2,memory-2step-stake-s,732,5706388,0.0-19.0-0.1-0.219,AGILQEFEPEK7N,3MQKOF1EF54KJDI76AN431783D3WDT,3ZY8KE4ISNJ4FGK1BOTU6IRG9VPQVE,4,3
220,3,object_09,object_06,588.90000000224,5,2,-1.0,0.0,1,object_05,1,3226,0,7,2,library_3,2,memory-2step-stake-s,733,5714954,0.0-19.0-0.1-0.220,AGILQEFEPEK7N,3MQKOF1EF54KJDI76AN431783D3WDT,3ZY8KE4ISNJ4FGK1BOTU6IRG9VPQVE,6,5
221,4,object_08,object_02,679.39999999851,7,1,735.5,0.8888888888888888,1,object_05,1,3234,0,8,0,restaurant_7,2,memory-2step-stake-s,734,5723804,0.0-19.0-0.1-0.221,AGILQEFEPEK7N,3MQKOF1EF54KJDI76AN431783D3WDT,3ZY8KE4ISNJ4FGK1BOTU6IRG9VPQVE,7,8
222,2,object_04,object_07,568.89999999851,3,2,807.80000000075,0.7777777777777778,1,object_05,5,3269,0,7,0,forest_5,2,memory-2step-stake-s,735,5732662,0.0-19.0-0.1-0.222,AGILQEFEPEK7N,3MQKOF1EF54KJDI76AN431783D3WDT,3ZY8KE4ISNJ4FGK1BOTU6IRG9VPQVE,4,3
223,1,object_01,object_10,668.60000000149,1,1,653.0,0.5555555555555556,1,object_05,5,3294,0,5,2,desert_4,2,memory-2step-stake-s,736,5741151,0.0-19.0-0.1-0.223,AGILQEFEPEK7N,3MQKOF1EF54KJDI76AN431783D3WDT,3ZY8KE4ISNJ4FGK1BOTU6IRG9VPQVE,1,2
224,3,object_09,object_06,573.69999999925,5,2,572.69999999925,0.2222222222222222,1,object_05,1,3296,0,2,1,library_4,2,memory-2step-stake-s,737,5749211,0.0-19.0-0.1-0.224,AGILQEFEPEK7N,3MQKOF1EF54KJDI76AN431783D3WDT,3ZY8KE4ISNJ4FGK1BOTU6IRG9VPQVE,6,5
225,4,object_02,object_08,663.59999999776,7,2,576.29999999702,0.0,1,object_05,1,3296,0,0,2,restaurant_4,2,memory-2step-stake-s,738,5757044,0.0-19.0-0.1-0.225,AGILQEFEPEK7N,3MQKOF1EF54KJDI76AN431783D3WDT,3ZY8KE4ISNJ4FGK1BOTU6IRG9VPQVE,8,7
226,2,object_04,object_07,673.90000000224,3,2,599.5,0.0,1,object_05,5,3296,0,0,0,forest_3,2,memory-2step-stake-s,739,5764910,0.0-19.0-0.1-0.226,AGILQEFEPEK7N,3MQKOF1EF54KJDI76AN431783D3WDT,3ZY8KE4ISNJ4FGK1BOTU6IRG9VPQVE,4,3
227,1,object_10,object_01,1003.0,2,1,570.30000000075,0.2222222222222222,2,object_03,5,3306,0,1,2,desert_8,2,memory-2step-stake-s,740,5772964,0.0-19.0-0.1-0.227,AGILQEFEPEK7N,3MQKOF1EF54KJDI76AN431783D3WDT,3ZY8KE4ISNJ4FGK1BOTU6IRG9VPQVE,2,1
228,3,object_06,object_09,581.59999999776,5,1,661.89999999851,0.1111111111111111,1,object_05,1,3307,0,1,4,library_3,2,memory-2step-stake-s,741,5781011,0.0-19.0-0.1-0.228,AGILQEFEPEK7N,3MQKOF1EF54KJDI76AN431783D3WDT,3ZY8KE4ISNJ4FGK1BOTU6IRG9VPQVE,5,6
229,3,object_06,object_09,527.0,6,2,523.39999999851,0.4444444444444444,2,object_03,1,3311,0,5,4,library_8,2,memory-2step-stake-s,742,5789222,0.0-19.0-0.1-0.229,AGILQEFEPEK7N,3MQKOF1EF54KJDI76AN431783D3WDT,3ZY8KE4ISNJ4FGK1BOTU6IRG9VPQVE,5,6
230,1,object_01,object_10,605.69999999925,2,2,535.89999999851,0.5555555555555556,2,object_03,5,3336,0,4,5,desert_3,2,memory-2step-stake-s,743,5797561,0.0-19.0-0.1-0.230,AGILQEFEPEK7N,3MQKOF1EF54KJDI76AN431783D3WDT,3ZY8KE4ISNJ4FGK1BOTU6IRG9VPQVE,1,2
231,4,object_08,object_02,1321.3999999985,7,1,429.19999999925,0.4444444444444444,1,object_05,5,3356,0,4,6,restaurant_5,2,memory-2step-stake-s,744,5805673,0.0-19.0-0.1-0.231,AGILQEFEPEK7N,3MQKOF1EF54KJDI76AN431783D3WDT,3ZY8KE4ISNJ4FGK1BOTU6IRG9VPQVE,7,8
232,4,object_08,object_02,578.39999999851,7,1,561.60000000149,0.1111111111111111,1,object_05,1,3357,0,1,2,restaurant_7,2,memory-2step-stake-s,745,5813625,0.0-19.0-0.1-0.232,AGILQEFEPEK7N,3MQKOF1EF54KJDI76AN431783D3WDT,3ZY8KE4ISNJ4FGK1BOTU6IRG9VPQVE,7,8
233,2,object_04,object_07,844.19999999925,3,2,595.39999999851,0.0,1,object_05,5,3357,0,0,5,forest_7,2,memory-2step-stake-s,746,5821487,0.0-19.0-0.1-0.233,AGILQEFEPEK7N,3MQKOF1EF54KJDI76AN431783D3WDT,3ZY8KE4ISNJ4FGK1BOTU6IRG9VPQVE,4,3
234,3,object_09,object_06,688.10000000149,6,1,652.60000000149,0.3333333333333333,2,object_03,1,3360,0,1,3,library_4,2,memory-2step-stake-s,747,5829726,0.0-19.0-0.1-0.234,AGILQEFEPEK7N,3MQKOF1EF54KJDI76AN431783D3WDT,3ZY8KE4ISNJ4FGK1BOTU6IRG9VPQVE,6,5
235,4,object_08,object_02,1163.1999999993,7,1,613.39999999851,0.2222222222222222,1,object_05,5,3370,0,2,3,restaurant_4,2,memory-2step-stake-s,748,5837832,0.0-19.0-0.1-0.235,AGILQEFEPEK7N,3MQKOF1EF54KJDI76AN431783D3WDT,3ZY8KE4ISNJ4FGK1BOTU6IRG9VPQVE,7,8
236,2,object_07,object_04,617.39999999851,4,2,461.59999999776,0.3333333333333333,2,object_03,1,3373,0,2,3,forest_4,2,memory-2step-stake-s,749,5845868,0.0-19.0-0.1-0.236,AGILQEFEPEK7N,3MQKOF1EF54KJDI76AN431783D3WDT,3ZY8KE4ISNJ4FGK1BOTU6IRG9VPQVE,3,4
237,3,object_06,object_09,768.80000000075,6,2,703.30000000075,0.4444444444444444,2,object_03,1,3377,0,3,4,library_5,2,memory-2step-stake-s,750,5854265,0.0-19.0-0.1-0.237,AGILQEFEPEK7N,3MQKOF1EF54KJDI76AN431783D3WDT,3ZY8KE4ISNJ4FGK1BOTU6IRG9VPQVE,5,6
238,3,object_06,object_09,736.89999999851,5,1,598.19999999925,0.5555555555555556,1,object_05,1,3382,0,5,2,library_4,2,memory-2step-stake-s,751,5862663,0.0-19.0-0.1-0.238,AGILQEFEPEK7N,3MQKOF1EF54KJDI76AN431783D3WDT,3ZY8KE4ISNJ4FGK1BOTU6IRG9VPQVE,5,6
239,4,object_08,object_02,1345.6000000015,7,1,753.5,0.4444444444444444,1,object_05,1,3386,0,4,7,restaurant_4,2,memory-2step-stake-s,752,5871095,0.0-19.0-0.1-0.239,AGILQEFEPEK7N,3MQKOF1EF54KJDI76AN431783D3WDT,3ZY8KE4ISNJ4FGK1BOTU6IRG9VPQVE,7,8
240,4,object_08,object_02,598.60000000149,8,2,454.29999999702,0.7777777777777778,2,object_03,1,3393,0,5,7,restaurant_4,2,memory-2step-stake-s,753,5879575,0.0-19.0-0.1-0.240,AGILQEFEPEK7N,3MQKOF1EF54KJDI76AN431783D3WDT,3ZY8KE4ISNJ4FGK1BOTU6IRG9VPQVE,7,8
241,3,object_06,object_09,632.0,6,2,596.90000000224,0.7777777777777778,2,object_03,1,3400,0,3,7,library_4,2,memory-2step-stake-s,754,5888187,0.0-19.0-0.1-0.241,AGILQEFEPEK7N,3MQKOF1EF54KJDI76AN431783D3WDT,3ZY8KE4ISNJ4FGK1BOTU6IRG9VPQVE,5,6
242,4,object_08,object_02,-1.0,-1,-1,-1.0,0.0,-,0,1,3400,0,2,7,restaurant_2,2,memory-2step-stake-s,755,5894753,0.0-19.0-0.1-0.242,AGILQEFEPEK7N,3MQKOF1EF54KJDI76AN431783D3WDT,3ZY8KE4ISNJ4FGK1BOTU6IRG9VPQVE,7,8
243,1,object_01,object_10,805.0,2,2,532.10000000149,0.4444444444444444,2,object_03,5,3420,0,0,4,desert_5,2,memory-2step-stake-s,756,5903003,0.0-19.0-0.1-0.243,AGILQEFEPEK7N,3MQKOF1EF54KJDI76AN431783D3WDT,3ZY8KE4ISNJ4FGK1BOTU6IRG9VPQVE,1,2
244,3,object_09,object_06,933.79999999702,6,1,613.40000000224,0.6666666666666666,2,object_03,5,3450,0,2,6,library_5,2,memory-2step-stake-s,757,5911625,0.0-19.0-0.1-0.244,AGILQEFEPEK7N,3MQKOF1EF54KJDI76AN431783D3WDT,3ZY8KE4ISNJ4FGK1BOTU6IRG9VPQVE,6,5
245,3,object_09,object_06,1321.8000000007,6,1,902.10000000149,0.7777777777777778,2,object_03,1,3457,0,3,7,library_3,2,memory-2step-stake-s,758,5920538,0.0-19.0-0.1-0.245,AGILQEFEPEK7N,3MQKOF1EF54KJDI76AN431783D3WDT,3ZY8KE4ISNJ4FGK1BOTU6IRG9VPQVE,6,5
246,1,object_01,object_10,599.39999999851,2,2,653.89999999851,0.5555555555555556,2,object_03,5,3482,0,1,5,desert_3,2,memory-2step-stake-s,759,5929038,0.0-19.0-0.1-0.246,AGILQEFEPEK7N,3MQKOF1EF54KJDI76AN431783D3WDT,3ZY8KE4ISNJ4FGK1BOTU6IRG9VPQVE,1,2
247,1,object_01,object_10,1046.1999999993,2,2,-1.0,0.0,2,object_03,5,3482,0,2,7,desert_5,2,memory-2step-stake-s,760,5937616,0.0-19.0-0.1-0.247,AGILQEFEPEK7N,3MQKOF1EF54KJDI76AN431783D3WDT,3ZY8KE4ISNJ4FGK1BOTU6IRG9VPQVE,1,2
248,3,object_06,object_09,893.60000000149,6,2,688.60000000149,1.0,2,object_03,5,3527,0,1,9,library_3,2,memory-2step-stake-s,761,5946559,0.0-19.0-0.1-0.248,AGILQEFEPEK7N,3MQKOF1EF54KJDI76AN431783D3WDT,3ZY8KE4ISNJ4FGK1BOTU6IRG9VPQVE,5,6
249,1,object_01,object_10,970.20000000298,2,2,689.69999999925,0.8888888888888888,2,object_03,5,3567,0,7,8,desert_4,2,memory-2step-stake-s,762,5955382,0.0-19.0-0.1-0.249,AGILQEFEPEK7N,3MQKOF1EF54KJDI76AN431783D3WDT,3ZY8KE4ISNJ4FGK1BOTU6IRG9VPQVE,1,2
250,2,object_04,object_07,936.30000000075,3,2,497.29999999702,0.7777777777777778,1,object_05,5,3602,0,7,7,forest_7,2,memory-2step-stake-s,763,5963902,0.0-19.0-0.1-0.250,AGILQEFEPEK7N,3MQKOF1EF54KJDI76AN431783D3WDT,3ZY8KE4ISNJ4FGK1BOTU6IRG9VPQVE,4,3
251,4,object_02,object_08,730.0,7,2,525.10000000149,0.7777777777777778,1,object_05,1,3609,0,7,7,restaurant_7,2,memory-2step-stake-s,764,5974419,0.0-19.0-0.1-0.251,AGILQEFEPEK7N,3MQKOF1EF54KJDI76AN431783D3WDT,3ZY8KE4ISNJ4FGK1BOTU6IRG9VPQVE,8,7
252,4,object_08,object_02,-1.0,-1,-1,-1.0,0.0,-,0,1,3609,0,8,8,restaurant_2,2,memory-2step-stake-s,765,5983449,0.0-19.0-0.1-0.252,AGILQEFEPEK7N,3MQKOF1EF54KJDI76AN431783D3WDT,3ZY8KE4ISNJ4FGK1BOTU6IRG9VPQVE,7,8
253,2,object_04,object_07,-1.0,-1,-1,-1.0,0.0,-,0,5,3609,0,8,8,forest_5,2,memory-2step-stake-s,766,5989995,0.0-19.0-0.1-0.253,AGILQEFEPEK7N,3MQKOF1EF54KJDI76AN431783D3WDT,3ZY8KE4ISNJ4FGK1BOTU6IRG9VPQVE,4,3
254,3,object_06,object_09,1241.799999997,5,1,779.20000000298,0.8888888888888888,1,object_05,1,3617,0,8,9,library_3,2,memory-2step-stake-s,767,5998910,0.0-19.0-0.1-0.254,AGILQEFEPEK7N,3MQKOF1EF54KJDI76AN431783D3WDT,3ZY8KE4ISNJ4FGK1BOTU6IRG9VPQVE,5,6
255,3,object_09,object_06,770.89999999851,6,1,891.19999999925,0.8888888888888888,2,object_03,1,3625,0,8,8,library_3,2,memory-2step-stake-s,768,6007951,0.0-19.0-0.1-0.255,AGILQEFEPEK7N,3MQKOF1EF54KJDI76AN431783D3WDT,3ZY8KE4ISNJ4FGK1BOTU6IRG9VPQVE,6,5
