,state1,stim_left,stim_right,rt_1,choice1,response1,rt_2,points,state2,stim_state2,stake,score,practice,rews1,rews2,background,high_arm,trial_type,trial_index,time_elapsed,internal_node_id,subid,hitid,assignmentid,stim_left_num,stim_right_num
0,4,object_07,object_06,1348.6999998093,8,1,-1.0,0.0,2,object_02,1,0,0,2,1,restaurant_6,2,memory-2step-stake-s,492,824877,0.0-19.0-0.0-0.0,A2BPXWBO2OSJRP,3QX22DUVPRXA8IOFTTHB0PBO5I3MV1,31IBVUNM9WF7ORUSX8I0UJN22VKFVH,8,7
1,4,object_06,object_07,483.90000009537,8,2,475.0,0.2222222222222222,2,object_02,1,2,0,1,2,restaurant_6,2,memory-2step-stake-s,493,832802,0.0-19.0-0.0-0.1,A2BPXWBO2OSJRP,3QX22DUVPRXA8IOFTTHB0PBO5I3MV1,31IBVUNM9WF7ORUSX8I0UJN22VKFVH,7,8
2,3,object_03,object_10,938.40000009537,6,1,686.2999997139,0.1111111111111111,2,object_02,1,3,0,1,1,library_5,2,memory-2step-stake-s,494,840831,0.0-19.0-0.0-0.2,A2BPXWBO2OSJRP,3QX22DUVPRXA8IOFTTHB0PBO5I3MV1,31IBVUNM9WF7ORUSX8I0UJN22VKFVH,6,5
3,4,object_07,object_06,704.89999961853,7,2,1088.5,0.2222222222222222,1,object_01,1,5,0,2,1,restaurant_5,2,memory-2step-stake-s,495,849369,0.0-19.0-0.0-0.3,A2BPXWBO2OSJRP,3QX22DUVPRXA8IOFTTHB0PBO5I3MV1,31IBVUNM9WF7ORUSX8I0UJN22VKFVH,8,7
4,2,object_05,object_04,869.7999997139,4,1,765.90000009537,0.3333333333333333,2,object_02,1,8,0,5,3,forest_6,2,memory-2step-stake-s,496,857688,0.0-19.0-0.0-0.4,A2BPXWBO2OSJRP,3QX22DUVPRXA8IOFTTHB0PBO5I3MV1,31IBVUNM9WF7ORUSX8I0UJN22VKFVH,4,3
5,4,object_06,object_07,997.89999961853,7,1,434.60000038147,0.2222222222222222,1,object_01,1,10,0,2,2,restaurant_5,2,memory-2step-stake-s,497,865574,0.0-19.0-0.0-0.5,A2BPXWBO2OSJRP,3QX22DUVPRXA8IOFTTHB0PBO5I3MV1,31IBVUNM9WF7ORUSX8I0UJN22VKFVH,7,8
6,1,object_08,object_09,886.40000009537,2,2,674.40000009537,0.1111111111111111,2,object_02,1,11,0,5,1,desert_6,2,memory-2step-stake-s,498,873594,0.0-19.0-0.0-0.6,A2BPXWBO2OSJRP,3QX22DUVPRXA8IOFTTHB0PBO5I3MV1,31IBVUNM9WF7ORUSX8I0UJN22VKFVH,1,2
7,2,object_04,object_05,844.90000009537,3,1,624.5,0.6666666666666666,1,object_01,5,41,0,6,3,forest_4,2,memory-2step-stake-s,499,882087,0.0-19.0-0.0-0.7,A2BPXWBO2OSJRP,3QX22DUVPRXA8IOFTTHB0PBO5I3MV1,31IBVUNM9WF7ORUSX8I0UJN22VKFVH,3,4
8,3,object_10,object_03,978.59999990463,5,1,503.59999990463,0.7777777777777778,1,object_01,5,76,0,7,2,library_5,2,memory-2step-stake-s,500,890568,0.0-19.0-0.0-0.8,A2BPXWBO2OSJRP,3QX22DUVPRXA8IOFTTHB0PBO5I3MV1,31IBVUNM9WF7ORUSX8I0UJN22VKFVH,5,6
9,1,object_09,object_08,977.5,1,2,421.80000019073,0.5555555555555556,1,object_01,5,101,0,5,4,desert_8,2,memory-2step-stake-s,501,898754,0.0-19.0-0.0-0.9,A2BPXWBO2OSJRP,3QX22DUVPRXA8IOFTTHB0PBO5I3MV1,31IBVUNM9WF7ORUSX8I0UJN22VKFVH,2,1
10,1,object_08,object_09,905.90000009537,1,1,465.69999980927,0.6666666666666666,1,object_01,5,131,0,6,1,desert_2,2,memory-2step-stake-s,502,907085,0.0-19.0-0.0-0.10,A2BPXWBO2OSJRP,3QX22DUVPRXA8IOFTTHB0PBO5I3MV1,31IBVUNM9WF7ORUSX8I0UJN22VKFVH,1,2
11,3,object_03,object_10,844.2000002861,5,2,724.40000009537,0.2222222222222222,1,object_01,5,141,0,2,1,library_6,2,memory-2step-stake-s,503,915257,0.0-19.0-0.0-0.11,A2BPXWBO2OSJRP,3QX22DUVPRXA8IOFTTHB0PBO5I3MV1,31IBVUNM9WF7ORUSX8I0UJN22VKFVH,6,5
12,3,object_10,object_03,1210.5,6,2,591.39999961853,0.1111111111111111,2,object_02,1,142,0,2,1,library_6,2,memory-2step-stake-s,504,923193,0.0-19.0-0.0-0.12,A2BPXWBO2OSJRP,3QX22DUVPRXA8IOFTTHB0PBO5I3MV1,31IBVUNM9WF7ORUSX8I0UJN22VKFVH,5,6
13,4,object_07,object_06,872.90000009537,8,1,473.80000019073,0.1111111111111111,2,object_02,1,143,0,3,1,restaurant_5,2,memory-2step-stake-s,505,931012,0.0-19.0-0.0-0.13,A2BPXWBO2OSJRP,3QX22DUVPRXA8IOFTTHB0PBO5I3MV1,31IBVUNM9WF7ORUSX8I0UJN22VKFVH,8,7
14,3,object_10,object_03,954.0,6,2,498.59999990463,0.4444444444444444,2,object_02,1,147,0,4,4,library_1,2,memory-2step-stake-s,506,939168,0.0-19.0-0.0-0.14,A2BPXWBO2OSJRP,3QX22DUVPRXA8IOFTTHB0PBO5I3MV1,31IBVUNM9WF7ORUSX8I0UJN22VKFVH,5,6
15,1,object_09,object_08,762.59999990463,1,2,442.7999997139,0.4444444444444444,1,object_01,5,167,0,4,8,desert_1,2,memory-2step-stake-s,507,947268,0.0-19.0-0.0-0.15,A2BPXWBO2OSJRP,3QX22DUVPRXA8IOFTTHB0PBO5I3MV1,31IBVUNM9WF7ORUSX8I0UJN22VKFVH,2,1
16,4,object_06,object_07,942.80000019073,7,1,490.80000019073,0.6666666666666666,1,object_01,5,197,0,6,6,restaurant_5,2,memory-2step-stake-s,508,955626,0.0-19.0-0.0-0.16,A2BPXWBO2OSJRP,3QX22DUVPRXA8IOFTTHB0PBO5I3MV1,31IBVUNM9WF7ORUSX8I0UJN22VKFVH,7,8
17,2,object_04,object_05,1121.7000002861,3,1,696.0,0.5555555555555556,1,object_01,5,222,0,5,6,forest_3,2,memory-2step-stake-s,509,964083,0.0-19.0-0.0-0.17,A2BPXWBO2OSJRP,3QX22DUVPRXA8IOFTTHB0PBO5I3MV1,31IBVUNM9WF7ORUSX8I0UJN22VKFVH,3,4
18,1,object_08,object_09,1251.2000002861,1,1,532.90000009537,0.6666666666666666,1,object_01,1,228,0,6,7,desert_6,2,memory-2step-stake-s,510,972483,0.0-19.0-0.0-0.18,A2BPXWBO2OSJRP,3QX22DUVPRXA8IOFTTHB0PBO5I3MV1,31IBVUNM9WF7ORUSX8I0UJN22VKFVH,1,2
19,2,object_04,object_05,699.90000009537,4,2,482.90000009537,0.5555555555555556,2,object_02,5,253,0,5,5,forest_6,2,memory-2step-stake-s,511,980726,0.0-19.0-0.0-0.19,A2BPXWBO2OSJRP,3QX22DUVPRXA8IOFTTHB0PBO5I3MV1,31IBVUNM9WF7ORUSX8I0UJN22VKFVH,3,4
20,2,object_04,object_05,611.59999990463,4,2,407.39999961853,0.6666666666666666,2,object_02,1,259,0,5,6,forest_3,2,memory-2step-stake-s,512,988999,0.0-19.0-0.0-0.20,A2BPXWBO2OSJRP,3QX22DUVPRXA8IOFTTHB0PBO5I3MV1,31IBVUNM9WF7ORUSX8I0UJN22VKFVH,3,4
21,1,object_09,object_08,1165.7999997139,1,2,540.5,0.7777777777777778,1,object_01,5,294,0,7,5,desert_6,2,memory-2step-stake-s,513,997514,0.0-19.0-0.0-0.21,A2BPXWBO2OSJRP,3QX22DUVPRXA8IOFTTHB0PBO5I3MV1,31IBVUNM9WF7ORUSX8I0UJN22VKFVH,2,1
22,4,object_06,object_07,1136.3000001907,7,1,512.80000019073,0.7777777777777778,1,object_01,5,329,0,7,7,restaurant_3,2,memory-2step-stake-s,514,1005996,0.0-19.0-0.0-0.22,A2BPXWBO2OSJRP,3QX22DUVPRXA8IOFTTHB0PBO5I3MV1,31IBVUNM9WF7ORUSX8I0UJN22VKFVH,7,8
23,3,object_03,object_10,1177.0999999046,6,1,571.0,1.0,2,object_02,5,374,0,6,9,library_2,2,memory-2step-stake-s,515,1014738,0.0-19.0-0.0-0.23,A2BPXWBO2OSJRP,3QX22DUVPRXA8IOFTTHB0PBO5I3MV1,31IBVUNM9WF7ORUSX8I0UJN22VKFVH,6,5
24,2,object_04,object_05,1320.1999998093,4,2,654.10000038147,0.7777777777777778,2,object_02,5,409,0,8,7,forest_6,2,memory-2step-stake-s,516,1023353,0.0-19.0-0.0-0.24,A2BPXWBO2OSJRP,3QX22DUVPRXA8IOFTTHB0PBO5I3MV1,31IBVUNM9WF7ORUSX8I0UJN22VKFVH,3,4
25,3,object_10,object_03,951.19999980927,6,2,597.2000002861,1.0,2,object_02,1,418,0,7,9,library_6,2,memory-2step-stake-s,517,1032136,0.0-19.0-0.0-0.25,A2BPXWBO2OSJRP,3QX22DUVPRXA8IOFTTHB0PBO5I3MV1,31IBVUNM9WF7ORUSX8I0UJN22VKFVH,5,6
26,1,object_09,object_08,918.19999980927,2,1,436.59999990463,0.8888888888888888,2,object_02,5,458,0,6,8,desert_8,2,memory-2step-stake-s,518,1040635,0.0-19.0-0.0-0.26,A2BPXWBO2OSJRP,3QX22DUVPRXA8IOFTTHB0PBO5I3MV1,31IBVUNM9WF7ORUSX8I0UJN22VKFVH,2,1
27,4,object_07,object_06,790.40000009537,7,2,605.7000002861,0.5555555555555556,1,object_01,1,463,0,5,5,restaurant_2,2,memory-2step-stake-s,519,1048991,0.0-19.0-0.0-0.27,A2BPXWBO2OSJRP,3QX22DUVPRXA8IOFTTHB0PBO5I3MV1,31IBVUNM9WF7ORUSX8I0UJN22VKFVH,8,7
28,1,object_09,object_08,1156.1000003815,2,1,340.0,0.3333333333333333,2,object_02,1,466,0,4,3,desert_2,2,memory-2step-stake-s,520,1056880,0.0-19.0-0.0-0.28,A2BPXWBO2OSJRP,3QX22DUVPRXA8IOFTTHB0PBO5I3MV1,31IBVUNM9WF7ORUSX8I0UJN22VKFVH,2,1
29,1,object_08,object_09,1035.2000002861,1,1,556.89999961853,0.3333333333333333,1,object_01,5,481,0,3,5,desert_6,2,memory-2step-stake-s,521,1064986,0.0-19.0-0.0-0.29,A2BPXWBO2OSJRP,3QX22DUVPRXA8IOFTTHB0PBO5I3MV1,31IBVUNM9WF7ORUSX8I0UJN22VKFVH,1,2
30,1,object_08,object_09,656.19999980927,2,2,407.0,0.4444444444444444,2,object_02,5,501,0,2,4,desert_8,2,memory-2step-stake-s,522,1073054,0.0-19.0-0.0-0.30,A2BPXWBO2OSJRP,3QX22DUVPRXA8IOFTTHB0PBO5I3MV1,31IBVUNM9WF7ORUSX8I0UJN22VKFVH,1,2
31,1,object_08,object_09,819.80000019073,1,1,483.0,0.2222222222222222,1,object_01,5,511,0,2,3,desert_1,2,memory-2step-stake-s,523,1080987,0.0-19.0-0.0-0.31,A2BPXWBO2OSJRP,3QX22DUVPRXA8IOFTTHB0PBO5I3MV1,31IBVUNM9WF7ORUSX8I0UJN22VKFVH,1,2
32,1,object_08,object_09,1143.8000001907,1,1,396.30000019073,0.1111111111111111,1,object_01,5,516,0,1,1,desert_1,2,memory-2step-stake-s,524,1088722,0.0-19.0-0.0-0.32,A2BPXWBO2OSJRP,3QX22DUVPRXA8IOFTTHB0PBO5I3MV1,31IBVUNM9WF7ORUSX8I0UJN22VKFVH,1,2
33,2,object_04,object_05,620.7000002861,4,2,408.09999990463,0.2222222222222222,2,object_02,5,526,0,0,2,forest_6,2,memory-2step-stake-s,525,1096571,0.0-19.0-0.0-0.33,A2BPXWBO2OSJRP,3QX22DUVPRXA8IOFTTHB0PBO5I3MV1,31IBVUNM9WF7ORUSX8I0UJN22VKFVH,3,4
34,3,object_10,object_03,841.2000002861,6,2,410.19999980927,0.1111111111111111,2,object_02,5,531,0,1,1,library_6,2,memory-2step-stake-s,526,1104322,0.0-19.0-0.0-0.34,A2BPXWBO2OSJRP,3QX22DUVPRXA8IOFTTHB0PBO5I3MV1,31IBVUNM9WF7ORUSX8I0UJN22VKFVH,5,6
35,4,object_07,object_06,1021.8000001907,7,2,543.60000038147,0.1111111111111111,1,object_01,1,532,0,1,3,restaurant_2,2,memory-2step-stake-s,527,1112204,0.0-19.0-0.0-0.35,A2BPXWBO2OSJRP,3QX22DUVPRXA8IOFTTHB0PBO5I3MV1,31IBVUNM9WF7ORUSX8I0UJN22VKFVH,8,7
36,3,object_03,object_10,679.40000009537,6,1,470.30000019073,0.3333333333333333,2,object_02,1,535,0,3,3,library_1,2,memory-2step-stake-s,528,1120221,0.0-19.0-0.0-0.36,A2BPXWBO2OSJRP,3QX22DUVPRXA8IOFTTHB0PBO5I3MV1,31IBVUNM9WF7ORUSX8I0UJN22VKFVH,6,5
37,1,object_08,object_09,742.69999980927,1,1,485.19999980927,0.1111111111111111,1,object_01,5,540,0,1,3,desert_1,2,memory-2step-stake-s,529,1128046,0.0-19.0-0.0-0.37,A2BPXWBO2OSJRP,3QX22DUVPRXA8IOFTTHB0PBO5I3MV1,31IBVUNM9WF7ORUSX8I0UJN22VKFVH,1,2
38,3,object_10,object_03,966.59999990463,5,1,461.90000009537,0.4444444444444444,1,object_01,1,544,0,4,5,library_5,2,memory-2step-stake-s,530,1136161,0.0-19.0-0.0-0.38,A2BPXWBO2OSJRP,3QX22DUVPRXA8IOFTTHB0PBO5I3MV1,31IBVUNM9WF7ORUSX8I0UJN22VKFVH,5,6
39,1,object_08,object_09,756.0,1,1,629.0,0.6666666666666666,1,object_01,5,574,0,6,8,desert_8,2,memory-2step-stake-s,531,1144648,0.0-19.0-0.0-0.39,A2BPXWBO2OSJRP,3QX22DUVPRXA8IOFTTHB0PBO5I3MV1,31IBVUNM9WF7ORUSX8I0UJN22VKFVH,1,2
40,3,object_10,object_03,749.2999997139,6,2,408.7999997139,0.7777777777777778,2,object_02,1,581,0,7,7,library_6,2,memory-2step-stake-s,532,1153020,0.0-19.0-0.0-0.40,A2BPXWBO2OSJRP,3QX22DUVPRXA8IOFTTHB0PBO5I3MV1,31IBVUNM9WF7ORUSX8I0UJN22VKFVH,5,6
41,2,object_04,object_05,1170.0999999046,4,2,-1.0,0.0,2,object_02,5,581,0,6,6,forest_4,2,memory-2step-stake-s,533,1161552,0.0-19.0-0.0-0.41,A2BPXWBO2OSJRP,3QX22DUVPRXA8IOFTTHB0PBO5I3MV1,31IBVUNM9WF7ORUSX8I0UJN22VKFVH,3,4
42,3,object_03,object_10,1027.5999999046,5,2,606.0,0.7777777777777778,1,object_01,1,588,0,7,6,library_6,2,memory-2step-stake-s,534,1170121,0.0-19.0-0.0-0.42,A2BPXWBO2OSJRP,3QX22DUVPRXA8IOFTTHB0PBO5I3MV1,31IBVUNM9WF7ORUSX8I0UJN22VKFVH,6,5
43,3,object_10,object_03,722.7999997139,5,1,442.40000009537,0.6666666666666666,1,object_01,1,594,0,6,7,library_2,2,memory-2step-stake-s,535,1178425,0.0-19.0-0.0-0.43,A2BPXWBO2OSJRP,3QX22DUVPRXA8IOFTTHB0PBO5I3MV1,31IBVUNM9WF7ORUSX8I0UJN22VKFVH,5,6
44,4,object_06,object_07,1183.3000001907,8,2,401.90000009537,0.8888888888888888,2,object_02,1,602,0,6,8,restaurant_6,2,memory-2step-stake-s,536,1186899,0.0-19.0-0.0-0.44,A2BPXWBO2OSJRP,3QX22DUVPRXA8IOFTTHB0PBO5I3MV1,31IBVUNM9WF7ORUSX8I0UJN22VKFVH,7,8
45,1,object_08,object_09,708.59999990463,1,1,537.2000002861,0.4444444444444444,1,object_01,5,622,0,4,8,desert_8,2,memory-2step-stake-s,537,1195088,0.0-19.0-0.0-0.45,A2BPXWBO2OSJRP,3QX22DUVPRXA8IOFTTHB0PBO5I3MV1,31IBVUNM9WF7ORUSX8I0UJN22VKFVH,1,2
46,3,object_03,object_10,954.90000009537,5,2,505.80000019073,0.3333333333333333,1,object_01,1,625,0,3,7,library_2,2,memory-2step-stake-s,538,1203139,0.0-19.0-0.0-0.46,A2BPXWBO2OSJRP,3QX22DUVPRXA8IOFTTHB0PBO5I3MV1,31IBVUNM9WF7ORUSX8I0UJN22VKFVH,6,5
47,1,object_08,object_09,724.69999980927,1,1,401.5,0.6666666666666666,1,object_01,1,631,0,6,8,desert_2,2,memory-2step-stake-s,539,1211399,0.0-19.0-0.0-0.47,A2BPXWBO2OSJRP,3QX22DUVPRXA8IOFTTHB0PBO5I3MV1,31IBVUNM9WF7ORUSX8I0UJN22VKFVH,1,2
48,2,object_05,object_04,720.0,4,1,418.2999997139,0.7777777777777778,2,object_02,5,666,0,5,7,forest_7,2,memory-2step-stake-s,540,1219784,0.0-19.0-0.0-0.48,A2BPXWBO2OSJRP,3QX22DUVPRXA8IOFTTHB0PBO5I3MV1,31IBVUNM9WF7ORUSX8I0UJN22VKFVH,4,3
49,1,object_08,object_09,883.59999990463,1,1,456.7000002861,0.4444444444444444,1,object_01,5,686,0,4,9,desert_6,2,memory-2step-stake-s,541,1227892,0.0-19.0-0.0-0.49,A2BPXWBO2OSJRP,3QX22DUVPRXA8IOFTTHB0PBO5I3MV1,31IBVUNM9WF7ORUSX8I0UJN22VKFVH,1,2
50,4,object_06,object_07,1185.5,7,1,530.0,0.5555555555555556,1,object_01,1,691,0,5,7,restaurant_6,2,memory-2step-stake-s,542,1236181,0.0-19.0-0.0-0.50,A2BPXWBO2OSJRP,3QX22DUVPRXA8IOFTTHB0PBO5I3MV1,31IBVUNM9WF7ORUSX8I0UJN22VKFVH,7,8
51,4,object_07,object_06,758.5,7,2,437.09999990463,0.7777777777777778,1,object_01,1,698,0,7,8,restaurant_3,2,memory-2step-stake-s,543,1244586,0.0-19.0-0.0-0.51,A2BPXWBO2OSJRP,3QX22DUVPRXA8IOFTTHB0PBO5I3MV1,31IBVUNM9WF7ORUSX8I0UJN22VKFVH,8,7
52,4,object_07,object_06,604.5,8,1,372.40000009537,0.7777777777777778,2,object_02,1,705,0,8,7,restaurant_3,2,memory-2step-stake-s,544,1252919,0.0-19.0-0.0-0.52,A2BPXWBO2OSJRP,3QX22DUVPRXA8IOFTTHB0PBO5I3MV1,31IBVUNM9WF7ORUSX8I0UJN22VKFVH,8,7
53,3,object_03,object_10,770.0,5,2,592.7000002861,0.7777777777777778,1,object_01,1,712,0,7,8,library_5,2,memory-2step-stake-s,545,1261476,0.0-19.0-0.0-0.53,A2BPXWBO2OSJRP,3QX22DUVPRXA8IOFTTHB0PBO5I3MV1,31IBVUNM9WF7ORUSX8I0UJN22VKFVH,6,5
54,1,object_09,object_08,1107.0,2,1,465.09999990463,1.0,2,object_02,5,757,0,6,9,desert_2,2,memory-2step-stake-s,546,1270117,0.0-19.0-0.0-0.54,A2BPXWBO2OSJRP,3QX22DUVPRXA8IOFTTHB0PBO5I3MV1,31IBVUNM9WF7ORUSX8I0UJN22VKFVH,2,1
55,3,object_10,object_03,844.19999980927,6,2,1036.5,0.8888888888888888,2,object_02,1,765,0,5,8,library_2,2,memory-2step-stake-s,547,1279227,0.0-19.0-0.0-0.55,A2BPXWBO2OSJRP,3QX22DUVPRXA8IOFTTHB0PBO5I3MV1,31IBVUNM9WF7ORUSX8I0UJN22VKFVH,5,6
56,3,object_10,object_03,1059.8000001907,5,1,1034.5,0.8888888888888888,1,object_01,1,773,0,8,6,library_1,2,memory-2step-stake-s,548,1288333,0.0-19.0-0.0-0.56,A2BPXWBO2OSJRP,3QX22DUVPRXA8IOFTTHB0PBO5I3MV1,31IBVUNM9WF7ORUSX8I0UJN22VKFVH,5,6
57,1,object_09,object_08,984.7999997139,2,1,436.09999990463,0.7777777777777778,2,object_02,5,808,0,8,7,desert_1,2,memory-2step-stake-s,549,1296733,0.0-19.0-0.0-0.57,A2BPXWBO2OSJRP,3QX22DUVPRXA8IOFTTHB0PBO5I3MV1,31IBVUNM9WF7ORUSX8I0UJN22VKFVH,2,1
58,4,object_07,object_06,919.09999990463,7,2,814.7000002861,0.7777777777777778,1,object_01,1,815,0,7,9,restaurant_6,2,memory-2step-stake-s,550,1305515,0.0-19.0-0.0-0.58,A2BPXWBO2OSJRP,3QX22DUVPRXA8IOFTTHB0PBO5I3MV1,31IBVUNM9WF7ORUSX8I0UJN22VKFVH,8,7
59,2,object_05,object_04,695.39999961853,4,1,531.90000009537,0.7777777777777778,2,object_02,1,822,0,9,7,forest_6,2,memory-2step-stake-s,551,1314016,0.0-19.0-0.0-0.59,A2BPXWBO2OSJRP,3QX22DUVPRXA8IOFTTHB0PBO5I3MV1,31IBVUNM9WF7ORUSX8I0UJN22VKFVH,4,3
60,1,object_09,object_08,835.90000009537,1,2,578.30000019073,0.5555555555555556,1,object_01,5,847,0,5,4,desert_2,2,memory-2step-stake-s,552,1322351,0.0-19.0-0.0-0.60,A2BPXWBO2OSJRP,3QX22DUVPRXA8IOFTTHB0PBO5I3MV1,31IBVUNM9WF7ORUSX8I0UJN22VKFVH,2,1
61,2,object_05,object_04,555.80000019073,4,1,312.7999997139,0.4444444444444444,2,object_02,5,867,0,6,4,forest_7,2,memory-2step-stake-s,553,1330314,0.0-19.0-0.0-0.61,A2BPXWBO2OSJRP,3QX22DUVPRXA8IOFTTHB0PBO5I3MV1,31IBVUNM9WF7ORUSX8I0UJN22VKFVH,4,3
62,1,object_08,object_09,940.59999990463,2,2,615.90000009537,0.1111111111111111,2,object_02,1,868,0,8,1,desert_6,2,memory-2step-stake-s,554,1338271,0.0-19.0-0.0-0.62,A2BPXWBO2OSJRP,3QX22DUVPRXA8IOFTTHB0PBO5I3MV1,31IBVUNM9WF7ORUSX8I0UJN22VKFVH,1,2
63,3,object_03,object_10,775.2999997139,6,1,542.09999990463,0.1111111111111111,2,object_02,1,869,0,9,1,library_1,2,memory-2step-stake-s,555,1346152,0.0-19.0-0.0-0.63,A2BPXWBO2OSJRP,3QX22DUVPRXA8IOFTTHB0PBO5I3MV1,31IBVUNM9WF7ORUSX8I0UJN22VKFVH,6,5
64,4,object_06,object_07,1022.0,8,2,553.69999980927,0.3333333333333333,2,object_02,1,872,0,9,3,restaurant_3,2,memory-2step-stake-s,556,1354255,0.0-19.0-0.0-0.64,A2BPXWBO2OSJRP,3QX22DUVPRXA8IOFTTHB0PBO5I3MV1,31IBVUNM9WF7ORUSX8I0UJN22VKFVH,7,8
65,3,object_10,object_03,962.59999990463,5,1,362.5,0.7777777777777778,1,object_01,1,879,0,7,5,library_5,2,memory-2step-stake-s,557,1362585,0.0-19.0-0.0-0.65,A2BPXWBO2OSJRP,3QX22DUVPRXA8IOFTTHB0PBO5I3MV1,31IBVUNM9WF7ORUSX8I0UJN22VKFVH,5,6
66,1,object_08,object_09,809.2999997139,1,1,375.2000002861,0.6666666666666666,1,object_01,5,909,0,6,5,desert_8,2,memory-2step-stake-s,558,1370822,0.0-19.0-0.0-0.66,A2BPXWBO2OSJRP,3QX22DUVPRXA8IOFTTHB0PBO5I3MV1,31IBVUNM9WF7ORUSX8I0UJN22VKFVH,1,2
67,4,object_06,object_07,1148.3000001907,7,1,430.2999997139,0.7777777777777778,1,object_01,1,916,0,7,4,restaurant_3,2,memory-2step-stake-s,559,1379222,0.0-19.0-0.0-0.67,A2BPXWBO2OSJRP,3QX22DUVPRXA8IOFTTHB0PBO5I3MV1,31IBVUNM9WF7ORUSX8I0UJN22VKFVH,7,8
68,4,object_06,object_07,836.7000002861,8,2,505.09999990463,0.4444444444444444,2,object_02,1,920,0,6,4,restaurant_6,2,memory-2step-stake-s,560,1387386,0.0-19.0-0.0-0.68,A2BPXWBO2OSJRP,3QX22DUVPRXA8IOFTTHB0PBO5I3MV1,31IBVUNM9WF7ORUSX8I0UJN22VKFVH,7,8
69,4,object_07,object_06,660.09999990463,8,1,525.69999980927,0.3333333333333333,2,object_02,1,923,0,5,3,restaurant_6,2,memory-2step-stake-s,561,1395464,0.0-19.0-0.0-0.69,A2BPXWBO2OSJRP,3QX22DUVPRXA8IOFTTHB0PBO5I3MV1,31IBVUNM9WF7ORUSX8I0UJN22VKFVH,8,7
70,2,object_05,object_04,717.0,4,1,448.80000019073,0.1111111111111111,2,object_02,5,928,0,0,1,forest_4,2,memory-2step-stake-s,562,1403255,0.0-19.0-0.0-0.70,A2BPXWBO2OSJRP,3QX22DUVPRXA8IOFTTHB0PBO5I3MV1,31IBVUNM9WF7ORUSX8I0UJN22VKFVH,4,3
71,3,object_10,object_03,771.39999961853,5,1,552.40000009537,0.3333333333333333,1,object_01,1,931,0,3,2,library_2,2,memory-2step-stake-s,563,1411354,0.0-19.0-0.0-0.71,A2BPXWBO2OSJRP,3QX22DUVPRXA8IOFTTHB0PBO5I3MV1,31IBVUNM9WF7ORUSX8I0UJN22VKFVH,5,6
72,1,object_09,object_08,798.09999990463,1,2,412.30000019073,0.1111111111111111,1,object_01,5,936,0,1,0,desert_6,2,memory-2step-stake-s,564,1419108,0.0-19.0-0.0-0.72,A2BPXWBO2OSJRP,3QX22DUVPRXA8IOFTTHB0PBO5I3MV1,31IBVUNM9WF7ORUSX8I0UJN22VKFVH,2,1
73,2,object_04,object_05,819.0,3,1,452.40000009537,0.3333333333333333,1,object_01,5,951,0,3,4,forest_6,2,memory-2step-stake-s,565,1427115,0.0-19.0-0.0-0.73,A2BPXWBO2OSJRP,3QX22DUVPRXA8IOFTTHB0PBO5I3MV1,31IBVUNM9WF7ORUSX8I0UJN22VKFVH,3,4
74,2,object_04,object_05,709.30000019073,4,2,383.40000009537,0.4444444444444444,2,object_02,5,971,0,2,4,forest_4,2,memory-2step-stake-s,566,1435153,0.0-19.0-0.0-0.74,A2BPXWBO2OSJRP,3QX22DUVPRXA8IOFTTHB0PBO5I3MV1,31IBVUNM9WF7ORUSX8I0UJN22VKFVH,3,4
75,3,object_03,object_10,548.59999990463,6,1,423.59999990463,0.6666666666666666,2,object_02,5,1001,0,3,6,library_2,2,memory-2step-stake-s,567,1443443,0.0-19.0-0.0-0.75,A2BPXWBO2OSJRP,3QX22DUVPRXA8IOFTTHB0PBO5I3MV1,31IBVUNM9WF7ORUSX8I0UJN22VKFVH,6,5
76,3,object_10,object_03,817.19999980927,5,1,621.0,0.0,1,object_01,1,1001,0,0,7,library_5,2,memory-2step-stake-s,568,1451303,0.0-19.0-0.0-0.76,A2BPXWBO2OSJRP,3QX22DUVPRXA8IOFTTHB0PBO5I3MV1,31IBVUNM9WF7ORUSX8I0UJN22VKFVH,5,6
77,4,object_06,object_07,1160.5999999046,7,1,575.7999997139,0.2222222222222222,1,object_01,5,1011,0,2,9,restaurant_2,2,memory-2step-stake-s,569,1459325,0.0-19.0-0.0-0.77,A2BPXWBO2OSJRP,3QX22DUVPRXA8IOFTTHB0PBO5I3MV1,31IBVUNM9WF7ORUSX8I0UJN22VKFVH,7,8
78,4,object_07,object_06,798.30000019073,7,2,546.30000019073,0.2222222222222222,1,object_01,1,1013,0,2,7,restaurant_5,2,memory-2step-stake-s,570,1467317,0.0-19.0-0.0-0.78,A2BPXWBO2OSJRP,3QX22DUVPRXA8IOFTTHB0PBO5I3MV1,31IBVUNM9WF7ORUSX8I0UJN22VKFVH,8,7
79,4,object_07,object_06,1342.1999998093,8,1,614.80000019073,0.7777777777777778,2,object_02,1,1020,0,1,7,restaurant_5,2,memory-2step-stake-s,571,1475898,0.0-19.0-0.0-0.79,A2BPXWBO2OSJRP,3QX22DUVPRXA8IOFTTHB0PBO5I3MV1,31IBVUNM9WF7ORUSX8I0UJN22VKFVH,8,7
80,2,object_05,object_04,1140.5999999046,3,2,478.89999961853,0.1111111111111111,1,object_01,5,1025,0,1,9,forest_7,2,memory-2step-stake-s,572,1483717,0.0-19.0-0.0-0.80,A2BPXWBO2OSJRP,3QX22DUVPRXA8IOFTTHB0PBO5I3MV1,31IBVUNM9WF7ORUSX8I0UJN22VKFVH,4,3
81,1,object_09,object_08,819.90000009537,2,1,334.40000009537,0.6666666666666666,2,object_02,5,1055,0,1,6,desert_1,2,memory-2step-stake-s,573,1491915,0.0-19.0-0.0-0.81,A2BPXWBO2OSJRP,3QX22DUVPRXA8IOFTTHB0PBO5I3MV1,31IBVUNM9WF7ORUSX8I0UJN22VKFVH,2,1
82,2,object_05,object_04,1213.1999998093,3,2,427.5,0.1111111111111111,1,object_01,5,1060,0,1,2,forest_6,2,memory-2step-stake-s,574,1499687,0.0-19.0-0.0-0.82,A2BPXWBO2OSJRP,3QX22DUVPRXA8IOFTTHB0PBO5I3MV1,31IBVUNM9WF7ORUSX8I0UJN22VKFVH,4,3
83,3,object_10,object_03,742.90000009537,5,1,438.5,0.1111111111111111,1,object_01,1,1061,0,1,3,library_5,2,memory-2step-stake-s,575,1507470,0.0-19.0-0.0-0.83,A2BPXWBO2OSJRP,3QX22DUVPRXA8IOFTTHB0PBO5I3MV1,31IBVUNM9WF7ORUSX8I0UJN22VKFVH,5,6
84,3,object_10,object_03,839.89999961853,5,1,429.0,0.5555555555555556,1,object_01,1,1066,0,5,1,library_5,2,memory-2step-stake-s,576,1515656,0.0-19.0-0.0-0.84,A2BPXWBO2OSJRP,3QX22DUVPRXA8IOFTTHB0PBO5I3MV1,31IBVUNM9WF7ORUSX8I0UJN22VKFVH,5,6
85,2,object_04,object_05,1060.3000001907,3,1,392.2999997139,1.0,1,object_01,5,1111,0,9,0,forest_6,2,memory-2step-stake-s,577,1524231,0.0-19.0-0.0-0.85,A2BPXWBO2OSJRP,3QX22DUVPRXA8IOFTTHB0PBO5I3MV1,31IBVUNM9WF7ORUSX8I0UJN22VKFVH,3,4
86,2,object_04,object_05,709.89999961853,4,2,417.7000002861,0.0,2,object_02,5,1111,0,8,0,forest_4,2,memory-2step-stake-s,578,1531887,0.0-19.0-0.0-0.86,A2BPXWBO2OSJRP,3QX22DUVPRXA8IOFTTHB0PBO5I3MV1,31IBVUNM9WF7ORUSX8I0UJN22VKFVH,3,4
87,4,object_06,object_07,595.2999997139,7,1,367.80000019073,0.8888888888888888,1,object_01,1,1119,0,8,2,restaurant_2,2,memory-2step-stake-s,579,1540335,0.0-19.0-0.0-0.87,A2BPXWBO2OSJRP,3QX22DUVPRXA8IOFTTHB0PBO5I3MV1,31IBVUNM9WF7ORUSX8I0UJN22VKFVH,7,8
88,4,object_06,object_07,756.30000019073,7,1,378.90000009537,0.8888888888888888,1,object_01,1,1127,0,8,1,restaurant_2,2,memory-2step-stake-s,580,1548792,0.0-19.0-0.0-0.88,A2BPXWBO2OSJRP,3QX22DUVPRXA8IOFTTHB0PBO5I3MV1,31IBVUNM9WF7ORUSX8I0UJN22VKFVH,7,8
89,1,object_08,object_09,590.19999980927,2,2,571.0,0.2222222222222222,2,object_02,5,1137,0,6,2,desert_1,2,memory-2step-stake-s,581,1556803,0.0-19.0-0.0-0.89,A2BPXWBO2OSJRP,3QX22DUVPRXA8IOFTTHB0PBO5I3MV1,31IBVUNM9WF7ORUSX8I0UJN22VKFVH,1,2
90,3,object_03,object_10,1011.1999998093,5,2,387.59999990463,0.5555555555555556,1,object_01,5,1162,0,5,3,library_1,2,memory-2step-stake-s,582,1564953,0.0-19.0-0.0-0.90,A2BPXWBO2OSJRP,3QX22DUVPRXA8IOFTTHB0PBO5I3MV1,31IBVUNM9WF7ORUSX8I0UJN22VKFVH,6,5
91,3,object_03,object_10,1085.5999999046,6,1,626.2000002861,0.4444444444444444,2,object_02,1,1166,0,4,4,library_2,2,memory-2step-stake-s,583,1573236,0.0-19.0-0.0-0.91,A2BPXWBO2OSJRP,3QX22DUVPRXA8IOFTTHB0PBO5I3MV1,31IBVUNM9WF7ORUSX8I0UJN22VKFVH,6,5
92,4,object_07,object_06,1209.5,8,1,496.2999997139,0.3333333333333333,2,object_02,1,1169,0,5,3,restaurant_5,2,memory-2step-stake-s,584,1581282,0.0-19.0-0.0-0.92,A2BPXWBO2OSJRP,3QX22DUVPRXA8IOFTTHB0PBO5I3MV1,31IBVUNM9WF7ORUSX8I0UJN22VKFVH,8,7
93,3,object_10,object_03,927.5,6,2,490.5,0.3333333333333333,2,object_02,5,1184,0,4,3,library_6,2,memory-2step-stake-s,585,1589321,0.0-19.0-0.0-0.93,A2BPXWBO2OSJRP,3QX22DUVPRXA8IOFTTHB0PBO5I3MV1,31IBVUNM9WF7ORUSX8I0UJN22VKFVH,5,6
94,3,object_03,object_10,976.0,6,1,478.80000019073,0.2222222222222222,2,object_02,1,1186,0,1,2,library_2,2,memory-2step-stake-s,586,1597240,0.0-19.0-0.0-0.94,A2BPXWBO2OSJRP,3QX22DUVPRXA8IOFTTHB0PBO5I3MV1,31IBVUNM9WF7ORUSX8I0UJN22VKFVH,6,5
95,3,object_03,object_10,756.69999980927,5,2,530.10000038147,0.2222222222222222,1,object_01,1,1188,0,2,1,library_1,2,memory-2step-stake-s,587,1605210,0.0-19.0-0.0-0.95,A2BPXWBO2OSJRP,3QX22DUVPRXA8IOFTTHB0PBO5I3MV1,31IBVUNM9WF7ORUSX8I0UJN22VKFVH,6,5
96,1,object_08,object_09,538.5,1,1,418.30000019073,0.2222222222222222,1,object_01,1,1190,0,2,1,desert_8,2,memory-2step-stake-s,588,1613070,0.0-19.0-0.0-0.96,A2BPXWBO2OSJRP,3QX22DUVPRXA8IOFTTHB0PBO5I3MV1,31IBVUNM9WF7ORUSX8I0UJN22VKFVH,1,2
97,4,object_06,object_07,672.39999961853,8,2,418.7000002861,0.1111111111111111,2,object_02,1,1191,0,1,1,restaurant_2,2,memory-2step-stake-s,589,1620828,0.0-19.0-0.0-0.97,A2BPXWBO2OSJRP,3QX22DUVPRXA8IOFTTHB0PBO5I3MV1,31IBVUNM9WF7ORUSX8I0UJN22VKFVH,7,8
98,2,object_04,object_05,768.5,4,2,415.7000002861,0.0,2,object_02,5,1191,0,2,0,forest_4,2,memory-2step-stake-s,590,1628471,0.0-19.0-0.0-0.98,A2BPXWBO2OSJRP,3QX22DUVPRXA8IOFTTHB0PBO5I3MV1,31IBVUNM9WF7ORUSX8I0UJN22VKFVH,3,4
99,2,object_05,object_04,521.90000009537,4,1,478.19999980927,0.2222222222222222,2,object_02,5,1201,0,3,2,forest_3,2,memory-2step-stake-s,591,1636390,0.0-19.0-0.0-0.99,A2BPXWBO2OSJRP,3QX22DUVPRXA8IOFTTHB0PBO5I3MV1,31IBVUNM9WF7ORUSX8I0UJN22VKFVH,4,3
100,3,object_03,object_10,757.40000009537,5,2,488.30000019073,0.3333333333333333,1,object_01,1,1204,0,3,4,library_2,2,memory-2step-stake-s,592,1644416,0.0-19.0-0.0-0.100,A2BPXWBO2OSJRP,3QX22DUVPRXA8IOFTTHB0PBO5I3MV1,31IBVUNM9WF7ORUSX8I0UJN22VKFVH,6,5
101,1,object_08,object_09,602.5,1,1,453.09999990463,0.1111111111111111,1,object_01,5,1209,0,1,6,desert_8,2,memory-2step-stake-s,593,1652207,0.0-19.0-0.0-0.101,A2BPXWBO2OSJRP,3QX22DUVPRXA8IOFTTHB0PBO5I3MV1,31IBVUNM9WF7ORUSX8I0UJN22VKFVH,1,2
102,3,object_03,object_10,616.89999961853,6,1,477.40000009537,0.7777777777777778,2,object_02,1,1216,0,0,7,library_1,2,memory-2step-stake-s,594,1660650,0.0-19.0-0.0-0.102,A2BPXWBO2OSJRP,3QX22DUVPRXA8IOFTTHB0PBO5I3MV1,31IBVUNM9WF7ORUSX8I0UJN22VKFVH,6,5
103,1,object_08,object_09,566.5,1,1,458.89999961853,0.1111111111111111,1,object_01,5,1221,0,1,7,desert_6,2,memory-2step-stake-s,595,1668448,0.0-19.0-0.0-0.103,A2BPXWBO2OSJRP,3QX22DUVPRXA8IOFTTHB0PBO5I3MV1,31IBVUNM9WF7ORUSX8I0UJN22VKFVH,1,2
104,1,object_09,object_08,447.5,1,2,402.40000009537,0.0,1,object_01,5,1221,0,0,6,desert_6,2,memory-2step-stake-s,596,1676079,0.0-19.0-0.0-0.104,A2BPXWBO2OSJRP,3QX22DUVPRXA8IOFTTHB0PBO5I3MV1,31IBVUNM9WF7ORUSX8I0UJN22VKFVH,2,1
105,4,object_06,object_07,521.40000009537,7,1,524.40000009537,0.2222222222222222,1,object_01,1,1223,0,2,2,restaurant_6,2,memory-2step-stake-s,597,1684043,0.0-19.0-0.0-0.105,A2BPXWBO2OSJRP,3QX22DUVPRXA8IOFTTHB0PBO5I3MV1,31IBVUNM9WF7ORUSX8I0UJN22VKFVH,7,8
106,4,object_07,object_06,779.19999980927,7,2,427.0,0.6666666666666666,1,object_01,1,1229,0,6,2,restaurant_6,2,memory-2step-stake-s,598,1692329,0.0-19.0-0.0-0.106,A2BPXWBO2OSJRP,3QX22DUVPRXA8IOFTTHB0PBO5I3MV1,31IBVUNM9WF7ORUSX8I0UJN22VKFVH,8,7
107,2,object_05,object_04,529.7000002861,4,1,341.59999990463,0.0,2,object_02,1,1229,0,7,0,forest_6,2,memory-2step-stake-s,599,1699910,0.0-19.0-0.0-0.107,A2BPXWBO2OSJRP,3QX22DUVPRXA8IOFTTHB0PBO5I3MV1,31IBVUNM9WF7ORUSX8I0UJN22VKFVH,4,3
108,4,object_07,object_06,622.0,8,1,476.09999990463,0.2222222222222222,2,object_02,1,1231,0,6,2,restaurant_5,2,memory-2step-stake-s,600,1707831,0.0-19.0-0.0-0.108,A2BPXWBO2OSJRP,3QX22DUVPRXA8IOFTTHB0PBO5I3MV1,31IBVUNM9WF7ORUSX8I0UJN22VKFVH,8,7
109,2,object_05,object_04,574.40000009537,3,2,504.90000009537,0.4444444444444444,1,object_01,5,1251,0,4,5,forest_7,2,memory-2step-stake-s,601,1715987,0.0-19.0-0.0-0.109,A2BPXWBO2OSJRP,3QX22DUVPRXA8IOFTTHB0PBO5I3MV1,31IBVUNM9WF7ORUSX8I0UJN22VKFVH,4,3
110,2,object_05,object_04,652.69999980927,4,1,499.5,0.4444444444444444,2,object_02,1,1255,0,8,4,forest_3,2,memory-2step-stake-s,602,1724137,0.0-19.0-0.0-0.110,A2BPXWBO2OSJRP,3QX22DUVPRXA8IOFTTHB0PBO5I3MV1,31IBVUNM9WF7ORUSX8I0UJN22VKFVH,4,3
111,4,object_07,object_06,588.59999990463,8,1,477.30000019073,0.4444444444444444,2,object_02,1,1259,0,8,4,restaurant_2,2,memory-2step-stake-s,603,1732264,0.0-19.0-0.0-0.111,A2BPXWBO2OSJRP,3QX22DUVPRXA8IOFTTHB0PBO5I3MV1,31IBVUNM9WF7ORUSX8I0UJN22VKFVH,8,7
112,1,object_09,object_08,640.39999961853,1,2,599.59999990463,0.8888888888888888,1,object_01,5,1299,0,8,2,desert_6,2,memory-2step-stake-s,604,1740936,0.0-19.0-0.0-0.112,A2BPXWBO2OSJRP,3QX22DUVPRXA8IOFTTHB0PBO5I3MV1,31IBVUNM9WF7ORUSX8I0UJN22VKFVH,2,1
113,1,object_08,object_09,881.09999990463,2,2,464.0,0.1111111111111111,2,object_02,1,1300,0,9,1,desert_1,2,memory-2step-stake-s,605,1748739,0.0-19.0-0.0-0.113,A2BPXWBO2OSJRP,3QX22DUVPRXA8IOFTTHB0PBO5I3MV1,31IBVUNM9WF7ORUSX8I0UJN22VKFVH,1,2
114,3,object_03,object_10,547.7999997139,6,1,675.09999990463,0.2222222222222222,2,object_02,1,1302,0,8,2,library_6,2,memory-2step-stake-s,606,1756859,0.0-19.0-0.0-0.114,A2BPXWBO2OSJRP,3QX22DUVPRXA8IOFTTHB0PBO5I3MV1,31IBVUNM9WF7ORUSX8I0UJN22VKFVH,6,5
115,1,object_09,object_08,1046.4000000954,1,2,428.09999990463,1.0,1,object_01,5,1347,0,9,1,desert_2,2,memory-2step-stake-s,607,1765463,0.0-19.0-0.0-0.115,A2BPXWBO2OSJRP,3QX22DUVPRXA8IOFTTHB0PBO5I3MV1,31IBVUNM9WF7ORUSX8I0UJN22VKFVH,2,1
116,4,object_06,object_07,889.0,7,1,836.40000009537,0.6666666666666666,1,object_01,1,1353,0,6,1,restaurant_6,2,memory-2step-stake-s,608,1774155,0.0-19.0-0.0-0.116,A2BPXWBO2OSJRP,3QX22DUVPRXA8IOFTTHB0PBO5I3MV1,31IBVUNM9WF7ORUSX8I0UJN22VKFVH,7,8
117,3,object_10,object_03,669.7999997139,6,2,-1.0,0.0,2,object_02,1,1353,0,4,1,library_6,2,memory-2step-stake-s,609,1782680,0.0-19.0-0.0-0.117,A2BPXWBO2OSJRP,3QX22DUVPRXA8IOFTTHB0PBO5I3MV1,31IBVUNM9WF7ORUSX8I0UJN22VKFVH,5,6
118,2,object_04,object_05,643.40000009537,4,2,580.40000009537,0.1111111111111111,2,object_02,5,1358,0,7,1,forest_4,2,memory-2step-stake-s,610,1790598,0.0-19.0-0.0-0.118,A2BPXWBO2OSJRP,3QX22DUVPRXA8IOFTTHB0PBO5I3MV1,31IBVUNM9WF7ORUSX8I0UJN22VKFVH,3,4
119,1,object_09,object_08,686.80000019073,1,2,477.7000002861,0.2222222222222222,1,object_01,5,1368,0,2,1,desert_1,2,memory-2step-stake-s,611,1798516,0.0-19.0-0.0-0.119,A2BPXWBO2OSJRP,3QX22DUVPRXA8IOFTTHB0PBO5I3MV1,31IBVUNM9WF7ORUSX8I0UJN22VKFVH,2,1
120,4,object_06,object_07,553.7000002861,7,1,474.40000009537,0.5555555555555556,1,object_01,1,1373,0,5,0,restaurant_3,2,memory-2step-stake-s,612,1806742,0.0-19.0-0.0-0.120,A2BPXWBO2OSJRP,3QX22DUVPRXA8IOFTTHB0PBO5I3MV1,31IBVUNM9WF7ORUSX8I0UJN22VKFVH,7,8
121,1,object_08,object_09,486.0,1,1,428.59999990463,0.3333333333333333,1,object_01,5,1388,0,3,2,desert_2,2,memory-2step-stake-s,613,1814718,0.0-19.0-0.0-0.121,A2BPXWBO2OSJRP,3QX22DUVPRXA8IOFTTHB0PBO5I3MV1,31IBVUNM9WF7ORUSX8I0UJN22VKFVH,1,2
122,4,object_06,object_07,599.7000002861,8,2,480.40000009537,0.3333333333333333,2,object_02,5,1403,0,3,3,restaurant_3,2,memory-2step-stake-s,614,1822741,0.0-19.0-0.0-0.122,A2BPXWBO2OSJRP,3QX22DUVPRXA8IOFTTHB0PBO5I3MV1,31IBVUNM9WF7ORUSX8I0UJN22VKFVH,7,8
123,4,object_07,object_06,520.90000009537,8,1,507.40000009537,0.4444444444444444,2,object_02,1,1407,0,0,4,restaurant_5,2,memory-2step-stake-s,615,1830891,0.0-19.0-0.0-0.123,A2BPXWBO2OSJRP,3QX22DUVPRXA8IOFTTHB0PBO5I3MV1,31IBVUNM9WF7ORUSX8I0UJN22VKFVH,8,7
124,1,object_08,object_09,740.40000009537,1,1,442.0,0.2222222222222222,1,object_01,5,1417,0,2,2,desert_1,2,memory-2step-stake-s,616,1838770,0.0-19.0-0.0-0.124,A2BPXWBO2OSJRP,3QX22DUVPRXA8IOFTTHB0PBO5I3MV1,31IBVUNM9WF7ORUSX8I0UJN22VKFVH,1,2
125,3,object_03,object_10,552.5,5,2,347.0,0.6666666666666666,1,object_01,1,1423,0,6,5,library_1,2,memory-2step-stake-s,617,1846971,0.0-19.0-0.0-0.125,A2BPXWBO2OSJRP,3QX22DUVPRXA8IOFTTHB0PBO5I3MV1,31IBVUNM9WF7ORUSX8I0UJN22VKFVH,6,5
126,4,object_06,object_07,838.90000009537,7,1,385.90000009537,0.6666666666666666,1,object_01,5,1453,0,6,4,restaurant_3,2,memory-2step-stake-s,618,1855213,0.0-19.0-0.0-0.126,A2BPXWBO2OSJRP,3QX22DUVPRXA8IOFTTHB0PBO5I3MV1,31IBVUNM9WF7ORUSX8I0UJN22VKFVH,7,8
127,3,object_03,object_10,604.09999990463,6,1,370.30000019073,0.2222222222222222,2,object_02,1,1455,0,3,2,library_1,2,memory-2step-stake-s,619,1863027,0.0-19.0-0.0-0.127,A2BPXWBO2OSJRP,3QX22DUVPRXA8IOFTTHB0PBO5I3MV1,31IBVUNM9WF7ORUSX8I0UJN22VKFVH,6,5
128,2,object_05,object_04,1271.9000000954,4,1,789.09999990463,0.3333333333333333,2,object_02,5,1470,0,0,3,forest_7,2,memory-2step-stake-s,621,1978575,0.0-19.0-0.1-0.128,A2BPXWBO2OSJRP,3QX22DUVPRXA8IOFTTHB0PBO5I3MV1,31IBVUNM9WF7ORUSX8I0UJN22VKFVH,4,3
129,4,object_07,object_06,752.59999990463,7,2,643.30000019073,0.1111111111111111,1,object_01,5,1475,0,1,9,restaurant_5,2,memory-2step-stake-s,622,1986558,0.0-19.0-0.1-0.129,A2BPXWBO2OSJRP,3QX22DUVPRXA8IOFTTHB0PBO5I3MV1,31IBVUNM9WF7ORUSX8I0UJN22VKFVH,8,7
130,4,object_06,object_07,654.89999961853,7,1,428.80000019073,0.2222222222222222,1,object_01,1,1477,0,2,5,restaurant_2,2,memory-2step-stake-s,623,1994436,0.0-19.0-0.1-0.130,A2BPXWBO2OSJRP,3QX22DUVPRXA8IOFTTHB0PBO5I3MV1,31IBVUNM9WF7ORUSX8I0UJN22VKFVH,7,8
131,1,object_08,object_09,819.7000002861,1,1,396.2999997139,0.4444444444444444,1,object_01,5,1497,0,4,8,desert_8,2,memory-2step-stake-s,624,2002487,0.0-19.0-0.1-0.131,A2BPXWBO2OSJRP,3QX22DUVPRXA8IOFTTHB0PBO5I3MV1,31IBVUNM9WF7ORUSX8I0UJN22VKFVH,1,2
132,3,object_03,object_10,731.39999961853,5,2,445.59999990463,0.5555555555555556,1,object_01,1,1502,0,5,8,library_6,2,memory-2step-stake-s,625,2010689,0.0-19.0-0.1-0.132,A2BPXWBO2OSJRP,3QX22DUVPRXA8IOFTTHB0PBO5I3MV1,31IBVUNM9WF7ORUSX8I0UJN22VKFVH,6,5
133,3,object_03,object_10,671.19999980927,6,1,433.30000019073,0.7777777777777778,2,object_02,1,1509,0,4,7,library_5,2,memory-2step-stake-s,626,2019089,0.0-19.0-0.1-0.133,A2BPXWBO2OSJRP,3QX22DUVPRXA8IOFTTHB0PBO5I3MV1,31IBVUNM9WF7ORUSX8I0UJN22VKFVH,6,5
134,4,object_06,object_07,737.69999980927,8,2,619.5,0.8888888888888888,2,object_02,1,1517,0,3,8,restaurant_6,2,memory-2step-stake-s,627,2027780,0.0-19.0-0.1-0.134,A2BPXWBO2OSJRP,3QX22DUVPRXA8IOFTTHB0PBO5I3MV1,31IBVUNM9WF7ORUSX8I0UJN22VKFVH,7,8
135,1,object_08,object_09,470.30000019073,1,1,433.0,0.1111111111111111,1,object_01,1,1518,0,1,8,desert_8,2,memory-2step-stake-s,628,2035556,0.0-19.0-0.1-0.135,A2BPXWBO2OSJRP,3QX22DUVPRXA8IOFTTHB0PBO5I3MV1,31IBVUNM9WF7ORUSX8I0UJN22VKFVH,1,2
136,4,object_07,object_06,847.0,8,1,567.30000019073,0.7777777777777778,2,object_02,1,1525,0,4,7,restaurant_6,2,memory-2step-stake-s,629,2044097,0.0-19.0-0.1-0.136,A2BPXWBO2OSJRP,3QX22DUVPRXA8IOFTTHB0PBO5I3MV1,31IBVUNM9WF7ORUSX8I0UJN22VKFVH,8,7
137,2,object_04,object_05,614.90000009537,4,2,414.59999990463,0.7777777777777778,2,object_02,5,1560,0,2,7,forest_3,2,memory-2step-stake-s,630,2052479,0.0-19.0-0.1-0.137,A2BPXWBO2OSJRP,3QX22DUVPRXA8IOFTTHB0PBO5I3MV1,31IBVUNM9WF7ORUSX8I0UJN22VKFVH,3,4
138,3,object_03,object_10,607.19999980927,5,2,495.5,0.0,1,object_01,1,1560,0,0,7,library_5,2,memory-2step-stake-s,631,2060211,0.0-19.0-0.1-0.138,A2BPXWBO2OSJRP,3QX22DUVPRXA8IOFTTHB0PBO5I3MV1,31IBVUNM9WF7ORUSX8I0UJN22VKFVH,6,5
139,4,object_06,object_07,664.09999990463,7,1,537.09999990463,0.3333333333333333,1,object_01,1,1563,0,3,6,restaurant_6,2,memory-2step-stake-s,632,2068298,0.0-19.0-0.1-0.139,A2BPXWBO2OSJRP,3QX22DUVPRXA8IOFTTHB0PBO5I3MV1,31IBVUNM9WF7ORUSX8I0UJN22VKFVH,7,8
140,4,object_06,object_07,535.40000009537,7,1,489.80000019073,0.3333333333333333,1,object_01,1,1566,0,3,7,restaurant_3,2,memory-2step-stake-s,633,2076337,0.0-19.0-0.1-0.140,A2BPXWBO2OSJRP,3QX22DUVPRXA8IOFTTHB0PBO5I3MV1,31IBVUNM9WF7ORUSX8I0UJN22VKFVH,7,8
141,3,object_10,object_03,492.19999980927,5,1,464.5,0.1111111111111111,1,object_01,1,1567,0,1,8,library_6,2,memory-2step-stake-s,634,2084143,0.0-19.0-0.1-0.141,A2BPXWBO2OSJRP,3QX22DUVPRXA8IOFTTHB0PBO5I3MV1,31IBVUNM9WF7ORUSX8I0UJN22VKFVH,5,6
142,2,object_05,object_04,537.60000038147,4,1,645.59999990463,0.6666666666666666,2,object_02,5,1597,0,1,6,forest_4,2,memory-2step-stake-s,635,2092655,0.0-19.0-0.1-0.142,A2BPXWBO2OSJRP,3QX22DUVPRXA8IOFTTHB0PBO5I3MV1,31IBVUNM9WF7ORUSX8I0UJN22VKFVH,4,3
143,2,object_05,object_04,482.09999990463,4,1,436.59999990463,0.5555555555555556,2,object_02,5,1622,0,2,5,forest_3,2,memory-2step-stake-s,636,2100852,0.0-19.0-0.1-0.143,A2BPXWBO2OSJRP,3QX22DUVPRXA8IOFTTHB0PBO5I3MV1,31IBVUNM9WF7ORUSX8I0UJN22VKFVH,4,3
144,1,object_09,object_08,763.5,1,2,402.09999990463,0.4444444444444444,1,object_01,5,1642,0,4,4,desert_8,2,memory-2step-stake-s,637,2108909,0.0-19.0-0.1-0.144,A2BPXWBO2OSJRP,3QX22DUVPRXA8IOFTTHB0PBO5I3MV1,31IBVUNM9WF7ORUSX8I0UJN22VKFVH,2,1
145,3,object_03,object_10,576.09999990463,6,1,348.80000019073,0.4444444444444444,2,object_02,1,1646,0,1,4,library_1,2,memory-2step-stake-s,638,2116915,0.0-19.0-0.1-0.145,A2BPXWBO2OSJRP,3QX22DUVPRXA8IOFTTHB0PBO5I3MV1,31IBVUNM9WF7ORUSX8I0UJN22VKFVH,6,5
146,4,object_06,object_07,559.30000019073,8,2,367.40000009537,0.4444444444444444,2,object_02,1,1650,0,0,4,restaurant_5,2,memory-2step-stake-s,639,2124938,0.0-19.0-0.1-0.146,A2BPXWBO2OSJRP,3QX22DUVPRXA8IOFTTHB0PBO5I3MV1,31IBVUNM9WF7ORUSX8I0UJN22VKFVH,7,8
147,2,object_04,object_05,515.59999990463,4,2,431.59999990463,0.6666666666666666,2,object_02,1,1656,0,1,6,forest_7,2,memory-2step-stake-s,640,2133238,0.0-19.0-0.1-0.147,A2BPXWBO2OSJRP,3QX22DUVPRXA8IOFTTHB0PBO5I3MV1,31IBVUNM9WF7ORUSX8I0UJN22VKFVH,3,4
148,2,object_05,object_04,436.09999990463,4,1,389.40000009537,0.1111111111111111,2,object_02,5,1661,0,2,1,forest_7,2,memory-2step-stake-s,641,2140964,0.0-19.0-0.1-0.148,A2BPXWBO2OSJRP,3QX22DUVPRXA8IOFTTHB0PBO5I3MV1,31IBVUNM9WF7ORUSX8I0UJN22VKFVH,4,3
149,2,object_05,object_04,523.0,4,1,512.40000009537,0.4444444444444444,2,object_02,1,1665,0,2,4,forest_6,2,memory-2step-stake-s,642,2149132,0.0-19.0-0.1-0.149,A2BPXWBO2OSJRP,3QX22DUVPRXA8IOFTTHB0PBO5I3MV1,31IBVUNM9WF7ORUSX8I0UJN22VKFVH,4,3
150,3,object_10,object_03,573.5,6,2,487.89999961853,0.6666666666666666,2,object_02,1,1671,0,2,6,library_6,2,memory-2step-stake-s,643,2157485,0.0-19.0-0.1-0.150,A2BPXWBO2OSJRP,3QX22DUVPRXA8IOFTTHB0PBO5I3MV1,31IBVUNM9WF7ORUSX8I0UJN22VKFVH,5,6
151,1,object_08,object_09,583.09999990463,1,1,488.2000002861,0.1111111111111111,1,object_01,5,1676,0,1,4,desert_1,2,memory-2step-stake-s,644,2165316,0.0-19.0-0.1-0.151,A2BPXWBO2OSJRP,3QX22DUVPRXA8IOFTTHB0PBO5I3MV1,31IBVUNM9WF7ORUSX8I0UJN22VKFVH,1,2
152,4,object_06,object_07,610.69999980927,8,2,323.09999990463,0.4444444444444444,2,object_02,1,1680,0,1,4,restaurant_2,2,memory-2step-stake-s,645,2173299,0.0-19.0-0.1-0.152,A2BPXWBO2OSJRP,3QX22DUVPRXA8IOFTTHB0PBO5I3MV1,31IBVUNM9WF7ORUSX8I0UJN22VKFVH,7,8
153,2,object_04,object_05,930.09999990463,3,1,592.2000002861,0.0,1,object_01,5,1680,0,0,5,forest_7,2,memory-2step-stake-s,646,2181131,0.0-19.0-0.1-0.153,A2BPXWBO2OSJRP,3QX22DUVPRXA8IOFTTHB0PBO5I3MV1,31IBVUNM9WF7ORUSX8I0UJN22VKFVH,3,4
154,3,object_10,object_03,794.40000009537,5,1,842.2000002861,0.2222222222222222,1,object_01,1,1682,0,2,0,library_5,2,memory-2step-stake-s,647,2189423,0.0-19.0-0.1-0.154,A2BPXWBO2OSJRP,3QX22DUVPRXA8IOFTTHB0PBO5I3MV1,31IBVUNM9WF7ORUSX8I0UJN22VKFVH,5,6
155,2,object_05,object_04,862.40000009537,3,2,495.0,0.1111111111111111,1,object_01,5,1687,0,1,1,forest_7,2,memory-2step-stake-s,648,2197261,0.0-19.0-0.1-0.155,A2BPXWBO2OSJRP,3QX22DUVPRXA8IOFTTHB0PBO5I3MV1,31IBVUNM9WF7ORUSX8I0UJN22VKFVH,4,3
156,2,object_04,object_05,708.90000009537,3,1,443.19999980927,0.1111111111111111,1,object_01,5,1692,0,1,2,forest_7,2,memory-2step-stake-s,649,2205044,0.0-19.0-0.1-0.156,A2BPXWBO2OSJRP,3QX22DUVPRXA8IOFTTHB0PBO5I3MV1,31IBVUNM9WF7ORUSX8I0UJN22VKFVH,3,4
157,1,object_08,object_09,695.69999980927,1,1,474.5,0.2222222222222222,1,object_01,5,1702,0,2,5,desert_6,2,memory-2step-stake-s,650,2212963,0.0-19.0-0.1-0.157,A2BPXWBO2OSJRP,3QX22DUVPRXA8IOFTTHB0PBO5I3MV1,31IBVUNM9WF7ORUSX8I0UJN22VKFVH,1,2
158,2,object_05,object_04,844.10000038147,3,2,445.0,0.4444444444444444,1,object_01,5,1722,0,4,6,forest_3,2,memory-2step-stake-s,651,2221062,0.0-19.0-0.1-0.158,A2BPXWBO2OSJRP,3QX22DUVPRXA8IOFTTHB0PBO5I3MV1,31IBVUNM9WF7ORUSX8I0UJN22VKFVH,4,3
159,4,object_07,object_06,598.90000009537,8,1,416.80000019073,0.5555555555555556,2,object_02,1,1727,0,2,5,restaurant_2,2,memory-2step-stake-s,652,2229241,0.0-19.0-0.1-0.159,A2BPXWBO2OSJRP,3QX22DUVPRXA8IOFTTHB0PBO5I3MV1,31IBVUNM9WF7ORUSX8I0UJN22VKFVH,8,7
160,2,object_05,object_04,492.2999997139,3,2,496.90000009537,0.5555555555555556,1,object_01,1,1732,0,5,5,forest_3,2,memory-2step-stake-s,653,2237495,0.0-19.0-0.1-0.160,A2BPXWBO2OSJRP,3QX22DUVPRXA8IOFTTHB0PBO5I3MV1,31IBVUNM9WF7ORUSX8I0UJN22VKFVH,4,3
161,1,object_08,object_09,526.69999980927,1,1,521.80000019073,0.1111111111111111,1,object_01,5,1737,0,1,1,desert_8,2,memory-2step-stake-s,654,2245355,0.0-19.0-0.1-0.161,A2BPXWBO2OSJRP,3QX22DUVPRXA8IOFTTHB0PBO5I3MV1,31IBVUNM9WF7ORUSX8I0UJN22VKFVH,1,2
162,2,object_05,object_04,588.30000019073,3,2,497.90000009537,0.2222222222222222,1,object_01,5,1747,0,2,1,forest_3,2,memory-2step-stake-s,655,2253297,0.0-19.0-0.1-0.162,A2BPXWBO2OSJRP,3QX22DUVPRXA8IOFTTHB0PBO5I3MV1,31IBVUNM9WF7ORUSX8I0UJN22VKFVH,4,3
163,4,object_06,object_07,510.40000009537,8,2,445.7000002861,0.3333333333333333,2,object_02,5,1762,0,1,3,restaurant_5,2,memory-2step-stake-s,656,2261284,0.0-19.0-0.1-0.163,A2BPXWBO2OSJRP,3QX22DUVPRXA8IOFTTHB0PBO5I3MV1,31IBVUNM9WF7ORUSX8I0UJN22VKFVH,7,8
164,3,object_10,object_03,556.60000038147,5,1,521.09999990463,0.1111111111111111,1,object_01,1,1763,0,1,2,library_1,2,memory-2step-stake-s,657,2269144,0.0-19.0-0.1-0.164,A2BPXWBO2OSJRP,3QX22DUVPRXA8IOFTTHB0PBO5I3MV1,31IBVUNM9WF7ORUSX8I0UJN22VKFVH,5,6
165,2,object_04,object_05,534.0,4,2,516.5,0.4444444444444444,2,object_02,5,1783,0,1,4,forest_7,2,memory-2step-stake-s,658,2277312,0.0-19.0-0.1-0.165,A2BPXWBO2OSJRP,3QX22DUVPRXA8IOFTTHB0PBO5I3MV1,31IBVUNM9WF7ORUSX8I0UJN22VKFVH,3,4
166,2,object_05,object_04,509.69999980927,4,1,666.89999961853,0.7777777777777778,2,object_02,5,1818,0,6,7,forest_6,2,memory-2step-stake-s,659,2285944,0.0-19.0-0.1-0.166,A2BPXWBO2OSJRP,3QX22DUVPRXA8IOFTTHB0PBO5I3MV1,31IBVUNM9WF7ORUSX8I0UJN22VKFVH,4,3
167,4,object_06,object_07,576.40000009537,7,1,493.0,0.5555555555555556,1,object_01,1,1823,0,5,8,restaurant_5,2,memory-2step-stake-s,660,2294193,0.0-19.0-0.1-0.167,A2BPXWBO2OSJRP,3QX22DUVPRXA8IOFTTHB0PBO5I3MV1,31IBVUNM9WF7ORUSX8I0UJN22VKFVH,7,8
168,4,object_06,object_07,543.7999997139,8,2,776.10000038147,0.7777777777777778,2,object_02,1,1830,0,3,7,restaurant_3,2,memory-2step-stake-s,661,2302935,0.0-19.0-0.1-0.168,A2BPXWBO2OSJRP,3QX22DUVPRXA8IOFTTHB0PBO5I3MV1,31IBVUNM9WF7ORUSX8I0UJN22VKFVH,7,8
169,1,object_08,object_09,428.30000019073,1,1,595.40000009537,0.8888888888888888,1,object_01,1,1838,0,8,9,desert_1,2,memory-2step-stake-s,662,2311603,0.0-19.0-0.1-0.169,A2BPXWBO2OSJRP,3QX22DUVPRXA8IOFTTHB0PBO5I3MV1,31IBVUNM9WF7ORUSX8I0UJN22VKFVH,1,2
170,1,object_09,object_08,460.7999997139,1,2,461.5,0.7777777777777778,1,object_01,5,1873,0,7,7,desert_2,2,memory-2step-stake-s,663,2320029,0.0-19.0-0.1-0.170,A2BPXWBO2OSJRP,3QX22DUVPRXA8IOFTTHB0PBO5I3MV1,31IBVUNM9WF7ORUSX8I0UJN22VKFVH,2,1
171,1,object_09,object_08,425.0,2,1,641.10000038147,0.8888888888888888,2,object_02,5,1913,0,8,8,desert_6,2,memory-2step-stake-s,664,2328750,0.0-19.0-0.1-0.171,A2BPXWBO2OSJRP,3QX22DUVPRXA8IOFTTHB0PBO5I3MV1,31IBVUNM9WF7ORUSX8I0UJN22VKFVH,2,1
172,3,object_03,object_10,442.80000019073,5,2,451.2999997139,0.4444444444444444,1,object_01,1,1917,0,4,6,library_6,2,memory-2step-stake-s,665,2336870,0.0-19.0-0.1-0.172,A2BPXWBO2OSJRP,3QX22DUVPRXA8IOFTTHB0PBO5I3MV1,31IBVUNM9WF7ORUSX8I0UJN22VKFVH,6,5
173,2,object_04,object_05,238.7000002861,3,1,368.2999997139,0.4444444444444444,1,object_01,5,1937,0,4,5,forest_3,2,memory-2step-stake-s,666,2344898,0.0-19.0-0.1-0.173,A2BPXWBO2OSJRP,3QX22DUVPRXA8IOFTTHB0PBO5I3MV1,31IBVUNM9WF7ORUSX8I0UJN22VKFVH,3,4
174,4,object_07,object_06,419.69999980927,7,2,451.19999980927,0.5555555555555556,1,object_01,1,1942,0,5,5,restaurant_6,2,memory-2step-stake-s,667,2353107,0.0-19.0-0.1-0.174,A2BPXWBO2OSJRP,3QX22DUVPRXA8IOFTTHB0PBO5I3MV1,31IBVUNM9WF7ORUSX8I0UJN22VKFVH,8,7
175,3,object_03,object_10,379.7000002861,6,1,336.19999980927,0.5555555555555556,2,object_02,5,1967,0,7,5,library_5,2,memory-2step-stake-s,668,2361200,0.0-19.0-0.1-0.175,A2BPXWBO2OSJRP,3QX22DUVPRXA8IOFTTHB0PBO5I3MV1,31IBVUNM9WF7ORUSX8I0UJN22VKFVH,6,5
176,4,object_07,object_06,532.7000002861,7,2,438.39999961853,0.8888888888888888,1,object_01,1,1975,0,8,4,restaurant_6,2,memory-2step-stake-s,669,2369712,0.0-19.0-0.1-0.176,A2BPXWBO2OSJRP,3QX22DUVPRXA8IOFTTHB0PBO5I3MV1,31IBVUNM9WF7ORUSX8I0UJN22VKFVH,8,7
177,1,object_08,object_09,395.40000009537,1,1,348.0,0.8888888888888888,1,object_01,5,2015,0,8,1,desert_8,2,memory-2step-stake-s,670,2378121,0.0-19.0-0.1-0.177,A2BPXWBO2OSJRP,3QX22DUVPRXA8IOFTTHB0PBO5I3MV1,31IBVUNM9WF7ORUSX8I0UJN22VKFVH,1,2
178,4,object_07,object_06,464.5,8,1,484.5,0.3333333333333333,2,object_02,1,2018,0,6,3,restaurant_3,2,memory-2step-stake-s,671,2386153,0.0-19.0-0.1-0.178,A2BPXWBO2OSJRP,3QX22DUVPRXA8IOFTTHB0PBO5I3MV1,31IBVUNM9WF7ORUSX8I0UJN22VKFVH,8,7
179,2,object_04,object_05,377.80000019073,4,2,350.40000009537,0.0,2,object_02,5,2018,0,7,0,forest_3,2,memory-2step-stake-s,672,2393742,0.0-19.0-0.1-0.179,A2BPXWBO2OSJRP,3QX22DUVPRXA8IOFTTHB0PBO5I3MV1,31IBVUNM9WF7ORUSX8I0UJN22VKFVH,3,4
180,3,object_10,object_03,349.39999961853,5,1,366.59999990463,0.8888888888888888,1,object_01,1,2026,0,8,3,library_6,2,memory-2step-stake-s,673,2402181,0.0-19.0-0.1-0.180,A2BPXWBO2OSJRP,3QX22DUVPRXA8IOFTTHB0PBO5I3MV1,31IBVUNM9WF7ORUSX8I0UJN22VKFVH,5,6
181,3,object_03,object_10,674.40000009537,5,2,295.90000009537,0.6666666666666666,1,object_01,5,2056,0,6,4,library_2,2,memory-2step-stake-s,674,2410332,0.0-19.0-0.1-0.181,A2BPXWBO2OSJRP,3QX22DUVPRXA8IOFTTHB0PBO5I3MV1,31IBVUNM9WF7ORUSX8I0UJN22VKFVH,6,5
182,2,object_04,object_05,515.40000009537,4,2,298.69999980927,0.7777777777777778,2,object_02,5,2091,0,7,7,forest_7,2,memory-2step-stake-s,675,2418598,0.0-19.0-0.1-0.182,A2BPXWBO2OSJRP,3QX22DUVPRXA8IOFTTHB0PBO5I3MV1,31IBVUNM9WF7ORUSX8I0UJN22VKFVH,3,4
183,4,object_07,object_06,642.59999990463,8,1,333.2000002861,0.8888888888888888,2,object_02,5,2131,0,8,8,restaurant_5,2,memory-2step-stake-s,676,2426998,0.0-19.0-0.1-0.183,A2BPXWBO2OSJRP,3QX22DUVPRXA8IOFTTHB0PBO5I3MV1,31IBVUNM9WF7ORUSX8I0UJN22VKFVH,8,7
184,2,object_05,object_04,477.30000019073,3,2,314.39999961853,0.7777777777777778,1,object_01,5,2166,0,7,8,forest_4,2,memory-2step-stake-s,677,2435276,0.0-19.0-0.1-0.184,A2BPXWBO2OSJRP,3QX22DUVPRXA8IOFTTHB0PBO5I3MV1,31IBVUNM9WF7ORUSX8I0UJN22VKFVH,4,3
185,2,object_04,object_05,978.5,4,2,1135.8000001907,0.5555555555555556,2,object_02,5,2191,0,8,5,forest_4,2,memory-2step-stake-s,678,2444162,0.0-19.0-0.1-0.185,A2BPXWBO2OSJRP,3QX22DUVPRXA8IOFTTHB0PBO5I3MV1,31IBVUNM9WF7ORUSX8I0UJN22VKFVH,3,4
186,4,object_07,object_06,973.59999990463,8,1,570.5,0.6666666666666666,2,object_02,1,2197,0,7,6,restaurant_3,2,memory-2step-stake-s,679,2452593,0.0-19.0-0.1-0.186,A2BPXWBO2OSJRP,3QX22DUVPRXA8IOFTTHB0PBO5I3MV1,31IBVUNM9WF7ORUSX8I0UJN22VKFVH,8,7
187,1,object_08,object_09,567.69999980927,2,2,418.59999990463,0.7777777777777778,2,object_02,5,2232,0,6,7,desert_1,2,memory-2step-stake-s,680,2460976,0.0-19.0-0.1-0.187,A2BPXWBO2OSJRP,3QX22DUVPRXA8IOFTTHB0PBO5I3MV1,31IBVUNM9WF7ORUSX8I0UJN22VKFVH,1,2
188,4,object_07,object_06,425.39999961853,8,1,308.19999980927,0.6666666666666666,2,object_02,5,2262,0,8,6,restaurant_2,2,memory-2step-stake-s,681,2469143,0.0-19.0-0.1-0.188,A2BPXWBO2OSJRP,3QX22DUVPRXA8IOFTTHB0PBO5I3MV1,31IBVUNM9WF7ORUSX8I0UJN22VKFVH,8,7
189,1,object_09,object_08,436.90000009537,1,2,326.59999990463,0.7777777777777778,1,object_01,5,2297,0,7,8,desert_6,2,memory-2step-stake-s,682,2477433,0.0-19.0-0.1-0.189,A2BPXWBO2OSJRP,3QX22DUVPRXA8IOFTTHB0PBO5I3MV1,31IBVUNM9WF7ORUSX8I0UJN22VKFVH,2,1
190,1,object_08,object_09,482.19999980927,1,1,335.40000009537,0.6666666666666666,1,object_01,5,2327,0,6,9,desert_2,2,memory-2step-stake-s,683,2485629,0.0-19.0-0.1-0.190,A2BPXWBO2OSJRP,3QX22DUVPRXA8IOFTTHB0PBO5I3MV1,31IBVUNM9WF7ORUSX8I0UJN22VKFVH,1,2
191,2,object_05,object_04,467.39999961853,4,1,468.09999990463,0.6666666666666666,2,object_02,5,2357,0,7,6,forest_6,2,memory-2step-stake-s,684,2493960,0.0-19.0-0.1-0.191,A2BPXWBO2OSJRP,3QX22DUVPRXA8IOFTTHB0PBO5I3MV1,31IBVUNM9WF7ORUSX8I0UJN22VKFVH,4,3
192,2,object_04,object_05,435.59999990463,4,2,344.59999990463,0.8888888888888888,2,object_02,5,2397,0,6,8,forest_4,2,memory-2step-stake-s,685,2502377,0.0-19.0-0.1-0.192,A2BPXWBO2OSJRP,3QX22DUVPRXA8IOFTTHB0PBO5I3MV1,31IBVUNM9WF7ORUSX8I0UJN22VKFVH,3,4
193,3,object_10,object_03,497.80000019073,5,1,571.80000019073,0.5555555555555556,1,object_01,1,2402,0,5,3,library_2,2,memory-2step-stake-s,686,2510711,0.0-19.0-0.1-0.193,A2BPXWBO2OSJRP,3QX22DUVPRXA8IOFTTHB0PBO5I3MV1,31IBVUNM9WF7ORUSX8I0UJN22VKFVH,5,6
194,2,object_04,object_05,430.0,4,2,571.30000019073,0.3333333333333333,2,object_02,5,2417,0,5,3,forest_6,2,memory-2step-stake-s,687,2518835,0.0-19.0-0.1-0.194,A2BPXWBO2OSJRP,3QX22DUVPRXA8IOFTTHB0PBO5I3MV1,31IBVUNM9WF7ORUSX8I0UJN22VKFVH,3,4
195,2,object_05,object_04,281.09999990463,4,1,424.2999997139,0.2222222222222222,2,object_02,5,2427,0,7,2,forest_3,2,memory-2step-stake-s,688,2526706,0.0-19.0-0.1-0.195,A2BPXWBO2OSJRP,3QX22DUVPRXA8IOFTTHB0PBO5I3MV1,31IBVUNM9WF7ORUSX8I0UJN22VKFVH,4,3
196,1,object_09,object_08,571.5,1,2,539.89999961853,1.0,1,object_01,5,2472,0,9,1,desert_2,2,memory-2step-stake-s,689,2535419,0.0-19.0-0.1-0.196,A2BPXWBO2OSJRP,3QX22DUVPRXA8IOFTTHB0PBO5I3MV1,31IBVUNM9WF7ORUSX8I0UJN22VKFVH,2,1
197,4,object_07,object_06,295.5,8,1,539.30000019073,0.0,2,object_02,1,2472,0,9,0,restaurant_5,2,memory-2step-stake-s,690,2543198,0.0-19.0-0.1-0.197,A2BPXWBO2OSJRP,3QX22DUVPRXA8IOFTTHB0PBO5I3MV1,31IBVUNM9WF7ORUSX8I0UJN22VKFVH,8,7
198,2,object_05,object_04,394.5,4,1,323.30000019073,0.1111111111111111,2,object_02,1,2473,0,9,1,forest_6,2,memory-2step-stake-s,691,2550866,0.0-19.0-0.1-0.198,A2BPXWBO2OSJRP,3QX22DUVPRXA8IOFTTHB0PBO5I3MV1,31IBVUNM9WF7ORUSX8I0UJN22VKFVH,4,3
199,3,object_10,object_03,453.40000009537,6,2,311.40000009537,0.0,2,object_02,5,2473,0,9,0,library_2,2,memory-2step-stake-s,692,2558418,0.0-19.0-0.1-0.199,A2BPXWBO2OSJRP,3QX22DUVPRXA8IOFTTHB0PBO5I3MV1,31IBVUNM9WF7ORUSX8I0UJN22VKFVH,5,6
200,2,object_05,object_04,482.30000019073,4,1,477.19999980927,0.3333333333333333,2,object_02,5,2488,0,8,3,forest_7,2,memory-2step-stake-s,693,2566442,0.0-19.0-0.1-0.200,A2BPXWBO2OSJRP,3QX22DUVPRXA8IOFTTHB0PBO5I3MV1,31IBVUNM9WF7ORUSX8I0UJN22VKFVH,4,3
201,1,object_09,object_08,527.59999990463,1,2,493.09999990463,0.7777777777777778,1,object_01,5,2523,0,7,1,desert_1,2,memory-2step-stake-s,694,2574900,0.0-19.0-0.1-0.201,A2BPXWBO2OSJRP,3QX22DUVPRXA8IOFTTHB0PBO5I3MV1,31IBVUNM9WF7ORUSX8I0UJN22VKFVH,2,1
202,2,object_05,object_04,439.80000019073,4,1,422.09999990463,0.2222222222222222,2,object_02,1,2525,0,7,2,forest_3,2,memory-2step-stake-s,695,2582772,0.0-19.0-0.1-0.202,A2BPXWBO2OSJRP,3QX22DUVPRXA8IOFTTHB0PBO5I3MV1,31IBVUNM9WF7ORUSX8I0UJN22VKFVH,4,3
203,2,object_04,object_05,477.2999997139,4,2,395.09999990463,0.4444444444444444,2,object_02,1,2529,0,5,4,forest_7,2,memory-2step-stake-s,696,2590828,0.0-19.0-0.1-0.203,A2BPXWBO2OSJRP,3QX22DUVPRXA8IOFTTHB0PBO5I3MV1,31IBVUNM9WF7ORUSX8I0UJN22VKFVH,3,4
204,3,object_10,object_03,404.19999980927,5,1,360.30000019073,0.2222222222222222,1,object_01,1,2531,0,2,5,library_5,2,memory-2step-stake-s,697,2598636,0.0-19.0-0.1-0.204,A2BPXWBO2OSJRP,3QX22DUVPRXA8IOFTTHB0PBO5I3MV1,31IBVUNM9WF7ORUSX8I0UJN22VKFVH,5,6
205,1,object_09,object_08,421.59999990463,2,1,542.30000019073,0.3333333333333333,2,object_02,1,2534,0,4,3,desert_2,2,memory-2step-stake-s,698,2606734,0.0-19.0-0.1-0.205,A2BPXWBO2OSJRP,3QX22DUVPRXA8IOFTTHB0PBO5I3MV1,31IBVUNM9WF7ORUSX8I0UJN22VKFVH,2,1
206,1,object_09,object_08,353.2999997139,1,2,339.5,0.5555555555555556,1,object_01,5,2559,0,5,6,desert_8,2,memory-2step-stake-s,699,2614833,0.0-19.0-0.1-0.206,A2BPXWBO2OSJRP,3QX22DUVPRXA8IOFTTHB0PBO5I3MV1,31IBVUNM9WF7ORUSX8I0UJN22VKFVH,2,1
207,1,object_08,object_09,-1.0,-1,-1,-1.0,0.0,-,0,5,2559,0,3,6,desert_2,2,memory-2step-stake-s,700,2621357,0.0-19.0-0.1-0.207,A2BPXWBO2OSJRP,3QX22DUVPRXA8IOFTTHB0PBO5I3MV1,31IBVUNM9WF7ORUSX8I0UJN22VKFVH,1,2
208,2,object_05,object_04,1249.3000001907,4,1,1079.6999998093,0.7777777777777778,2,object_02,5,2594,0,6,7,forest_7,2,memory-2step-stake-s,701,2630408,0.0-19.0-0.1-0.208,A2BPXWBO2OSJRP,3QX22DUVPRXA8IOFTTHB0PBO5I3MV1,31IBVUNM9WF7ORUSX8I0UJN22VKFVH,4,3
209,3,object_10,object_03,950.0,6,2,541.7000002861,0.8888888888888888,2,object_02,5,2634,0,6,8,library_5,2,memory-2step-stake-s,702,2639022,0.0-19.0-0.1-0.209,A2BPXWBO2OSJRP,3QX22DUVPRXA8IOFTTHB0PBO5I3MV1,31IBVUNM9WF7ORUSX8I0UJN22VKFVH,5,6
210,2,object_04,object_05,761.10000038147,4,2,442.59999990463,0.8888888888888888,2,object_02,5,2674,0,8,8,forest_4,2,memory-2step-stake-s,703,2647538,0.0-19.0-0.1-0.210,A2BPXWBO2OSJRP,3QX22DUVPRXA8IOFTTHB0PBO5I3MV1,31IBVUNM9WF7ORUSX8I0UJN22VKFVH,3,4
211,3,object_10,object_03,541.80000019073,5,1,394.89999961853,0.7777777777777778,1,object_01,5,2709,0,7,8,library_5,2,memory-2step-stake-s,704,2655903,0.0-19.0-0.1-0.211,A2BPXWBO2OSJRP,3QX22DUVPRXA8IOFTTHB0PBO5I3MV1,31IBVUNM9WF7ORUSX8I0UJN22VKFVH,5,6
212,3,object_03,object_10,590.40000009537,5,2,427.90000009537,0.5555555555555556,1,object_01,1,2714,0,5,7,library_5,2,memory-2step-stake-s,705,2664094,0.0-19.0-0.1-0.212,A2BPXWBO2OSJRP,3QX22DUVPRXA8IOFTTHB0PBO5I3MV1,31IBVUNM9WF7ORUSX8I0UJN22VKFVH,6,5
213,4,object_07,object_06,573.69999980927,8,1,567.90000009537,0.2222222222222222,2,object_02,1,2716,0,7,2,restaurant_5,2,memory-2step-stake-s,706,2672105,0.0-19.0-0.1-0.213,A2BPXWBO2OSJRP,3QX22DUVPRXA8IOFTTHB0PBO5I3MV1,31IBVUNM9WF7ORUSX8I0UJN22VKFVH,8,7
214,4,object_06,object_07,557.7999997139,7,1,553.69999980927,0.6666666666666666,1,object_01,1,2722,0,6,1,restaurant_6,2,memory-2step-stake-s,707,2680523,0.0-19.0-0.1-0.214,A2BPXWBO2OSJRP,3QX22DUVPRXA8IOFTTHB0PBO5I3MV1,31IBVUNM9WF7ORUSX8I0UJN22VKFVH,7,8
215,3,object_03,object_10,299.19999980927,5,2,415.80000019073,1.0,1,object_01,1,2731,0,9,2,library_2,2,memory-2step-stake-s,708,2689119,0.0-19.0-0.1-0.215,A2BPXWBO2OSJRP,3QX22DUVPRXA8IOFTTHB0PBO5I3MV1,31IBVUNM9WF7ORUSX8I0UJN22VKFVH,6,5
216,1,object_09,object_08,590.80000019073,2,1,504.09999990463,0.1111111111111111,2,object_02,5,2736,0,9,1,desert_6,2,memory-2step-stake-s,709,2696966,0.0-19.0-0.1-0.216,A2BPXWBO2OSJRP,3QX22DUVPRXA8IOFTTHB0PBO5I3MV1,31IBVUNM9WF7ORUSX8I0UJN22VKFVH,2,1
217,1,object_09,object_08,446.89999961853,1,2,454.5,0.8888888888888888,1,object_01,5,2776,0,8,2,desert_2,2,memory-2step-stake-s,710,2705495,0.0-19.0-0.1-0.217,A2BPXWBO2OSJRP,3QX22DUVPRXA8IOFTTHB0PBO5I3MV1,31IBVUNM9WF7ORUSX8I0UJN22VKFVH,2,1
218,2,object_04,object_05,591.40000009537,3,1,295.7999997139,0.7777777777777778,1,object_01,5,2811,0,7,3,forest_4,2,memory-2step-stake-s,711,2713762,0.0-19.0-0.1-0.218,A2BPXWBO2OSJRP,3QX22DUVPRXA8IOFTTHB0PBO5I3MV1,31IBVUNM9WF7ORUSX8I0UJN22VKFVH,3,4
219,4,object_07,object_06,571.5,7,2,480.59999990463,0.4444444444444444,1,object_01,5,2831,0,4,1,restaurant_3,2,memory-2step-stake-s,712,2721905,0.0-19.0-0.1-0.219,A2BPXWBO2OSJRP,3QX22DUVPRXA8IOFTTHB0PBO5I3MV1,31IBVUNM9WF7ORUSX8I0UJN22VKFVH,8,7
220,2,object_05,object_04,528.90000009537,4,1,364.90000009537,0.1111111111111111,2,object_02,5,2836,0,6,1,forest_3,2,memory-2step-stake-s,713,2729610,0.0-19.0-0.1-0.220,A2BPXWBO2OSJRP,3QX22DUVPRXA8IOFTTHB0PBO5I3MV1,31IBVUNM9WF7ORUSX8I0UJN22VKFVH,4,3
221,4,object_06,object_07,614.7000002861,7,1,516.80000019073,0.7777777777777778,1,object_01,1,2843,0,7,2,restaurant_3,2,memory-2step-stake-s,714,2738091,0.0-19.0-0.1-0.221,A2BPXWBO2OSJRP,3QX22DUVPRXA8IOFTTHB0PBO5I3MV1,31IBVUNM9WF7ORUSX8I0UJN22VKFVH,7,8
222,3,object_03,object_10,707.2000002861,5,2,429.5,0.6666666666666666,1,object_01,1,2849,0,6,1,library_1,2,memory-2step-stake-s,715,2746382,0.0-19.0-0.1-0.222,A2BPXWBO2OSJRP,3QX22DUVPRXA8IOFTTHB0PBO5I3MV1,31IBVUNM9WF7ORUSX8I0UJN22VKFVH,6,5
223,3,object_10,object_03,491.59999990463,5,1,313.5,0.5555555555555556,1,object_01,5,2874,0,5,2,library_2,2,memory-2step-stake-s,716,2754449,0.0-19.0-0.1-0.223,A2BPXWBO2OSJRP,3QX22DUVPRXA8IOFTTHB0PBO5I3MV1,31IBVUNM9WF7ORUSX8I0UJN22VKFVH,5,6
224,1,object_08,object_09,395.0,1,1,384.60000038147,1.0,1,object_01,1,2883,0,9,0,desert_1,2,memory-2step-stake-s,717,2763007,0.0-19.0-0.1-0.224,A2BPXWBO2OSJRP,3QX22DUVPRXA8IOFTTHB0PBO5I3MV1,31IBVUNM9WF7ORUSX8I0UJN22VKFVH,1,2
225,1,object_08,object_09,477.40000009537,2,2,335.90000009537,0.3333333333333333,2,object_02,5,2898,0,8,3,desert_6,2,memory-2step-stake-s,718,2770889,0.0-19.0-0.1-0.225,A2BPXWBO2OSJRP,3QX22DUVPRXA8IOFTTHB0PBO5I3MV1,31IBVUNM9WF7ORUSX8I0UJN22VKFVH,1,2
226,1,object_08,object_09,471.30000019073,1,1,400.7000002861,0.6666666666666666,1,object_01,5,2928,0,6,4,desert_8,2,memory-2step-stake-s,719,2779152,0.0-19.0-0.1-0.226,A2BPXWBO2OSJRP,3QX22DUVPRXA8IOFTTHB0PBO5I3MV1,31IBVUNM9WF7ORUSX8I0UJN22VKFVH,1,2
227,1,object_08,object_09,547.69999980927,1,1,419.40000009537,0.3333333333333333,1,object_01,5,2943,0,3,5,desert_2,2,memory-2step-stake-s,720,2787120,0.0-19.0-0.1-0.227,A2BPXWBO2OSJRP,3QX22DUVPRXA8IOFTTHB0PBO5I3MV1,31IBVUNM9WF7ORUSX8I0UJN22VKFVH,1,2
228,2,object_05,object_04,460.40000009537,3,2,480.7999997139,0.3333333333333333,1,object_01,5,2958,0,3,5,forest_3,2,memory-2step-stake-s,721,2795150,0.0-19.0-0.1-0.228,A2BPXWBO2OSJRP,3QX22DUVPRXA8IOFTTHB0PBO5I3MV1,31IBVUNM9WF7ORUSX8I0UJN22VKFVH,4,3
229,3,object_03,object_10,636.5,5,2,402.90000009537,0.6666666666666666,1,object_01,5,2988,0,6,7,library_1,2,memory-2step-stake-s,722,2803409,0.0-19.0-0.1-0.229,A2BPXWBO2OSJRP,3QX22DUVPRXA8IOFTTHB0PBO5I3MV1,31IBVUNM9WF7ORUSX8I0UJN22VKFVH,6,5
230,3,object_03,object_10,493.7999997139,6,1,402.59999990463,0.6666666666666666,2,object_02,1,2994,0,8,6,library_6,2,memory-2step-stake-s,723,2811671,0.0-19.0-0.1-0.230,A2BPXWBO2OSJRP,3QX22DUVPRXA8IOFTTHB0PBO5I3MV1,31IBVUNM9WF7ORUSX8I0UJN22VKFVH,6,5
231,2,object_05,object_04,477.5,3,2,310.7000002861,1.0,1,object_01,5,3039,0,9,5,forest_4,2,memory-2step-stake-s,724,2820156,0.0-19.0-0.1-0.231,A2BPXWBO2OSJRP,3QX22DUVPRXA8IOFTTHB0PBO5I3MV1,31IBVUNM9WF7ORUSX8I0UJN22VKFVH,4,3
232,4,object_06,object_07,597.2999997139,8,2,673.90000009537,0.5555555555555556,2,object_02,1,3044,0,5,5,restaurant_2,2,memory-2step-stake-s,725,2828587,0.0-19.0-0.1-0.232,A2BPXWBO2OSJRP,3QX22DUVPRXA8IOFTTHB0PBO5I3MV1,31IBVUNM9WF7ORUSX8I0UJN22VKFVH,7,8
233,1,object_08,object_09,388.2999997139,1,1,476.10000038147,0.8888888888888888,1,object_01,1,3052,0,8,5,desert_2,2,memory-2step-stake-s,726,2837131,0.0-19.0-0.1-0.233,A2BPXWBO2OSJRP,3QX22DUVPRXA8IOFTTHB0PBO5I3MV1,31IBVUNM9WF7ORUSX8I0UJN22VKFVH,1,2
234,2,object_04,object_05,606.19999980927,4,2,280.69999980927,0.4444444444444444,2,object_02,1,3056,0,7,4,forest_4,2,memory-2step-stake-s,727,2845060,0.0-19.0-0.1-0.234,A2BPXWBO2OSJRP,3QX22DUVPRXA8IOFTTHB0PBO5I3MV1,31IBVUNM9WF7ORUSX8I0UJN22VKFVH,3,4
235,2,object_05,object_04,424.5,4,1,376.59999990463,0.1111111111111111,2,object_02,5,3061,0,7,1,forest_3,2,memory-2step-stake-s,728,2852775,0.0-19.0-0.1-0.235,A2BPXWBO2OSJRP,3QX22DUVPRXA8IOFTTHB0PBO5I3MV1,31IBVUNM9WF7ORUSX8I0UJN22VKFVH,4,3
236,4,object_07,object_06,544.90000009537,8,1,480.30000019073,0.0,2,object_02,1,3061,0,6,0,restaurant_3,2,memory-2step-stake-s,729,2860484,0.0-19.0-0.1-0.236,A2BPXWBO2OSJRP,3QX22DUVPRXA8IOFTTHB0PBO5I3MV1,31IBVUNM9WF7ORUSX8I0UJN22VKFVH,8,7
237,3,object_10,object_03,353.09999990463,6,2,321.0,0.0,2,object_02,1,3061,0,4,0,library_2,2,memory-2step-stake-s,730,2868031,0.0-19.0-0.1-0.237,A2BPXWBO2OSJRP,3QX22DUVPRXA8IOFTTHB0PBO5I3MV1,31IBVUNM9WF7ORUSX8I0UJN22VKFVH,5,6
238,1,object_09,object_08,402.5,2,1,486.09999990463,0.3333333333333333,2,object_02,5,3076,0,2,3,desert_1,2,memory-2step-stake-s,731,2876065,0.0-19.0-0.1-0.238,A2BPXWBO2OSJRP,3QX22DUVPRXA8IOFTTHB0PBO5I3MV1,31IBVUNM9WF7ORUSX8I0UJN22VKFVH,2,1
239,2,object_04,object_05,687.90000009537,4,2,446.19999980927,0.0,2,object_02,5,3076,0,2,0,forest_4,2,memory-2step-stake-s,732,2883745,0.0-19.0-0.1-0.239,A2BPXWBO2OSJRP,3QX22DUVPRXA8IOFTTHB0PBO5I3MV1,31IBVUNM9WF7ORUSX8I0UJN22VKFVH,3,4
240,4,object_06,object_07,558.2000002861,7,1,468.5,0.2222222222222222,1,object_01,1,3078,0,2,3,restaurant_2,2,memory-2step-stake-s,733,2891657,0.0-19.0-0.1-0.240,A2BPXWBO2OSJRP,3QX22DUVPRXA8IOFTTHB0PBO5I3MV1,31IBVUNM9WF7ORUSX8I0UJN22VKFVH,7,8
241,3,object_03,object_10,625.5,5,2,463.69999980927,0.1111111111111111,1,object_01,1,3079,0,1,2,library_6,2,memory-2step-stake-s,734,2899462,0.0-19.0-0.1-0.241,A2BPXWBO2OSJRP,3QX22DUVPRXA8IOFTTHB0PBO5I3MV1,31IBVUNM9WF7ORUSX8I0UJN22VKFVH,6,5
242,3,object_03,object_10,507.2000002861,6,1,552.09999990463,0.5555555555555556,2,object_02,1,3084,0,2,5,library_2,2,memory-2step-stake-s,735,2907772,0.0-19.0-0.1-0.242,A2BPXWBO2OSJRP,3QX22DUVPRXA8IOFTTHB0PBO5I3MV1,31IBVUNM9WF7ORUSX8I0UJN22VKFVH,6,5
243,3,object_10,object_03,558.80000019073,5,1,404.80000019073,0.1111111111111111,1,object_01,1,3085,0,1,4,library_1,2,memory-2step-stake-s,736,2915516,0.0-19.0-0.1-0.243,A2BPXWBO2OSJRP,3QX22DUVPRXA8IOFTTHB0PBO5I3MV1,31IBVUNM9WF7ORUSX8I0UJN22VKFVH,5,6
244,2,object_05,object_04,569.40000009537,4,1,416.80000019073,0.2222222222222222,2,object_02,5,3095,0,1,2,forest_6,2,memory-2step-stake-s,737,2923376,0.0-19.0-0.1-0.244,A2BPXWBO2OSJRP,3QX22DUVPRXA8IOFTTHB0PBO5I3MV1,31IBVUNM9WF7ORUSX8I0UJN22VKFVH,4,3
245,1,object_09,object_08,455.09999990463,1,2,448.30000019073,0.3333333333333333,1,object_01,1,3098,0,3,4,desert_2,2,memory-2step-stake-s,738,2931376,0.0-19.0-0.1-0.245,A2BPXWBO2OSJRP,3QX22DUVPRXA8IOFTTHB0PBO5I3MV1,31IBVUNM9WF7ORUSX8I0UJN22VKFVH,2,1
246,3,object_03,object_10,536.40000009537,5,2,340.5,0.1111111111111111,1,object_01,1,3099,0,1,3,library_1,2,memory-2step-stake-s,739,2939051,0.0-19.0-0.1-0.246,A2BPXWBO2OSJRP,3QX22DUVPRXA8IOFTTHB0PBO5I3MV1,31IBVUNM9WF7ORUSX8I0UJN22VKFVH,6,5
247,4,object_06,object_07,423.09999990463,7,1,414.10000038147,0.0,1,object_01,1,3099,0,0,3,restaurant_3,2,memory-2step-stake-s,740,2946701,0.0-19.0-0.1-0.247,A2BPXWBO2OSJRP,3QX22DUVPRXA8IOFTTHB0PBO5I3MV1,31IBVUNM9WF7ORUSX8I0UJN22VKFVH,7,8
248,2,object_04,object_05,576.59999990463,4,2,280.7999997139,0.2222222222222222,2,object_02,5,3109,0,3,2,forest_7,2,memory-2step-stake-s,741,2954428,0.0-19.0-0.1-0.248,A2BPXWBO2OSJRP,3QX22DUVPRXA8IOFTTHB0PBO5I3MV1,31IBVUNM9WF7ORUSX8I0UJN22VKFVH,3,4
249,4,object_06,object_07,486.30000019073,7,1,322.09999990463,0.2222222222222222,1,object_01,5,3119,0,2,1,restaurant_2,2,memory-2step-stake-s,742,2962188,0.0-19.0-0.1-0.249,A2BPXWBO2OSJRP,3QX22DUVPRXA8IOFTTHB0PBO5I3MV1,31IBVUNM9WF7ORUSX8I0UJN22VKFVH,7,8
250,4,object_06,object_07,526.5,7,1,373.30000019073,0.4444444444444444,1,object_01,5,3139,0,4,1,restaurant_2,2,memory-2step-stake-s,743,2970209,0.0-19.0-0.1-0.250,A2BPXWBO2OSJRP,3QX22DUVPRXA8IOFTTHB0PBO5I3MV1,31IBVUNM9WF7ORUSX8I0UJN22VKFVH,7,8
251,1,object_08,object_09,718.0,2,2,306.09999990463,0.2222222222222222,2,object_02,5,3149,0,3,2,desert_8,2,memory-2step-stake-s,744,2977959,0.0-19.0-0.1-0.251,A2BPXWBO2OSJRP,3QX22DUVPRXA8IOFTTHB0PBO5I3MV1,31IBVUNM9WF7ORUSX8I0UJN22VKFVH,1,2
252,3,object_10,object_03,1052.5999999046,5,1,485.90000009537,0.0,1,object_01,1,3149,0,0,0,library_1,2,memory-2step-stake-s,745,2985682,0.0-19.0-0.1-0.252,A2BPXWBO2OSJRP,3QX22DUVPRXA8IOFTTHB0PBO5I3MV1,31IBVUNM9WF7ORUSX8I0UJN22VKFVH,5,6
253,2,object_04,object_05,573.09999990463,4,2,390.30000019073,0.2222222222222222,2,object_02,5,3159,0,2,2,forest_6,2,memory-2step-stake-s,746,2993520,0.0-19.0-0.1-0.253,A2BPXWBO2OSJRP,3QX22DUVPRXA8IOFTTHB0PBO5I3MV1,31IBVUNM9WF7ORUSX8I0UJN22VKFVH,3,4
254,1,object_08,object_09,413.0,1,1,783.0,0.5555555555555556,1,object_01,5,3184,0,5,4,desert_6,2,memory-2step-stake-s,747,3002064,0.0-19.0-0.1-0.254,A2BPXWBO2OSJRP,3QX22DUVPRXA8IOFTTHB0PBO5I3MV1,31IBVUNM9WF7ORUSX8I0UJN22VKFVH,1,2
255,4,object_07,object_06,514.5,8,1,523.0,0.2222222222222222,2,object_02,1,3186,0,4,2,restaurant_2,2,memory-2step-stake-s,748,3010028,0.0-19.0-0.1-0.255,A2BPXWBO2OSJRP,3QX22DUVPRXA8IOFTTHB0PBO5I3MV1,31IBVUNM9WF7ORUSX8I0UJN22VKFVH,8,7
