,state1,stim_left,stim_right,rt_1,choice1,response1,rt_2,points,state2,stim_state2,stake,score,practice,rews1,rews2,background,high_arm,trial_type,trial_index,time_elapsed,internal_node_id,subid,hitid,assignmentid,stim_left_num,stim_right_num
0,2,object_05,object_04,539.69999998808,3,2,1362.5,0.0,1,object_01,1,0,0,0,6,forest_1,1,memory-2step-stake-s,488,1096703,0.0-19.0-0.0-0.0,A3DDTGMRDXR9NR,32CXT5U15JJVAEXBU2XNZL8A76W8U1,3NJM2BJS40MNGVDMKUJ0GLDHJSMPCM,4,3
1,3,object_08,object_02,625.30000001192,5,1,917.5,0.1111111111111111,1,object_01,1,1,0,1,2,library_2,1,memory-2step-stake-s,489,1105002,0.0-19.0-0.0-0.1,A3DDTGMRDXR9NR,32CXT5U15JJVAEXBU2XNZL8A76W8U1,3NJM2BJS40MNGVDMKUJ0GLDHJSMPCM,5,6
2,4,object_03,object_07,1111.8999999762,8,1,731.0,0.5555555555555556,2,object_09,5,26,0,0,5,restaurant_6,1,memory-2step-stake-s,490,1113600,0.0-19.0-0.0-0.2,A3DDTGMRDXR9NR,32CXT5U15JJVAEXBU2XNZL8A76W8U1,3NJM2BJS40MNGVDMKUJ0GLDHJSMPCM,8,7
3,3,object_08,object_02,789.39999997616,6,2,454.80000001192,0.5555555555555556,2,object_09,1,31,0,0,5,library_2,1,memory-2step-stake-s,491,1121854,0.0-19.0-0.0-0.3,A3DDTGMRDXR9NR,32CXT5U15JJVAEXBU2XNZL8A76W8U1,3NJM2BJS40MNGVDMKUJ0GLDHJSMPCM,5,6
4,2,object_05,object_04,1235.0999999642,4,1,608.0,0.7777777777777778,2,object_09,5,66,0,2,7,forest_2,1,memory-2step-stake-s,492,1130420,0.0-19.0-0.0-0.4,A3DDTGMRDXR9NR,32CXT5U15JJVAEXBU2XNZL8A76W8U1,3NJM2BJS40MNGVDMKUJ0GLDHJSMPCM,4,3
5,2,object_04,object_05,736.0,4,2,729.80000001192,0.5555555555555556,2,object_09,1,71,0,2,5,forest_1,1,memory-2step-stake-s,493,1138929,0.0-19.0-0.0-0.5,A3DDTGMRDXR9NR,32CXT5U15JJVAEXBU2XNZL8A76W8U1,3NJM2BJS40MNGVDMKUJ0GLDHJSMPCM,3,4
6,4,object_03,object_07,595.30000001192,8,1,514.5,0.6666666666666666,2,object_09,1,77,0,1,6,restaurant_2,1,memory-2step-stake-s,494,1147337,0.0-19.0-0.0-0.6,A3DDTGMRDXR9NR,32CXT5U15JJVAEXBU2XNZL8A76W8U1,3NJM2BJS40MNGVDMKUJ0GLDHJSMPCM,8,7
7,3,object_02,object_08,1125.1999999881,5,2,508.69999998808,0.2222222222222222,1,object_01,5,87,0,2,8,library_5,1,memory-2step-stake-s,495,1155305,0.0-19.0-0.0-0.7,A3DDTGMRDXR9NR,32CXT5U15JJVAEXBU2XNZL8A76W8U1,3NJM2BJS40MNGVDMKUJ0GLDHJSMPCM,6,5
8,2,object_04,object_05,677.39999997616,4,2,436.40000003576,0.6666666666666666,2,object_09,1,93,0,3,6,forest_8,1,memory-2step-stake-s,496,1163647,0.0-19.0-0.0-0.8,A3DDTGMRDXR9NR,32CXT5U15JJVAEXBU2XNZL8A76W8U1,3NJM2BJS40MNGVDMKUJ0GLDHJSMPCM,3,4
9,4,object_03,object_07,529.10000002384,8,1,624.10000002384,0.6666666666666666,2,object_09,5,123,0,3,6,restaurant_3,1,memory-2step-stake-s,497,1172174,0.0-19.0-0.0-0.9,A3DDTGMRDXR9NR,32CXT5U15JJVAEXBU2XNZL8A76W8U1,3NJM2BJS40MNGVDMKUJ0GLDHJSMPCM,8,7
10,4,object_03,object_07,533.29999995232,8,1,397.10000002384,1.0,2,object_09,5,168,0,3,9,restaurant_3,1,memory-2step-stake-s,498,1180776,0.0-19.0-0.0-0.10,A3DDTGMRDXR9NR,32CXT5U15JJVAEXBU2XNZL8A76W8U1,3NJM2BJS40MNGVDMKUJ0GLDHJSMPCM,8,7
11,2,object_05,object_04,753.89999997616,4,1,502.0,0.6666666666666666,2,object_09,1,174,0,0,6,forest_4,1,memory-2step-stake-s,499,1189182,0.0-19.0-0.0-0.11,A3DDTGMRDXR9NR,32CXT5U15JJVAEXBU2XNZL8A76W8U1,3NJM2BJS40MNGVDMKUJ0GLDHJSMPCM,4,3
12,1,object_06,object_10,1151.8000000119,2,2,523.59999996424,0.4444444444444444,2,object_09,1,178,0,3,4,desert_8,1,memory-2step-stake-s,500,1197382,0.0-19.0-0.0-0.12,A3DDTGMRDXR9NR,32CXT5U15JJVAEXBU2XNZL8A76W8U1,3NJM2BJS40MNGVDMKUJ0GLDHJSMPCM,1,2
13,3,object_02,object_08,804.89999997616,6,1,494.19999998808,0.2222222222222222,2,object_09,5,188,0,4,2,library_3,1,memory-2step-stake-s,501,1205336,0.0-19.0-0.0-0.13,A3DDTGMRDXR9NR,32CXT5U15JJVAEXBU2XNZL8A76W8U1,3NJM2BJS40MNGVDMKUJ0GLDHJSMPCM,6,5
14,2,object_05,object_04,692.89999997616,3,2,392.5,0.5555555555555556,1,object_01,5,213,0,5,2,forest_4,1,memory-2step-stake-s,502,1213521,0.0-19.0-0.0-0.14,A3DDTGMRDXR9NR,32CXT5U15JJVAEXBU2XNZL8A76W8U1,3NJM2BJS40MNGVDMKUJ0GLDHJSMPCM,4,3
15,4,object_07,object_03,712.40000003576,7,1,388.10000002384,0.8888888888888888,1,object_01,5,253,0,8,1,restaurant_7,1,memory-2step-stake-s,503,1222013,0.0-19.0-0.0-0.15,A3DDTGMRDXR9NR,32CXT5U15JJVAEXBU2XNZL8A76W8U1,3NJM2BJS40MNGVDMKUJ0GLDHJSMPCM,7,8
16,2,object_05,object_04,1078.0,3,2,417.30000001192,0.8888888888888888,1,object_01,1,261,0,8,1,forest_4,1,memory-2step-stake-s,504,1230530,0.0-19.0-0.0-0.16,A3DDTGMRDXR9NR,32CXT5U15JJVAEXBU2XNZL8A76W8U1,3NJM2BJS40MNGVDMKUJ0GLDHJSMPCM,4,3
17,2,object_05,object_04,862.59999996424,3,2,456.5,0.7777777777777778,1,object_01,1,268,0,7,3,forest_8,1,memory-2step-stake-s,505,1238982,0.0-19.0-0.0-0.17,A3DDTGMRDXR9NR,32CXT5U15JJVAEXBU2XNZL8A76W8U1,3NJM2BJS40MNGVDMKUJ0GLDHJSMPCM,4,3
18,4,object_03,object_07,688.39999997616,7,2,414.69999998808,0.6666666666666666,1,object_01,1,274,0,6,6,restaurant_2,1,memory-2step-stake-s,506,1247308,0.0-19.0-0.0-0.18,A3DDTGMRDXR9NR,32CXT5U15JJVAEXBU2XNZL8A76W8U1,3NJM2BJS40MNGVDMKUJ0GLDHJSMPCM,8,7
19,4,object_03,object_07,883.5,7,2,460.80000001192,0.6666666666666666,1,object_01,5,304,0,6,6,restaurant_7,1,memory-2step-stake-s,507,1255666,0.0-19.0-0.0-0.19,A3DDTGMRDXR9NR,32CXT5U15JJVAEXBU2XNZL8A76W8U1,3NJM2BJS40MNGVDMKUJ0GLDHJSMPCM,8,7
20,3,object_08,object_02,1019.5,5,1,425.19999998808,0.6666666666666666,1,object_01,5,334,0,6,5,library_5,1,memory-2step-stake-s,508,1264014,0.0-19.0-0.0-0.20,A3DDTGMRDXR9NR,32CXT5U15JJVAEXBU2XNZL8A76W8U1,3NJM2BJS40MNGVDMKUJ0GLDHJSMPCM,5,6
21,1,object_06,object_10,891.0,1,1,537.79999995232,0.8888888888888888,1,object_01,1,342,0,8,7,desert_3,1,memory-2step-stake-s,509,1272689,0.0-19.0-0.0-0.21,A3DDTGMRDXR9NR,32CXT5U15JJVAEXBU2XNZL8A76W8U1,3NJM2BJS40MNGVDMKUJ0GLDHJSMPCM,1,2
22,3,object_08,object_02,986.60000002384,5,1,523.60000002384,0.8888888888888888,1,object_01,5,382,0,8,8,library_2,1,memory-2step-stake-s,510,1281363,0.0-19.0-0.0-0.22,A3DDTGMRDXR9NR,32CXT5U15JJVAEXBU2XNZL8A76W8U1,3NJM2BJS40MNGVDMKUJ0GLDHJSMPCM,5,6
23,1,object_10,object_06,989.0,1,2,425.30000001192,0.8888888888888888,1,object_01,1,390,0,8,8,desert_8,1,memory-2step-stake-s,511,1289944,0.0-19.0-0.0-0.23,A3DDTGMRDXR9NR,32CXT5U15JJVAEXBU2XNZL8A76W8U1,3NJM2BJS40MNGVDMKUJ0GLDHJSMPCM,2,1
24,1,object_10,object_06,1220.3000000119,1,2,470.0,0.7777777777777778,1,object_01,1,397,0,7,9,desert_7,1,memory-2step-stake-s,512,1298434,0.0-19.0-0.0-0.24,A3DDTGMRDXR9NR,32CXT5U15JJVAEXBU2XNZL8A76W8U1,3NJM2BJS40MNGVDMKUJ0GLDHJSMPCM,2,1
25,4,object_03,object_07,794.19999998808,7,2,446.69999998808,0.8888888888888888,1,object_01,5,437,0,8,8,restaurant_7,1,memory-2step-stake-s,513,1306970,0.0-19.0-0.0-0.25,A3DDTGMRDXR9NR,32CXT5U15JJVAEXBU2XNZL8A76W8U1,3NJM2BJS40MNGVDMKUJ0GLDHJSMPCM,8,7
26,4,object_07,object_03,634.19999998808,7,1,429.19999998808,0.8888888888888888,1,object_01,5,477,0,8,7,restaurant_7,1,memory-2step-stake-s,514,1315517,0.0-19.0-0.0-0.26,A3DDTGMRDXR9NR,32CXT5U15JJVAEXBU2XNZL8A76W8U1,3NJM2BJS40MNGVDMKUJ0GLDHJSMPCM,7,8
27,2,object_05,object_04,1054.3000000119,3,2,759.0,0.8888888888888888,1,object_01,1,485,0,8,8,forest_8,1,memory-2step-stake-s,515,1324378,0.0-19.0-0.0-0.27,A3DDTGMRDXR9NR,32CXT5U15JJVAEXBU2XNZL8A76W8U1,3NJM2BJS40MNGVDMKUJ0GLDHJSMPCM,4,3
28,3,object_08,object_02,980.10000002384,5,1,479.29999995232,0.6666666666666666,1,object_01,5,515,0,6,7,library_2,1,memory-2step-stake-s,516,1332731,0.0-19.0-0.0-0.28,A3DDTGMRDXR9NR,32CXT5U15JJVAEXBU2XNZL8A76W8U1,3NJM2BJS40MNGVDMKUJ0GLDHJSMPCM,5,6
29,2,object_05,object_04,815.39999997616,3,2,533.0,0.7777777777777778,1,object_01,1,522,0,7,9,forest_1,1,memory-2step-stake-s,517,1341262,0.0-19.0-0.0-0.29,A3DDTGMRDXR9NR,32CXT5U15JJVAEXBU2XNZL8A76W8U1,3NJM2BJS40MNGVDMKUJ0GLDHJSMPCM,4,3
30,3,object_08,object_02,749.5,5,1,404.79999995232,0.7777777777777778,1,object_01,5,557,0,7,7,library_3,1,memory-2step-stake-s,518,1349701,0.0-19.0-0.0-0.30,A3DDTGMRDXR9NR,32CXT5U15JJVAEXBU2XNZL8A76W8U1,3NJM2BJS40MNGVDMKUJ0GLDHJSMPCM,5,6
31,2,object_05,object_04,674.80000001192,3,2,520.19999998808,0.7777777777777778,1,object_01,1,564,0,7,7,forest_1,1,memory-2step-stake-s,519,1358222,0.0-19.0-0.0-0.31,A3DDTGMRDXR9NR,32CXT5U15JJVAEXBU2XNZL8A76W8U1,3NJM2BJS40MNGVDMKUJ0GLDHJSMPCM,4,3
32,4,object_07,object_03,632.89999997616,7,1,402.5,0.4444444444444444,1,object_01,5,584,0,4,7,restaurant_7,1,memory-2step-stake-s,520,1366327,0.0-19.0-0.0-0.32,A3DDTGMRDXR9NR,32CXT5U15JJVAEXBU2XNZL8A76W8U1,3NJM2BJS40MNGVDMKUJ0GLDHJSMPCM,7,8
33,3,object_08,object_02,741.59999996424,5,1,494.19999998808,0.6666666666666666,1,object_01,5,614,0,6,3,library_3,1,memory-2step-stake-s,521,1374715,0.0-19.0-0.0-0.33,A3DDTGMRDXR9NR,32CXT5U15JJVAEXBU2XNZL8A76W8U1,3NJM2BJS40MNGVDMKUJ0GLDHJSMPCM,5,6
34,3,object_02,object_08,690.5,5,2,378.80000001192,0.7777777777777778,1,object_01,5,649,0,7,3,library_3,1,memory-2step-stake-s,522,1383116,0.0-19.0-0.0-0.34,A3DDTGMRDXR9NR,32CXT5U15JJVAEXBU2XNZL8A76W8U1,3NJM2BJS40MNGVDMKUJ0GLDHJSMPCM,6,5
35,2,object_05,object_04,718.39999997616,3,2,495.10000002384,0.6666666666666666,1,object_01,1,655,0,6,6,forest_4,1,memory-2step-stake-s,523,1391542,0.0-19.0-0.0-0.35,A3DDTGMRDXR9NR,32CXT5U15JJVAEXBU2XNZL8A76W8U1,3NJM2BJS40MNGVDMKUJ0GLDHJSMPCM,4,3
36,2,object_05,object_04,702.70000004768,3,2,451.80000001192,0.4444444444444444,1,object_01,1,659,0,4,7,forest_8,1,memory-2step-stake-s,524,1399687,0.0-19.0-0.0-0.36,A3DDTGMRDXR9NR,32CXT5U15JJVAEXBU2XNZL8A76W8U1,3NJM2BJS40MNGVDMKUJ0GLDHJSMPCM,4,3
37,1,object_10,object_06,1119.9000000358,2,1,418.89999997616,0.2222222222222222,2,object_09,1,661,0,3,2,desert_3,1,memory-2step-stake-s,525,1407588,0.0-19.0-0.0-0.37,A3DDTGMRDXR9NR,32CXT5U15JJVAEXBU2XNZL8A76W8U1,3NJM2BJS40MNGVDMKUJ0GLDHJSMPCM,2,1
38,1,object_06,object_10,982.5,1,1,438.0,0.6666666666666666,1,object_01,5,691,0,6,5,desert_8,1,memory-2step-stake-s,526,1415935,0.0-19.0-0.0-0.38,A3DDTGMRDXR9NR,32CXT5U15JJVAEXBU2XNZL8A76W8U1,3NJM2BJS40MNGVDMKUJ0GLDHJSMPCM,1,2
39,3,object_02,object_08,765.90000003576,5,2,399.40000003576,0.4444444444444444,1,object_01,5,711,0,4,6,library_7,1,memory-2step-stake-s,527,1423993,0.0-19.0-0.0-0.39,A3DDTGMRDXR9NR,32CXT5U15JJVAEXBU2XNZL8A76W8U1,3NJM2BJS40MNGVDMKUJ0GLDHJSMPCM,6,5
40,4,object_07,object_03,641.70000004768,7,1,483.10000002384,0.1111111111111111,1,object_01,5,716,0,1,9,restaurant_7,1,memory-2step-stake-s,528,1431850,0.0-19.0-0.0-0.40,A3DDTGMRDXR9NR,32CXT5U15JJVAEXBU2XNZL8A76W8U1,3NJM2BJS40MNGVDMKUJ0GLDHJSMPCM,7,8
41,1,object_06,object_10,866.30000001192,2,2,401.5,0.4444444444444444,2,object_09,1,720,0,3,4,desert_8,1,memory-2step-stake-s,529,1439919,0.0-19.0-0.0-0.41,A3DDTGMRDXR9NR,32CXT5U15JJVAEXBU2XNZL8A76W8U1,3NJM2BJS40MNGVDMKUJ0GLDHJSMPCM,1,2
42,2,object_05,object_04,621.19999998808,4,1,469.19999998808,0.5555555555555556,2,object_09,1,725,0,4,5,forest_2,1,memory-2step-stake-s,530,1448185,0.0-19.0-0.0-0.42,A3DDTGMRDXR9NR,32CXT5U15JJVAEXBU2XNZL8A76W8U1,3NJM2BJS40MNGVDMKUJ0GLDHJSMPCM,4,3
43,1,object_06,object_10,977.80000001192,2,2,404.5,0.5555555555555556,2,object_09,1,730,0,7,5,desert_3,1,memory-2step-stake-s,531,1456406,0.0-19.0-0.0-0.43,A3DDTGMRDXR9NR,32CXT5U15JJVAEXBU2XNZL8A76W8U1,3NJM2BJS40MNGVDMKUJ0GLDHJSMPCM,1,2
44,1,object_06,object_10,945.5,2,2,410.59999996424,0.6666666666666666,2,object_09,1,736,0,8,6,desert_7,1,memory-2step-stake-s,532,1464724,0.0-19.0-0.0-0.44,A3DDTGMRDXR9NR,32CXT5U15JJVAEXBU2XNZL8A76W8U1,3NJM2BJS40MNGVDMKUJ0GLDHJSMPCM,1,2
45,3,object_08,object_02,586.89999997616,6,2,311.0,0.8888888888888888,2,object_09,5,776,0,5,8,library_3,1,memory-2step-stake-s,533,1473224,0.0-19.0-0.0-0.45,A3DDTGMRDXR9NR,32CXT5U15JJVAEXBU2XNZL8A76W8U1,3NJM2BJS40MNGVDMKUJ0GLDHJSMPCM,5,6
46,4,object_03,object_07,476.80000001192,8,1,414.39999997616,0.4444444444444444,2,object_09,5,796,0,7,4,restaurant_2,1,memory-2step-stake-s,534,1481355,0.0-19.0-0.0-0.46,A3DDTGMRDXR9NR,32CXT5U15JJVAEXBU2XNZL8A76W8U1,3NJM2BJS40MNGVDMKUJ0GLDHJSMPCM,8,7
47,4,object_03,object_07,660.20000004768,8,1,398.30000001192,1.0,2,object_09,5,841,0,3,9,restaurant_7,1,memory-2step-stake-s,535,1489990,0.0-19.0-0.0-0.47,A3DDTGMRDXR9NR,32CXT5U15JJVAEXBU2XNZL8A76W8U1,3NJM2BJS40MNGVDMKUJ0GLDHJSMPCM,8,7
48,4,object_07,object_03,610.19999998808,8,2,358.80000001192,1.0,2,object_09,1,850,0,2,9,restaurant_6,1,memory-2step-stake-s,536,1498635,0.0-19.0-0.0-0.48,A3DDTGMRDXR9NR,32CXT5U15JJVAEXBU2XNZL8A76W8U1,3NJM2BJS40MNGVDMKUJ0GLDHJSMPCM,7,8
49,4,object_03,object_07,500.10000002384,8,1,462.80000001192,0.6666666666666666,2,object_09,5,880,0,5,6,restaurant_2,1,memory-2step-stake-s,537,1507016,0.0-19.0-0.0-0.49,A3DDTGMRDXR9NR,32CXT5U15JJVAEXBU2XNZL8A76W8U1,3NJM2BJS40MNGVDMKUJ0GLDHJSMPCM,8,7
50,3,object_08,object_02,579.10000002384,5,1,445.39999997616,0.4444444444444444,1,object_01,5,900,0,4,7,library_7,1,memory-2step-stake-s,538,1515150,0.0-19.0-0.0-0.50,A3DDTGMRDXR9NR,32CXT5U15JJVAEXBU2XNZL8A76W8U1,3NJM2BJS40MNGVDMKUJ0GLDHJSMPCM,5,6
51,1,object_10,object_06,1097.9000000358,2,1,444.90000003576,0.6666666666666666,2,object_09,1,906,0,6,6,desert_3,1,memory-2step-stake-s,539,1523512,0.0-19.0-0.0-0.51,A3DDTGMRDXR9NR,32CXT5U15JJVAEXBU2XNZL8A76W8U1,3NJM2BJS40MNGVDMKUJ0GLDHJSMPCM,2,1
52,2,object_05,object_04,1010.5999999642,4,1,456.69999998808,1.0,2,object_09,1,915,0,3,9,forest_8,1,memory-2step-stake-s,540,1532233,0.0-19.0-0.0-0.52,A3DDTGMRDXR9NR,32CXT5U15JJVAEXBU2XNZL8A76W8U1,3NJM2BJS40MNGVDMKUJ0GLDHJSMPCM,4,3
53,1,object_10,object_06,931.5,2,1,592.0,1.0,2,object_09,1,924,0,1,9,desert_3,1,memory-2step-stake-s,541,1541078,0.0-19.0-0.0-0.53,A3DDTGMRDXR9NR,32CXT5U15JJVAEXBU2XNZL8A76W8U1,3NJM2BJS40MNGVDMKUJ0GLDHJSMPCM,2,1
54,1,object_06,object_10,888.5,2,2,548.10000002384,0.8888888888888888,2,object_09,1,932,0,3,8,desert_7,1,memory-2step-stake-s,542,1549804,0.0-19.0-0.0-0.54,A3DDTGMRDXR9NR,32CXT5U15JJVAEXBU2XNZL8A76W8U1,3NJM2BJS40MNGVDMKUJ0GLDHJSMPCM,1,2
55,1,object_06,object_10,714.89999997616,2,2,467.39999997616,0.5555555555555556,2,object_09,1,937,0,4,5,desert_8,1,memory-2step-stake-s,543,1558129,0.0-19.0-0.0-0.55,A3DDTGMRDXR9NR,32CXT5U15JJVAEXBU2XNZL8A76W8U1,3NJM2BJS40MNGVDMKUJ0GLDHJSMPCM,1,2
56,1,object_06,object_10,565.39999997616,2,2,430.5,0.5555555555555556,2,object_09,1,942,0,8,5,desert_1,1,memory-2step-stake-s,544,1566360,0.0-19.0-0.0-0.56,A3DDTGMRDXR9NR,32CXT5U15JJVAEXBU2XNZL8A76W8U1,3NJM2BJS40MNGVDMKUJ0GLDHJSMPCM,1,2
57,4,object_03,object_07,467.30000001192,8,1,371.59999996424,0.3333333333333333,2,object_09,5,957,0,4,3,restaurant_3,1,memory-2step-stake-s,545,1574315,0.0-19.0-0.0-0.57,A3DDTGMRDXR9NR,32CXT5U15JJVAEXBU2XNZL8A76W8U1,3NJM2BJS40MNGVDMKUJ0GLDHJSMPCM,8,7
58,1,object_06,object_10,790.80000001192,1,1,340.79999995232,0.3333333333333333,1,object_01,1,960,0,3,2,desert_8,1,memory-2step-stake-s,546,1582274,0.0-19.0-0.0-0.58,A3DDTGMRDXR9NR,32CXT5U15JJVAEXBU2XNZL8A76W8U1,3NJM2BJS40MNGVDMKUJ0GLDHJSMPCM,1,2
59,4,object_07,object_03,577.5,8,2,341.80000001192,0.0,2,object_09,5,960,0,4,0,restaurant_7,1,memory-2step-stake-s,547,1589890,0.0-19.0-0.0-0.59,A3DDTGMRDXR9NR,32CXT5U15JJVAEXBU2XNZL8A76W8U1,3NJM2BJS40MNGVDMKUJ0GLDHJSMPCM,7,8
60,3,object_02,object_08,921.10000002384,6,1,387.79999995232,0.4444444444444444,2,object_09,1,964,0,8,4,library_2,1,memory-2step-stake-s,548,1598003,0.0-19.0-0.0-0.60,A3DDTGMRDXR9NR,32CXT5U15JJVAEXBU2XNZL8A76W8U1,3NJM2BJS40MNGVDMKUJ0GLDHJSMPCM,6,5
61,1,object_06,object_10,962.30000001192,1,1,367.0,0.5555555555555556,1,object_01,5,989,0,5,3,desert_7,1,memory-2step-stake-s,549,1606210,0.0-19.0-0.0-0.61,A3DDTGMRDXR9NR,32CXT5U15JJVAEXBU2XNZL8A76W8U1,3NJM2BJS40MNGVDMKUJ0GLDHJSMPCM,1,2
62,3,object_08,object_02,680.0,5,1,357.60000002384,0.4444444444444444,1,object_01,1,993,0,4,5,library_2,1,memory-2step-stake-s,550,1614295,0.0-19.0-0.0-0.62,A3DDTGMRDXR9NR,32CXT5U15JJVAEXBU2XNZL8A76W8U1,3NJM2BJS40MNGVDMKUJ0GLDHJSMPCM,5,6
63,4,object_07,object_03,695.80000001192,7,1,381.89999997616,0.3333333333333333,1,object_01,5,1008,0,3,8,restaurant_7,1,memory-2step-stake-s,551,1622292,0.0-19.0-0.0-0.63,A3DDTGMRDXR9NR,32CXT5U15JJVAEXBU2XNZL8A76W8U1,3NJM2BJS40MNGVDMKUJ0GLDHJSMPCM,7,8
64,4,object_03,object_07,713.69999998808,8,1,367.90000003576,0.7777777777777778,2,object_09,1,1015,0,6,7,restaurant_3,1,memory-2step-stake-s,552,1630714,0.0-19.0-0.0-0.64,A3DDTGMRDXR9NR,32CXT5U15JJVAEXBU2XNZL8A76W8U1,3NJM2BJS40MNGVDMKUJ0GLDHJSMPCM,8,7
65,3,object_02,object_08,1023.4000000358,6,1,365.80000001192,1.0,2,object_09,1,1024,0,8,9,library_5,1,memory-2step-stake-s,553,1639316,0.0-19.0-0.0-0.65,A3DDTGMRDXR9NR,32CXT5U15JJVAEXBU2XNZL8A76W8U1,3NJM2BJS40MNGVDMKUJ0GLDHJSMPCM,6,5
66,3,object_08,object_02,1354.5999999642,6,2,512.0,0.8888888888888888,2,object_09,5,1064,0,6,8,library_5,1,memory-2step-stake-s,554,1647990,0.0-19.0-0.0-0.66,A3DDTGMRDXR9NR,32CXT5U15JJVAEXBU2XNZL8A76W8U1,3NJM2BJS40MNGVDMKUJ0GLDHJSMPCM,5,6
67,1,object_06,object_10,848.0,2,2,428.89999997616,0.5555555555555556,2,object_09,1,1069,0,3,5,desert_3,1,memory-2step-stake-s,555,1656261,0.0-19.0-0.0-0.67,A3DDTGMRDXR9NR,32CXT5U15JJVAEXBU2XNZL8A76W8U1,3NJM2BJS40MNGVDMKUJ0GLDHJSMPCM,1,2
68,3,object_02,object_08,983.09999996424,6,1,359.5,0.3333333333333333,2,object_09,5,1084,0,6,3,library_5,1,memory-2step-stake-s,556,1664212,0.0-19.0-0.0-0.68,A3DDTGMRDXR9NR,32CXT5U15JJVAEXBU2XNZL8A76W8U1,3NJM2BJS40MNGVDMKUJ0GLDHJSMPCM,6,5
69,4,object_07,object_03,1385.6000000238,7,1,433.80000001192,0.7777777777777778,1,object_01,1,1091,0,7,4,restaurant_3,1,memory-2step-stake-s,557,1672711,0.0-19.0-0.0-0.69,A3DDTGMRDXR9NR,32CXT5U15JJVAEXBU2XNZL8A76W8U1,3NJM2BJS40MNGVDMKUJ0GLDHJSMPCM,7,8
70,2,object_05,object_04,1376.3999999762,4,1,372.60000002384,0.7777777777777778,2,object_09,1,1098,0,8,7,forest_2,1,memory-2step-stake-s,558,1681109,0.0-19.0-0.0-0.70,A3DDTGMRDXR9NR,32CXT5U15JJVAEXBU2XNZL8A76W8U1,3NJM2BJS40MNGVDMKUJ0GLDHJSMPCM,4,3
71,4,object_07,object_03,687.10000002384,8,2,385.69999998808,0.5555555555555556,2,object_09,5,1123,0,8,5,restaurant_6,1,memory-2step-stake-s,559,1689303,0.0-19.0-0.0-0.71,A3DDTGMRDXR9NR,32CXT5U15JJVAEXBU2XNZL8A76W8U1,3NJM2BJS40MNGVDMKUJ0GLDHJSMPCM,7,8
72,2,object_05,object_04,843.0,4,1,308.09999996424,0.3333333333333333,2,object_09,1,1126,0,6,3,forest_1,1,memory-2step-stake-s,560,1697230,0.0-19.0-0.0-0.72,A3DDTGMRDXR9NR,32CXT5U15JJVAEXBU2XNZL8A76W8U1,3NJM2BJS40MNGVDMKUJ0GLDHJSMPCM,4,3
73,4,object_03,object_07,576.39999997616,7,2,367.80000001192,0.8888888888888888,1,object_01,5,1166,0,8,6,restaurant_2,1,memory-2step-stake-s,561,1705807,0.0-19.0-0.0-0.73,A3DDTGMRDXR9NR,32CXT5U15JJVAEXBU2XNZL8A76W8U1,3NJM2BJS40MNGVDMKUJ0GLDHJSMPCM,8,7
74,4,object_07,object_03,633.80000001192,7,1,683.09999996424,0.4444444444444444,1,object_01,1,1170,0,4,4,restaurant_6,1,memory-2step-stake-s,562,1714208,0.0-19.0-0.0-0.74,A3DDTGMRDXR9NR,32CXT5U15JJVAEXBU2XNZL8A76W8U1,3NJM2BJS40MNGVDMKUJ0GLDHJSMPCM,7,8
75,4,object_03,object_07,570.5,7,2,323.69999998808,0.3333333333333333,1,object_01,5,1185,0,3,2,restaurant_3,1,memory-2step-stake-s,563,1722107,0.0-19.0-0.0-0.75,A3DDTGMRDXR9NR,32CXT5U15JJVAEXBU2XNZL8A76W8U1,3NJM2BJS40MNGVDMKUJ0GLDHJSMPCM,8,7
76,3,object_02,object_08,803.10000002384,6,1,352.19999998808,0.2222222222222222,2,object_09,1,1187,0,2,2,library_5,1,memory-2step-stake-s,564,1729958,0.0-19.0-0.0-0.76,A3DDTGMRDXR9NR,32CXT5U15JJVAEXBU2XNZL8A76W8U1,3NJM2BJS40MNGVDMKUJ0GLDHJSMPCM,6,5
77,3,object_08,object_02,804.40000003576,6,2,385.5,0.1111111111111111,2,object_09,5,1192,0,5,1,library_7,1,memory-2step-stake-s,565,1737742,0.0-19.0-0.0-0.77,A3DDTGMRDXR9NR,32CXT5U15JJVAEXBU2XNZL8A76W8U1,3NJM2BJS40MNGVDMKUJ0GLDHJSMPCM,5,6
78,4,object_07,object_03,622.59999996424,7,1,383.89999997616,0.6666666666666666,1,object_01,5,1222,0,6,2,restaurant_7,1,memory-2step-stake-s,566,1746038,0.0-19.0-0.0-0.78,A3DDTGMRDXR9NR,32CXT5U15JJVAEXBU2XNZL8A76W8U1,3NJM2BJS40MNGVDMKUJ0GLDHJSMPCM,7,8
79,4,object_03,object_07,617.10000002384,7,2,504.60000002384,0.8888888888888888,1,object_01,5,1262,0,8,3,restaurant_6,1,memory-2step-stake-s,567,1754667,0.0-19.0-0.0-0.79,A3DDTGMRDXR9NR,32CXT5U15JJVAEXBU2XNZL8A76W8U1,3NJM2BJS40MNGVDMKUJ0GLDHJSMPCM,8,7
80,1,object_06,object_10,1012.6999999881,1,1,458.60000002384,0.5555555555555556,1,object_01,1,1267,0,5,7,desert_1,1,memory-2step-stake-s,568,1762918,0.0-19.0-0.0-0.80,A3DDTGMRDXR9NR,32CXT5U15JJVAEXBU2XNZL8A76W8U1,3NJM2BJS40MNGVDMKUJ0GLDHJSMPCM,1,2
81,3,object_02,object_08,1055.5,5,2,332.10000002384,0.6666666666666666,1,object_01,5,1297,0,6,7,library_2,1,memory-2step-stake-s,569,1771171,0.0-19.0-0.0-0.81,A3DDTGMRDXR9NR,32CXT5U15JJVAEXBU2XNZL8A76W8U1,3NJM2BJS40MNGVDMKUJ0GLDHJSMPCM,6,5
82,1,object_06,object_10,705.5,1,1,350.5,0.3333333333333333,1,object_01,1,1300,0,3,6,desert_7,1,memory-2step-stake-s,570,1779108,0.0-19.0-0.0-0.82,A3DDTGMRDXR9NR,32CXT5U15JJVAEXBU2XNZL8A76W8U1,3NJM2BJS40MNGVDMKUJ0GLDHJSMPCM,1,2
83,1,object_10,object_06,789.80000001192,1,2,354.70000004768,0.3333333333333333,1,object_01,1,1303,0,3,7,desert_8,1,memory-2step-stake-s,571,1787047,0.0-19.0-0.0-0.83,A3DDTGMRDXR9NR,32CXT5U15JJVAEXBU2XNZL8A76W8U1,3NJM2BJS40MNGVDMKUJ0GLDHJSMPCM,2,1
84,3,object_02,object_08,848.59999996424,6,1,320.0,1.0,2,object_09,5,1348,0,4,9,library_7,1,memory-2step-stake-s,572,1795599,0.0-19.0-0.0-0.84,A3DDTGMRDXR9NR,32CXT5U15JJVAEXBU2XNZL8A76W8U1,3NJM2BJS40MNGVDMKUJ0GLDHJSMPCM,6,5
85,4,object_03,object_07,767.09999996424,8,1,282.5,0.5555555555555556,2,object_09,1,1353,0,3,5,restaurant_2,1,memory-2step-stake-s,573,1803712,0.0-19.0-0.0-0.85,A3DDTGMRDXR9NR,32CXT5U15JJVAEXBU2XNZL8A76W8U1,3NJM2BJS40MNGVDMKUJ0GLDHJSMPCM,8,7
86,1,object_10,object_06,724.90000003576,2,1,527.60000002384,0.4444444444444444,2,object_09,1,1357,0,3,4,desert_1,1,memory-2step-stake-s,574,1811961,0.0-19.0-0.0-0.86,A3DDTGMRDXR9NR,32CXT5U15JJVAEXBU2XNZL8A76W8U1,3NJM2BJS40MNGVDMKUJ0GLDHJSMPCM,2,1
87,3,object_08,object_02,758.0,6,2,293.19999998808,0.3333333333333333,2,object_09,5,1372,0,0,3,library_7,1,memory-2step-stake-s,575,1819866,0.0-19.0-0.0-0.87,A3DDTGMRDXR9NR,32CXT5U15JJVAEXBU2XNZL8A76W8U1,3NJM2BJS40MNGVDMKUJ0GLDHJSMPCM,5,6
88,4,object_07,object_03,631.30000001192,7,1,373.0,0.2222222222222222,1,object_01,5,1382,0,2,4,restaurant_6,1,memory-2step-stake-s,576,1827726,0.0-19.0-0.0-0.88,A3DDTGMRDXR9NR,32CXT5U15JJVAEXBU2XNZL8A76W8U1,3NJM2BJS40MNGVDMKUJ0GLDHJSMPCM,7,8
89,2,object_04,object_05,629.19999998808,4,2,453.89999997616,0.2222222222222222,2,object_09,1,1384,0,5,2,forest_4,1,memory-2step-stake-s,577,1835679,0.0-19.0-0.0-0.89,A3DDTGMRDXR9NR,32CXT5U15JJVAEXBU2XNZL8A76W8U1,3NJM2BJS40MNGVDMKUJ0GLDHJSMPCM,3,4
90,3,object_08,object_02,851.80000001192,5,1,326.29999995232,0.6666666666666666,1,object_01,5,1414,0,6,4,library_3,1,memory-2step-stake-s,578,1843895,0.0-19.0-0.0-0.90,A3DDTGMRDXR9NR,32CXT5U15JJVAEXBU2XNZL8A76W8U1,3NJM2BJS40MNGVDMKUJ0GLDHJSMPCM,5,6
91,3,object_08,object_02,876.10000002384,5,1,374.5,0.7777777777777778,1,object_01,5,1449,0,7,4,library_5,1,memory-2step-stake-s,579,1852251,0.0-19.0-0.0-0.91,A3DDTGMRDXR9NR,32CXT5U15JJVAEXBU2XNZL8A76W8U1,3NJM2BJS40MNGVDMKUJ0GLDHJSMPCM,5,6
92,3,object_02,object_08,780.60000002384,5,2,350.89999997616,0.8888888888888888,1,object_01,5,1489,0,8,6,library_5,1,memory-2step-stake-s,580,1860770,0.0-19.0-0.0-0.92,A3DDTGMRDXR9NR,32CXT5U15JJVAEXBU2XNZL8A76W8U1,3NJM2BJS40MNGVDMKUJ0GLDHJSMPCM,6,5
93,2,object_04,object_05,1091.3000000119,3,1,368.5,0.8888888888888888,1,object_01,1,1497,0,8,3,forest_8,1,memory-2step-stake-s,581,1869255,0.0-19.0-0.0-0.93,A3DDTGMRDXR9NR,32CXT5U15JJVAEXBU2XNZL8A76W8U1,3NJM2BJS40MNGVDMKUJ0GLDHJSMPCM,3,4
94,2,object_04,object_05,968.19999998808,3,1,330.69999998808,1.0,1,object_01,1,1506,0,9,3,forest_4,1,memory-2step-stake-s,582,1877828,0.0-19.0-0.0-0.94,A3DDTGMRDXR9NR,32CXT5U15JJVAEXBU2XNZL8A76W8U1,3NJM2BJS40MNGVDMKUJ0GLDHJSMPCM,3,4
95,3,object_02,object_08,986.0,6,1,371.70000004768,0.0,2,object_09,1,1506,0,5,0,library_2,1,memory-2step-stake-s,583,1885457,0.0-19.0-0.0-0.95,A3DDTGMRDXR9NR,32CXT5U15JJVAEXBU2XNZL8A76W8U1,3NJM2BJS40MNGVDMKUJ0GLDHJSMPCM,6,5
96,4,object_03,object_07,611.70000004768,7,2,336.29999995232,0.6666666666666666,1,object_01,5,1536,0,6,1,restaurant_2,1,memory-2step-stake-s,584,1893727,0.0-19.0-0.0-0.96,A3DDTGMRDXR9NR,32CXT5U15JJVAEXBU2XNZL8A76W8U1,3NJM2BJS40MNGVDMKUJ0GLDHJSMPCM,8,7
97,3,object_08,object_02,659.80000001192,5,1,441.90000003576,0.4444444444444444,1,object_01,5,1556,0,4,2,library_5,1,memory-2step-stake-s,585,1901831,0.0-19.0-0.0-0.97,A3DDTGMRDXR9NR,32CXT5U15JJVAEXBU2XNZL8A76W8U1,3NJM2BJS40MNGVDMKUJ0GLDHJSMPCM,5,6
98,3,object_08,object_02,675.40000003576,5,1,360.89999997616,0.7777777777777778,1,object_01,5,1591,0,7,0,library_5,1,memory-2step-stake-s,586,1910159,0.0-19.0-0.0-0.98,A3DDTGMRDXR9NR,32CXT5U15JJVAEXBU2XNZL8A76W8U1,3NJM2BJS40MNGVDMKUJ0GLDHJSMPCM,5,6
99,1,object_06,object_10,1124.7000000477,1,1,338.89999997616,1.0,1,object_01,1,1600,0,9,1,desert_7,1,memory-2step-stake-s,587,1918688,0.0-19.0-0.0-0.99,A3DDTGMRDXR9NR,32CXT5U15JJVAEXBU2XNZL8A76W8U1,3NJM2BJS40MNGVDMKUJ0GLDHJSMPCM,1,2
100,1,object_06,object_10,775.10000002384,1,1,346.0,0.8888888888888888,1,object_01,1,1608,0,8,2,desert_1,1,memory-2step-stake-s,588,1927146,0.0-19.0-0.0-0.100,A3DDTGMRDXR9NR,32CXT5U15JJVAEXBU2XNZL8A76W8U1,3NJM2BJS40MNGVDMKUJ0GLDHJSMPCM,1,2
101,2,object_04,object_05,1008.3999999762,4,2,359.89999997616,0.5555555555555556,2,object_09,5,1633,0,8,5,forest_2,1,memory-2step-stake-s,589,1935329,0.0-19.0-0.0-0.101,A3DDTGMRDXR9NR,32CXT5U15JJVAEXBU2XNZL8A76W8U1,3NJM2BJS40MNGVDMKUJ0GLDHJSMPCM,3,4
102,3,object_08,object_02,772.0,5,1,317.0,0.4444444444444444,1,object_01,5,1653,0,4,5,library_7,1,memory-2step-stake-s,590,1943351,0.0-19.0-0.0-0.102,A3DDTGMRDXR9NR,32CXT5U15JJVAEXBU2XNZL8A76W8U1,3NJM2BJS40MNGVDMKUJ0GLDHJSMPCM,5,6
103,2,object_05,object_04,749.10000002384,3,2,384.69999998808,0.4444444444444444,1,object_01,1,1657,0,4,4,forest_4,1,memory-2step-stake-s,591,1951407,0.0-19.0-0.0-0.103,A3DDTGMRDXR9NR,32CXT5U15JJVAEXBU2XNZL8A76W8U1,3NJM2BJS40MNGVDMKUJ0GLDHJSMPCM,4,3
104,4,object_07,object_03,853.30000001192,8,2,294.39999997616,0.5555555555555556,2,object_09,5,1682,0,3,5,restaurant_6,1,memory-2step-stake-s,592,1959532,0.0-19.0-0.0-0.104,A3DDTGMRDXR9NR,32CXT5U15JJVAEXBU2XNZL8A76W8U1,3NJM2BJS40MNGVDMKUJ0GLDHJSMPCM,7,8
105,1,object_06,object_10,641.10000002384,2,2,347.69999998808,0.6666666666666666,2,object_09,1,1688,0,5,6,desert_3,1,memory-2step-stake-s,593,1967774,0.0-19.0-0.0-0.105,A3DDTGMRDXR9NR,32CXT5U15JJVAEXBU2XNZL8A76W8U1,3NJM2BJS40MNGVDMKUJ0GLDHJSMPCM,1,2
106,4,object_07,object_03,503.0,8,2,412.5,0.5555555555555556,2,object_09,5,1713,0,0,5,restaurant_6,1,memory-2step-stake-s,594,1976005,0.0-19.0-0.0-0.106,A3DDTGMRDXR9NR,32CXT5U15JJVAEXBU2XNZL8A76W8U1,3NJM2BJS40MNGVDMKUJ0GLDHJSMPCM,7,8
107,1,object_06,object_10,546.0,2,2,520.40000003576,0.2222222222222222,2,object_09,1,1715,0,1,2,desert_8,1,memory-2step-stake-s,595,1984031,0.0-19.0-0.0-0.107,A3DDTGMRDXR9NR,32CXT5U15JJVAEXBU2XNZL8A76W8U1,3NJM2BJS40MNGVDMKUJ0GLDHJSMPCM,1,2
108,4,object_03,object_07,626.40000003576,7,2,317.19999998808,0.3333333333333333,1,object_01,5,1730,0,3,3,restaurant_3,1,memory-2step-stake-s,596,1991943,0.0-19.0-0.0-0.108,A3DDTGMRDXR9NR,32CXT5U15JJVAEXBU2XNZL8A76W8U1,3NJM2BJS40MNGVDMKUJ0GLDHJSMPCM,8,7
109,3,object_02,object_08,835.70000004768,6,1,463.59999996424,0.3333333333333333,2,object_09,5,1745,0,2,3,library_3,1,memory-2step-stake-s,597,2000036,0.0-19.0-0.0-0.109,A3DDTGMRDXR9NR,32CXT5U15JJVAEXBU2XNZL8A76W8U1,3NJM2BJS40MNGVDMKUJ0GLDHJSMPCM,6,5
110,2,object_05,object_04,766.29999995232,4,1,377.60000002384,0.2222222222222222,2,object_09,1,1747,0,2,2,forest_8,1,memory-2step-stake-s,598,2007918,0.0-19.0-0.0-0.110,A3DDTGMRDXR9NR,32CXT5U15JJVAEXBU2XNZL8A76W8U1,3NJM2BJS40MNGVDMKUJ0GLDHJSMPCM,4,3
111,3,object_08,object_02,876.09999996424,5,1,333.90000003576,0.0,1,object_01,1,1747,0,0,4,library_3,1,memory-2step-stake-s,599,2015534,0.0-19.0-0.0-0.111,A3DDTGMRDXR9NR,32CXT5U15JJVAEXBU2XNZL8A76W8U1,3NJM2BJS40MNGVDMKUJ0GLDHJSMPCM,5,6
112,3,object_08,object_02,831.5,6,2,308.0,0.6666666666666666,2,object_09,5,1777,0,0,6,library_3,1,memory-2step-stake-s,600,2023751,0.0-19.0-0.0-0.112,A3DDTGMRDXR9NR,32CXT5U15JJVAEXBU2XNZL8A76W8U1,3NJM2BJS40MNGVDMKUJ0GLDHJSMPCM,5,6
113,3,object_08,object_02,959.5,6,2,459.0,0.8888888888888888,2,object_09,5,1817,0,4,8,library_2,1,memory-2step-stake-s,601,2032312,0.0-19.0-0.0-0.113,A3DDTGMRDXR9NR,32CXT5U15JJVAEXBU2XNZL8A76W8U1,3NJM2BJS40MNGVDMKUJ0GLDHJSMPCM,5,6
114,4,object_07,object_03,867.60000002384,8,2,541.59999996424,1.0,2,object_09,1,1826,0,4,9,restaurant_3,1,memory-2step-stake-s,602,2041033,0.0-19.0-0.0-0.114,A3DDTGMRDXR9NR,32CXT5U15JJVAEXBU2XNZL8A76W8U1,3NJM2BJS40MNGVDMKUJ0GLDHJSMPCM,7,8
115,1,object_10,object_06,893.80000001192,2,1,405.29999995232,1.0,2,object_09,1,1835,0,2,9,desert_3,1,memory-2step-stake-s,603,2049643,0.0-19.0-0.0-0.115,A3DDTGMRDXR9NR,32CXT5U15JJVAEXBU2XNZL8A76W8U1,3NJM2BJS40MNGVDMKUJ0GLDHJSMPCM,2,1
116,3,object_08,object_02,775.19999998808,6,2,341.60000002384,0.8888888888888888,2,object_09,1,1843,0,3,8,library_7,1,memory-2step-stake-s,604,2058097,0.0-19.0-0.0-0.116,A3DDTGMRDXR9NR,32CXT5U15JJVAEXBU2XNZL8A76W8U1,3NJM2BJS40MNGVDMKUJ0GLDHJSMPCM,5,6
117,2,object_04,object_05,903.69999998808,4,2,351.89999997616,0.7777777777777778,2,object_09,1,1850,0,0,7,forest_4,1,memory-2step-stake-s,605,2066444,0.0-19.0-0.0-0.117,A3DDTGMRDXR9NR,32CXT5U15JJVAEXBU2XNZL8A76W8U1,3NJM2BJS40MNGVDMKUJ0GLDHJSMPCM,3,4
118,3,object_08,object_02,561.39999997616,6,2,452.39999997616,0.8888888888888888,2,object_09,1,1858,0,1,8,library_3,1,memory-2step-stake-s,606,2074993,0.0-19.0-0.0-0.118,A3DDTGMRDXR9NR,32CXT5U15JJVAEXBU2XNZL8A76W8U1,3NJM2BJS40MNGVDMKUJ0GLDHJSMPCM,5,6
119,1,object_10,object_06,724.0,2,1,323.39999997616,0.7777777777777778,2,object_09,5,1893,0,3,7,desert_1,1,memory-2step-stake-s,607,2083320,0.0-19.0-0.0-0.119,A3DDTGMRDXR9NR,32CXT5U15JJVAEXBU2XNZL8A76W8U1,3NJM2BJS40MNGVDMKUJ0GLDHJSMPCM,2,1
120,1,object_10,object_06,581.5,2,1,335.0,0.5555555555555556,2,object_09,1,1898,0,0,5,desert_1,1,memory-2step-stake-s,608,2091443,0.0-19.0-0.0-0.120,A3DDTGMRDXR9NR,32CXT5U15JJVAEXBU2XNZL8A76W8U1,3NJM2BJS40MNGVDMKUJ0GLDHJSMPCM,2,1
121,2,object_05,object_04,646.69999998808,4,1,422.39999997616,0.7777777777777778,2,object_09,1,1905,0,1,7,forest_2,1,memory-2step-stake-s,609,2099890,0.0-19.0-0.0-0.121,A3DDTGMRDXR9NR,32CXT5U15JJVAEXBU2XNZL8A76W8U1,3NJM2BJS40MNGVDMKUJ0GLDHJSMPCM,4,3
122,3,object_02,object_08,731.80000001192,6,1,321.59999996424,1.0,2,object_09,5,1950,0,0,9,library_3,1,memory-2step-stake-s,610,2108471,0.0-19.0-0.0-0.122,A3DDTGMRDXR9NR,32CXT5U15JJVAEXBU2XNZL8A76W8U1,3NJM2BJS40MNGVDMKUJ0GLDHJSMPCM,6,5
123,1,object_06,object_10,750.19999998808,2,2,554.0,0.8888888888888888,2,object_09,5,1990,0,0,8,desert_8,1,memory-2step-stake-s,611,2117202,0.0-19.0-0.0-0.123,A3DDTGMRDXR9NR,32CXT5U15JJVAEXBU2XNZL8A76W8U1,3NJM2BJS40MNGVDMKUJ0GLDHJSMPCM,1,2
124,1,object_10,object_06,552.69999998808,2,1,462.0,0.5555555555555556,2,object_09,5,2015,0,2,5,desert_1,1,memory-2step-stake-s,612,2125486,0.0-19.0-0.0-0.124,A3DDTGMRDXR9NR,32CXT5U15JJVAEXBU2XNZL8A76W8U1,3NJM2BJS40MNGVDMKUJ0GLDHJSMPCM,2,1
125,4,object_03,object_07,567.19999998808,8,1,393.30000001192,0.7777777777777778,2,object_09,5,2050,0,4,7,restaurant_7,1,memory-2step-stake-s,613,2133936,0.0-19.0-0.0-0.125,A3DDTGMRDXR9NR,32CXT5U15JJVAEXBU2XNZL8A76W8U1,3NJM2BJS40MNGVDMKUJ0GLDHJSMPCM,8,7
126,2,object_05,object_04,726.79999995232,4,1,492.89999997616,0.8888888888888888,2,object_09,5,2090,0,6,8,forest_8,1,memory-2step-stake-s,614,2142569,0.0-19.0-0.0-0.126,A3DDTGMRDXR9NR,32CXT5U15JJVAEXBU2XNZL8A76W8U1,3NJM2BJS40MNGVDMKUJ0GLDHJSMPCM,4,3
127,4,object_07,object_03,539.89999997616,8,2,388.89999997616,0.4444444444444444,2,object_09,5,2110,0,7,4,restaurant_7,1,memory-2step-stake-s,615,2150685,0.0-19.0-0.0-0.127,A3DDTGMRDXR9NR,32CXT5U15JJVAEXBU2XNZL8A76W8U1,3NJM2BJS40MNGVDMKUJ0GLDHJSMPCM,7,8
128,2,object_05,object_04,778.79999995232,4,1,425.80000001192,0.1111111111111111,2,object_09,1,2111,0,8,1,forest_8,1,memory-2step-stake-s,617,2583155,0.0-19.0-0.1-0.128,A3DDTGMRDXR9NR,32CXT5U15JJVAEXBU2XNZL8A76W8U1,3NJM2BJS40MNGVDMKUJ0GLDHJSMPCM,4,3
129,2,object_05,object_04,881.30000001192,3,2,312.39999997616,0.6666666666666666,1,object_01,5,2141,0,6,2,forest_4,1,memory-2step-stake-s,618,2591411,0.0-19.0-0.1-0.129,A3DDTGMRDXR9NR,32CXT5U15JJVAEXBU2XNZL8A76W8U1,3NJM2BJS40MNGVDMKUJ0GLDHJSMPCM,4,3
130,3,object_02,object_08,1170.6999999881,5,2,449.0,0.5555555555555556,1,object_01,1,2146,0,5,1,library_3,1,memory-2step-stake-s,619,2599707,0.0-19.0-0.1-0.130,A3DDTGMRDXR9NR,32CXT5U15JJVAEXBU2XNZL8A76W8U1,3NJM2BJS40MNGVDMKUJ0GLDHJSMPCM,6,5
131,4,object_07,object_03,799.40000003576,7,1,362.40000003576,0.8888888888888888,1,object_01,1,2154,0,8,3,restaurant_2,1,memory-2step-stake-s,620,2608237,0.0-19.0-0.1-0.131,A3DDTGMRDXR9NR,32CXT5U15JJVAEXBU2XNZL8A76W8U1,3NJM2BJS40MNGVDMKUJ0GLDHJSMPCM,7,8
132,4,object_03,object_07,614.5,7,2,349.80000001192,0.8888888888888888,1,object_01,1,2162,0,8,1,restaurant_6,1,memory-2step-stake-s,621,2616768,0.0-19.0-0.1-0.132,A3DDTGMRDXR9NR,32CXT5U15JJVAEXBU2XNZL8A76W8U1,3NJM2BJS40MNGVDMKUJ0GLDHJSMPCM,8,7
133,3,object_02,object_08,771.19999998808,5,2,329.29999995232,0.7777777777777778,1,object_01,5,2197,0,7,2,library_5,1,memory-2step-stake-s,622,2625150,0.0-19.0-0.1-0.133,A3DDTGMRDXR9NR,32CXT5U15JJVAEXBU2XNZL8A76W8U1,3NJM2BJS40MNGVDMKUJ0GLDHJSMPCM,6,5
134,3,object_08,object_02,576.80000001192,5,1,322.19999998808,0.7777777777777778,1,object_01,5,2232,0,7,1,library_7,1,memory-2step-stake-s,623,2633530,0.0-19.0-0.1-0.134,A3DDTGMRDXR9NR,32CXT5U15JJVAEXBU2XNZL8A76W8U1,3NJM2BJS40MNGVDMKUJ0GLDHJSMPCM,5,6
135,2,object_05,object_04,879.5,3,2,325.09999996424,0.7777777777777778,1,object_01,1,2239,0,7,1,forest_1,1,memory-2step-stake-s,624,2641880,0.0-19.0-0.1-0.135,A3DDTGMRDXR9NR,32CXT5U15JJVAEXBU2XNZL8A76W8U1,3NJM2BJS40MNGVDMKUJ0GLDHJSMPCM,4,3
136,1,object_06,object_10,1021.3000000119,1,1,339.39999997616,1.0,1,object_01,1,2248,0,9,3,desert_3,1,memory-2step-stake-s,625,2650512,0.0-19.0-0.1-0.136,A3DDTGMRDXR9NR,32CXT5U15JJVAEXBU2XNZL8A76W8U1,3NJM2BJS40MNGVDMKUJ0GLDHJSMPCM,1,2
137,2,object_05,object_04,903.39999997616,3,2,458.30000001192,0.7777777777777778,1,object_01,1,2255,0,7,5,forest_1,1,memory-2step-stake-s,626,2659013,0.0-19.0-0.1-0.137,A3DDTGMRDXR9NR,32CXT5U15JJVAEXBU2XNZL8A76W8U1,3NJM2BJS40MNGVDMKUJ0GLDHJSMPCM,4,3
138,2,object_05,object_04,715.0,3,2,314.0,1.0,1,object_01,5,2300,0,9,7,forest_8,1,memory-2step-stake-s,627,2667583,0.0-19.0-0.1-0.138,A3DDTGMRDXR9NR,32CXT5U15JJVAEXBU2XNZL8A76W8U1,3NJM2BJS40MNGVDMKUJ0GLDHJSMPCM,4,3
139,4,object_07,object_03,574.30000001192,7,1,334.40000003576,1.0,1,object_01,5,2345,0,9,4,restaurant_2,1,memory-2step-stake-s,628,2676194,0.0-19.0-0.1-0.139,A3DDTGMRDXR9NR,32CXT5U15JJVAEXBU2XNZL8A76W8U1,3NJM2BJS40MNGVDMKUJ0GLDHJSMPCM,7,8
140,2,object_05,object_04,653.10000002384,3,2,397.10000002384,0.8888888888888888,1,object_01,1,2353,0,8,4,forest_4,1,memory-2step-stake-s,629,2684666,0.0-19.0-0.1-0.140,A3DDTGMRDXR9NR,32CXT5U15JJVAEXBU2XNZL8A76W8U1,3NJM2BJS40MNGVDMKUJ0GLDHJSMPCM,4,3
141,2,object_05,object_04,647.29999995232,3,2,429.89999997616,0.7777777777777778,1,object_01,1,2360,0,7,3,forest_2,1,memory-2step-stake-s,630,2693103,0.0-19.0-0.1-0.141,A3DDTGMRDXR9NR,32CXT5U15JJVAEXBU2XNZL8A76W8U1,3NJM2BJS40MNGVDMKUJ0GLDHJSMPCM,4,3
142,3,object_08,object_02,818.5,5,1,315.40000003576,0.6666666666666666,1,object_01,5,2390,0,6,1,library_7,1,memory-2step-stake-s,631,2701314,0.0-19.0-0.1-0.142,A3DDTGMRDXR9NR,32CXT5U15JJVAEXBU2XNZL8A76W8U1,3NJM2BJS40MNGVDMKUJ0GLDHJSMPCM,5,6
143,3,object_08,object_02,634.09999996424,5,1,414.69999998808,0.5555555555555556,1,object_01,5,2415,0,5,0,library_5,1,memory-2step-stake-s,632,2709503,0.0-19.0-0.1-0.143,A3DDTGMRDXR9NR,32CXT5U15JJVAEXBU2XNZL8A76W8U1,3NJM2BJS40MNGVDMKUJ0GLDHJSMPCM,5,6
144,1,object_06,object_10,1150.6999999881,1,1,328.19999998808,0.3333333333333333,1,object_01,5,2430,0,3,1,desert_8,1,memory-2step-stake-s,633,2717376,0.0-19.0-0.1-0.144,A3DDTGMRDXR9NR,32CXT5U15JJVAEXBU2XNZL8A76W8U1,3NJM2BJS40MNGVDMKUJ0GLDHJSMPCM,1,2
145,2,object_04,object_05,644.5,4,2,322.69999998808,0.1111111111111111,2,object_09,1,2431,0,4,1,forest_8,1,memory-2step-stake-s,634,2725052,0.0-19.0-0.1-0.145,A3DDTGMRDXR9NR,32CXT5U15JJVAEXBU2XNZL8A76W8U1,3NJM2BJS40MNGVDMKUJ0GLDHJSMPCM,3,4
146,3,object_02,object_08,792.39999997616,5,2,277.70000004768,0.4444444444444444,1,object_01,5,2451,0,4,3,library_5,1,memory-2step-stake-s,635,2732988,0.0-19.0-0.1-0.146,A3DDTGMRDXR9NR,32CXT5U15JJVAEXBU2XNZL8A76W8U1,3NJM2BJS40MNGVDMKUJ0GLDHJSMPCM,6,5
147,1,object_06,object_10,944.89999997616,1,1,238.69999998808,0.8888888888888888,1,object_01,1,2459,0,8,5,desert_8,1,memory-2step-stake-s,636,2741291,0.0-19.0-0.1-0.147,A3DDTGMRDXR9NR,32CXT5U15JJVAEXBU2XNZL8A76W8U1,3NJM2BJS40MNGVDMKUJ0GLDHJSMPCM,1,2
148,1,object_10,object_06,745.0,1,2,298.09999996424,0.7777777777777778,1,object_01,5,2494,0,7,7,desert_7,1,memory-2step-stake-s,637,2749544,0.0-19.0-0.1-0.148,A3DDTGMRDXR9NR,32CXT5U15JJVAEXBU2XNZL8A76W8U1,3NJM2BJS40MNGVDMKUJ0GLDHJSMPCM,2,1
149,3,object_08,object_02,646.30000001192,5,1,410.80000001192,0.4444444444444444,1,object_01,5,2514,0,4,6,library_3,1,memory-2step-stake-s,638,2757624,0.0-19.0-0.1-0.149,A3DDTGMRDXR9NR,32CXT5U15JJVAEXBU2XNZL8A76W8U1,3NJM2BJS40MNGVDMKUJ0GLDHJSMPCM,5,6
150,4,object_07,object_03,676.80000001192,7,1,416.79999995232,0.3333333333333333,1,object_01,1,2517,0,3,8,restaurant_3,1,memory-2step-stake-s,639,2765603,0.0-19.0-0.1-0.150,A3DDTGMRDXR9NR,32CXT5U15JJVAEXBU2XNZL8A76W8U1,3NJM2BJS40MNGVDMKUJ0GLDHJSMPCM,7,8
151,4,object_03,object_07,573.19999998808,8,1,292.89999997616,0.8888888888888888,2,object_09,1,2525,0,3,8,restaurant_7,1,memory-2step-stake-s,640,2773998,0.0-19.0-0.1-0.151,A3DDTGMRDXR9NR,32CXT5U15JJVAEXBU2XNZL8A76W8U1,3NJM2BJS40MNGVDMKUJ0GLDHJSMPCM,8,7
152,2,object_05,object_04,530.09999996424,4,1,332.0,0.8888888888888888,2,object_09,1,2533,0,5,8,forest_8,1,memory-2step-stake-s,641,2782433,0.0-19.0-0.1-0.152,A3DDTGMRDXR9NR,32CXT5U15JJVAEXBU2XNZL8A76W8U1,3NJM2BJS40MNGVDMKUJ0GLDHJSMPCM,4,3
153,3,object_02,object_08,535.39999997616,6,1,301.5,0.8888888888888888,2,object_09,5,2573,0,6,8,library_7,1,memory-2step-stake-s,642,2790878,0.0-19.0-0.1-0.153,A3DDTGMRDXR9NR,32CXT5U15JJVAEXBU2XNZL8A76W8U1,3NJM2BJS40MNGVDMKUJ0GLDHJSMPCM,6,5
154,1,object_10,object_06,1033.1000000238,2,1,447.5,0.8888888888888888,2,object_09,1,2581,0,2,8,desert_7,1,memory-2step-stake-s,643,2799463,0.0-19.0-0.1-0.154,A3DDTGMRDXR9NR,32CXT5U15JJVAEXBU2XNZL8A76W8U1,3NJM2BJS40MNGVDMKUJ0GLDHJSMPCM,2,1
155,1,object_06,object_10,902.30000001192,2,2,384.39999997616,0.8888888888888888,2,object_09,5,2621,0,6,8,desert_3,1,memory-2step-stake-s,644,2807920,0.0-19.0-0.1-0.155,A3DDTGMRDXR9NR,32CXT5U15JJVAEXBU2XNZL8A76W8U1,3NJM2BJS40MNGVDMKUJ0GLDHJSMPCM,1,2
156,2,object_05,object_04,638.59999996424,4,1,355.80000001192,1.0,2,object_09,1,2630,0,6,9,forest_1,1,memory-2step-stake-s,645,2816479,0.0-19.0-0.1-0.156,A3DDTGMRDXR9NR,32CXT5U15JJVAEXBU2XNZL8A76W8U1,3NJM2BJS40MNGVDMKUJ0GLDHJSMPCM,4,3
157,3,object_08,object_02,549.40000003576,6,2,323.09999996424,0.7777777777777778,2,object_09,1,2637,0,5,7,library_7,1,memory-2step-stake-s,646,2824841,0.0-19.0-0.1-0.157,A3DDTGMRDXR9NR,32CXT5U15JJVAEXBU2XNZL8A76W8U1,3NJM2BJS40MNGVDMKUJ0GLDHJSMPCM,5,6
158,1,object_10,object_06,730.30000001192,2,1,505.5,0.5555555555555556,2,object_09,1,2642,0,2,5,desert_8,1,memory-2step-stake-s,647,2833141,0.0-19.0-0.1-0.158,A3DDTGMRDXR9NR,32CXT5U15JJVAEXBU2XNZL8A76W8U1,3NJM2BJS40MNGVDMKUJ0GLDHJSMPCM,2,1
159,3,object_02,object_08,526.79999995232,6,1,374.09999996424,0.7777777777777778,2,object_09,1,2649,0,5,7,library_3,1,memory-2step-stake-s,648,2841553,0.0-19.0-0.1-0.159,A3DDTGMRDXR9NR,32CXT5U15JJVAEXBU2XNZL8A76W8U1,3NJM2BJS40MNGVDMKUJ0GLDHJSMPCM,6,5
160,4,object_07,object_03,809.59999996424,8,2,416.30000001192,0.8888888888888888,2,object_09,1,2657,0,6,8,restaurant_6,1,memory-2step-stake-s,649,2850123,0.0-19.0-0.1-0.160,A3DDTGMRDXR9NR,32CXT5U15JJVAEXBU2XNZL8A76W8U1,3NJM2BJS40MNGVDMKUJ0GLDHJSMPCM,7,8
161,3,object_02,object_08,451.60000002384,6,1,177.69999998808,1.0,2,object_09,1,2666,0,5,9,library_7,1,memory-2step-stake-s,650,2858538,0.0-19.0-0.1-0.161,A3DDTGMRDXR9NR,32CXT5U15JJVAEXBU2XNZL8A76W8U1,3NJM2BJS40MNGVDMKUJ0GLDHJSMPCM,6,5
162,2,object_05,object_04,610.5,4,1,327.39999997616,0.7777777777777778,2,object_09,1,2673,0,4,7,forest_4,1,memory-2step-stake-s,651,2866914,0.0-19.0-0.1-0.162,A3DDTGMRDXR9NR,32CXT5U15JJVAEXBU2XNZL8A76W8U1,3NJM2BJS40MNGVDMKUJ0GLDHJSMPCM,4,3
163,2,object_04,object_05,604.69999998808,4,2,279.5,0.5555555555555556,2,object_09,5,2698,0,3,5,forest_4,1,memory-2step-stake-s,652,2874986,0.0-19.0-0.1-0.163,A3DDTGMRDXR9NR,32CXT5U15JJVAEXBU2XNZL8A76W8U1,3NJM2BJS40MNGVDMKUJ0GLDHJSMPCM,3,4
164,1,object_10,object_06,585.79999995232,2,1,287.19999998808,0.3333333333333333,2,object_09,1,2701,0,0,3,desert_3,1,memory-2step-stake-s,653,2882867,0.0-19.0-0.1-0.164,A3DDTGMRDXR9NR,32CXT5U15JJVAEXBU2XNZL8A76W8U1,3NJM2BJS40MNGVDMKUJ0GLDHJSMPCM,2,1
165,2,object_05,object_04,848.90000003576,3,2,337.30000001192,0.1111111111111111,1,object_01,1,2702,0,1,2,forest_2,1,memory-2step-stake-s,654,2890567,0.0-19.0-0.1-0.165,A3DDTGMRDXR9NR,32CXT5U15JJVAEXBU2XNZL8A76W8U1,3NJM2BJS40MNGVDMKUJ0GLDHJSMPCM,4,3
166,3,object_02,object_08,789.19999998808,6,1,309.30000001192,0.2222222222222222,2,object_09,5,2712,0,0,2,library_2,1,memory-2step-stake-s,655,2898381,0.0-19.0-0.1-0.166,A3DDTGMRDXR9NR,32CXT5U15JJVAEXBU2XNZL8A76W8U1,3NJM2BJS40MNGVDMKUJ0GLDHJSMPCM,6,5
167,3,object_02,object_08,708.5,5,2,302.10000002384,0.5555555555555556,1,object_01,5,2737,0,5,1,library_5,1,memory-2step-stake-s,656,2906514,0.0-19.0-0.1-0.167,A3DDTGMRDXR9NR,32CXT5U15JJVAEXBU2XNZL8A76W8U1,3NJM2BJS40MNGVDMKUJ0GLDHJSMPCM,6,5
168,4,object_03,object_07,492.0,7,2,338.10000002384,0.5555555555555556,1,object_01,5,2762,0,5,2,restaurant_7,1,memory-2step-stake-s,657,2914650,0.0-19.0-0.1-0.168,A3DDTGMRDXR9NR,32CXT5U15JJVAEXBU2XNZL8A76W8U1,3NJM2BJS40MNGVDMKUJ0GLDHJSMPCM,8,7
169,4,object_07,object_03,536.30000001192,7,1,348.39999997616,0.4444444444444444,1,object_01,5,2782,0,4,0,restaurant_3,1,memory-2step-stake-s,658,2922656,0.0-19.0-0.1-0.169,A3DDTGMRDXR9NR,32CXT5U15JJVAEXBU2XNZL8A76W8U1,3NJM2BJS40MNGVDMKUJ0GLDHJSMPCM,7,8
170,2,object_04,object_05,868.5,3,1,306.69999998808,0.1111111111111111,1,object_01,5,2787,0,1,1,forest_2,1,memory-2step-stake-s,659,2930348,0.0-19.0-0.1-0.170,A3DDTGMRDXR9NR,32CXT5U15JJVAEXBU2XNZL8A76W8U1,3NJM2BJS40MNGVDMKUJ0GLDHJSMPCM,3,4
171,4,object_03,object_07,649.0,8,1,273.30000001192,0.1111111111111111,2,object_09,1,2788,0,3,1,restaurant_3,1,memory-2step-stake-s,660,2937981,0.0-19.0-0.1-0.171,A3DDTGMRDXR9NR,32CXT5U15JJVAEXBU2XNZL8A76W8U1,3NJM2BJS40MNGVDMKUJ0GLDHJSMPCM,8,7
172,1,object_06,object_10,978.0,1,1,360.09999996424,0.6666666666666666,1,object_01,5,2818,0,6,5,desert_7,1,memory-2step-stake-s,661,2946210,0.0-19.0-0.1-0.172,A3DDTGMRDXR9NR,32CXT5U15JJVAEXBU2XNZL8A76W8U1,3NJM2BJS40MNGVDMKUJ0GLDHJSMPCM,1,2
173,2,object_04,object_05,1068.5,3,1,448.39999997616,0.8888888888888888,1,object_01,5,2858,0,8,5,forest_1,1,memory-2step-stake-s,662,2954759,0.0-19.0-0.1-0.173,A3DDTGMRDXR9NR,32CXT5U15JJVAEXBU2XNZL8A76W8U1,3NJM2BJS40MNGVDMKUJ0GLDHJSMPCM,3,4
174,4,object_07,object_03,584.59999996424,7,1,314.39999997616,0.7777777777777778,1,object_01,1,2865,0,7,2,restaurant_6,1,memory-2step-stake-s,663,2963066,0.0-19.0-0.1-0.174,A3DDTGMRDXR9NR,32CXT5U15JJVAEXBU2XNZL8A76W8U1,3NJM2BJS40MNGVDMKUJ0GLDHJSMPCM,7,8
175,4,object_07,object_03,467.39999997616,7,1,289.0,0.5555555555555556,1,object_01,5,2890,0,5,2,restaurant_3,1,memory-2step-stake-s,664,2971119,0.0-19.0-0.1-0.175,A3DDTGMRDXR9NR,32CXT5U15JJVAEXBU2XNZL8A76W8U1,3NJM2BJS40MNGVDMKUJ0GLDHJSMPCM,7,8
176,2,object_05,object_04,905.0,3,2,431.80000001192,0.5555555555555556,1,object_01,1,2895,0,5,0,forest_2,1,memory-2step-stake-s,665,2979343,0.0-19.0-0.1-0.176,A3DDTGMRDXR9NR,32CXT5U15JJVAEXBU2XNZL8A76W8U1,3NJM2BJS40MNGVDMKUJ0GLDHJSMPCM,4,3
177,1,object_10,object_06,915.19999998808,1,2,326.69999998808,0.4444444444444444,1,object_01,1,2899,0,4,2,desert_7,1,memory-2step-stake-s,666,2987334,0.0-19.0-0.1-0.177,A3DDTGMRDXR9NR,32CXT5U15JJVAEXBU2XNZL8A76W8U1,3NJM2BJS40MNGVDMKUJ0GLDHJSMPCM,2,1
178,1,object_10,object_06,644.80000001192,2,1,283.60000002384,0.4444444444444444,2,object_09,1,2903,0,5,4,desert_3,1,memory-2step-stake-s,667,2995288,0.0-19.0-0.1-0.178,A3DDTGMRDXR9NR,32CXT5U15JJVAEXBU2XNZL8A76W8U1,3NJM2BJS40MNGVDMKUJ0GLDHJSMPCM,2,1
179,1,object_10,object_06,791.29999995232,2,1,350.39999997616,0.4444444444444444,2,object_09,1,2907,0,4,4,desert_1,1,memory-2step-stake-s,668,3003361,0.0-19.0-0.1-0.179,A3DDTGMRDXR9NR,32CXT5U15JJVAEXBU2XNZL8A76W8U1,3NJM2BJS40MNGVDMKUJ0GLDHJSMPCM,2,1
180,3,object_08,object_02,1132.0999999642,5,1,409.5,0.1111111111111111,1,object_01,1,2908,0,1,2,library_2,1,memory-2step-stake-s,669,3011133,0.0-19.0-0.1-0.180,A3DDTGMRDXR9NR,32CXT5U15JJVAEXBU2XNZL8A76W8U1,3NJM2BJS40MNGVDMKUJ0GLDHJSMPCM,5,6
181,1,object_10,object_06,869.19999998808,2,1,331.80000001192,0.0,2,object_09,1,2908,0,2,0,desert_7,1,memory-2step-stake-s,670,3018732,0.0-19.0-0.1-0.181,A3DDTGMRDXR9NR,32CXT5U15JJVAEXBU2XNZL8A76W8U1,3NJM2BJS40MNGVDMKUJ0GLDHJSMPCM,2,1
182,2,object_05,object_04,613.0,4,1,321.19999998808,0.2222222222222222,2,object_09,1,2910,0,3,2,forest_2,1,memory-2step-stake-s,671,3026582,0.0-19.0-0.1-0.182,A3DDTGMRDXR9NR,32CXT5U15JJVAEXBU2XNZL8A76W8U1,3NJM2BJS40MNGVDMKUJ0GLDHJSMPCM,4,3
183,2,object_05,object_04,761.90000003576,3,2,337.70000004768,0.3333333333333333,1,object_01,5,2925,0,3,3,forest_4,1,memory-2step-stake-s,672,3034537,0.0-19.0-0.1-0.183,A3DDTGMRDXR9NR,32CXT5U15JJVAEXBU2XNZL8A76W8U1,3NJM2BJS40MNGVDMKUJ0GLDHJSMPCM,4,3
184,2,object_04,object_05,652.5,4,2,446.70000004768,0.2222222222222222,2,object_09,1,2927,0,6,2,forest_1,1,memory-2step-stake-s,673,3042483,0.0-19.0-0.1-0.184,A3DDTGMRDXR9NR,32CXT5U15JJVAEXBU2XNZL8A76W8U1,3NJM2BJS40MNGVDMKUJ0GLDHJSMPCM,3,4
185,1,object_06,object_10,1135.8000000119,1,1,394.09999996424,0.6666666666666666,1,object_01,1,2933,0,6,4,desert_7,1,memory-2step-stake-s,674,3050833,0.0-19.0-0.1-0.185,A3DDTGMRDXR9NR,32CXT5U15JJVAEXBU2XNZL8A76W8U1,3NJM2BJS40MNGVDMKUJ0GLDHJSMPCM,1,2
186,4,object_07,object_03,576.19999998808,7,1,278.09999996424,0.7777777777777778,1,object_01,5,2968,0,7,3,restaurant_3,1,memory-2step-stake-s,675,3059160,0.0-19.0-0.1-0.186,A3DDTGMRDXR9NR,32CXT5U15JJVAEXBU2XNZL8A76W8U1,3NJM2BJS40MNGVDMKUJ0GLDHJSMPCM,7,8
187,4,object_03,object_07,509.5,7,2,1122.6999999881,0.5555555555555556,1,object_01,1,2973,0,5,2,restaurant_6,1,memory-2step-stake-s,676,3068136,0.0-19.0-0.1-0.187,A3DDTGMRDXR9NR,32CXT5U15JJVAEXBU2XNZL8A76W8U1,3NJM2BJS40MNGVDMKUJ0GLDHJSMPCM,8,7
188,3,object_08,object_02,763.60000002384,6,2,376.70000004768,0.1111111111111111,2,object_09,5,2978,0,5,1,library_7,1,memory-2step-stake-s,677,3075895,0.0-19.0-0.1-0.188,A3DDTGMRDXR9NR,32CXT5U15JJVAEXBU2XNZL8A76W8U1,3NJM2BJS40MNGVDMKUJ0GLDHJSMPCM,5,6
189,2,object_05,object_04,962.09999996424,3,2,385.69999998808,0.3333333333333333,1,object_01,5,2993,0,3,2,forest_2,1,memory-2step-stake-s,678,3083859,0.0-19.0-0.1-0.189,A3DDTGMRDXR9NR,32CXT5U15JJVAEXBU2XNZL8A76W8U1,3NJM2BJS40MNGVDMKUJ0GLDHJSMPCM,4,3
190,1,object_06,object_10,1051.5,1,1,293.19999998808,0.4444444444444444,1,object_01,5,3013,0,4,2,desert_7,1,memory-2step-stake-s,679,3091876,0.0-19.0-0.1-0.190,A3DDTGMRDXR9NR,32CXT5U15JJVAEXBU2XNZL8A76W8U1,3NJM2BJS40MNGVDMKUJ0GLDHJSMPCM,1,2
191,4,object_07,object_03,621.69999998808,7,1,239.0,0.6666666666666666,1,object_01,5,3043,0,6,3,restaurant_6,1,memory-2step-stake-s,680,3099995,0.0-19.0-0.1-0.191,A3DDTGMRDXR9NR,32CXT5U15JJVAEXBU2XNZL8A76W8U1,3NJM2BJS40MNGVDMKUJ0GLDHJSMPCM,7,8
192,1,object_10,object_06,870.60000002384,1,2,270.30000001192,0.5555555555555556,1,object_01,1,3048,0,5,5,desert_1,1,memory-2step-stake-s,681,3108042,0.0-19.0-0.1-0.192,A3DDTGMRDXR9NR,32CXT5U15JJVAEXBU2XNZL8A76W8U1,3NJM2BJS40MNGVDMKUJ0GLDHJSMPCM,2,1
193,2,object_04,object_05,969.79999995232,3,1,322.10000002384,0.3333333333333333,1,object_01,1,3051,0,3,4,forest_4,1,memory-2step-stake-s,682,3115923,0.0-19.0-0.1-0.193,A3DDTGMRDXR9NR,32CXT5U15JJVAEXBU2XNZL8A76W8U1,3NJM2BJS40MNGVDMKUJ0GLDHJSMPCM,3,4
194,1,object_06,object_10,835.29999995232,2,2,288.19999998808,0.4444444444444444,2,object_09,1,3055,0,1,4,desert_7,1,memory-2step-stake-s,683,3123878,0.0-19.0-0.1-0.194,A3DDTGMRDXR9NR,32CXT5U15JJVAEXBU2XNZL8A76W8U1,3NJM2BJS40MNGVDMKUJ0GLDHJSMPCM,1,2
195,3,object_08,object_02,602.0,6,2,297.30000001192,0.2222222222222222,2,object_09,5,3065,0,2,2,library_3,1,memory-2step-stake-s,684,3131659,0.0-19.0-0.1-0.195,A3DDTGMRDXR9NR,32CXT5U15JJVAEXBU2XNZL8A76W8U1,3NJM2BJS40MNGVDMKUJ0GLDHJSMPCM,5,6
196,2,object_04,object_05,451.39999997616,4,2,299.90000003576,0.3333333333333333,2,object_09,1,3068,0,2,3,forest_2,1,memory-2step-stake-s,685,3139515,0.0-19.0-0.1-0.196,A3DDTGMRDXR9NR,32CXT5U15JJVAEXBU2XNZL8A76W8U1,3NJM2BJS40MNGVDMKUJ0GLDHJSMPCM,3,4
197,1,object_06,object_10,864.09999996424,1,1,336.5,0.2222222222222222,1,object_01,1,3070,0,2,0,desert_1,1,memory-2step-stake-s,686,3147333,0.0-19.0-0.1-0.197,A3DDTGMRDXR9NR,32CXT5U15JJVAEXBU2XNZL8A76W8U1,3NJM2BJS40MNGVDMKUJ0GLDHJSMPCM,1,2
198,4,object_03,object_07,658.80000001192,8,1,274.60000002384,0.4444444444444444,2,object_09,5,3090,0,4,4,restaurant_3,1,memory-2step-stake-s,687,3155295,0.0-19.0-0.1-0.198,A3DDTGMRDXR9NR,32CXT5U15JJVAEXBU2XNZL8A76W8U1,3NJM2BJS40MNGVDMKUJ0GLDHJSMPCM,8,7
199,1,object_10,object_06,766.39999997616,2,1,614.80000001192,0.6666666666666666,2,object_09,1,3096,0,7,6,desert_7,1,memory-2step-stake-s,688,3163791,0.0-19.0-0.1-0.199,A3DDTGMRDXR9NR,32CXT5U15JJVAEXBU2XNZL8A76W8U1,3NJM2BJS40MNGVDMKUJ0GLDHJSMPCM,2,1
200,3,object_08,object_02,498.09999996424,6,2,388.80000001192,0.4444444444444444,2,object_09,5,3116,0,8,4,library_2,1,memory-2step-stake-s,689,3171866,0.0-19.0-0.1-0.200,A3DDTGMRDXR9NR,32CXT5U15JJVAEXBU2XNZL8A76W8U1,3NJM2BJS40MNGVDMKUJ0GLDHJSMPCM,5,6
201,2,object_04,object_05,816.09999996424,4,2,298.19999998808,0.2222222222222222,2,object_09,1,3118,0,8,2,forest_2,1,memory-2step-stake-s,690,3179679,0.0-19.0-0.1-0.201,A3DDTGMRDXR9NR,32CXT5U15JJVAEXBU2XNZL8A76W8U1,3NJM2BJS40MNGVDMKUJ0GLDHJSMPCM,3,4
202,1,object_10,object_06,949.69999998808,1,2,246.19999998808,0.6666666666666666,1,object_01,5,3148,0,6,3,desert_3,1,memory-2step-stake-s,691,3187798,0.0-19.0-0.1-0.202,A3DDTGMRDXR9NR,32CXT5U15JJVAEXBU2XNZL8A76W8U1,3NJM2BJS40MNGVDMKUJ0GLDHJSMPCM,2,1
203,4,object_03,object_07,483.0,7,2,20.199999988079,0.1111111111111111,1,object_01,5,3153,0,1,1,restaurant_6,1,memory-2step-stake-s,692,3195159,0.0-19.0-0.1-0.203,A3DDTGMRDXR9NR,32CXT5U15JJVAEXBU2XNZL8A76W8U1,3NJM2BJS40MNGVDMKUJ0GLDHJSMPCM,8,7
204,3,object_02,object_08,875.19999998808,6,1,246.60000002384,0.1111111111111111,2,object_09,5,3158,0,0,1,library_2,1,memory-2step-stake-s,693,3202769,0.0-19.0-0.1-0.204,A3DDTGMRDXR9NR,32CXT5U15JJVAEXBU2XNZL8A76W8U1,3NJM2BJS40MNGVDMKUJ0GLDHJSMPCM,6,5
205,2,object_04,object_05,641.69999998808,3,1,264.69999998808,0.1111111111111111,1,object_01,1,3159,0,1,0,forest_8,1,memory-2step-stake-s,694,3210391,0.0-19.0-0.1-0.205,A3DDTGMRDXR9NR,32CXT5U15JJVAEXBU2XNZL8A76W8U1,3NJM2BJS40MNGVDMKUJ0GLDHJSMPCM,3,4
206,2,object_05,object_04,539.30000001192,4,1,619.0,0.1111111111111111,2,object_09,1,3160,0,2,1,forest_8,1,memory-2step-stake-s,695,3218413,0.0-19.0-0.1-0.206,A3DDTGMRDXR9NR,32CXT5U15JJVAEXBU2XNZL8A76W8U1,3NJM2BJS40MNGVDMKUJ0GLDHJSMPCM,4,3
207,4,object_03,object_07,664.59999996424,7,2,287.69999998808,0.4444444444444444,1,object_01,5,3180,0,4,1,restaurant_2,1,memory-2step-stake-s,696,3226423,0.0-19.0-0.1-0.207,A3DDTGMRDXR9NR,32CXT5U15JJVAEXBU2XNZL8A76W8U1,3NJM2BJS40MNGVDMKUJ0GLDHJSMPCM,8,7
208,1,object_10,object_06,699.29999995232,1,2,289.5,0.6666666666666666,1,object_01,1,3186,0,6,0,desert_1,1,memory-2step-stake-s,697,3234604,0.0-19.0-0.1-0.208,A3DDTGMRDXR9NR,32CXT5U15JJVAEXBU2XNZL8A76W8U1,3NJM2BJS40MNGVDMKUJ0GLDHJSMPCM,2,1
209,1,object_10,object_06,820.90000003576,1,2,283.19999998808,0.7777777777777778,1,object_01,1,3193,0,7,2,desert_3,1,memory-2step-stake-s,698,3242941,0.0-19.0-0.1-0.209,A3DDTGMRDXR9NR,32CXT5U15JJVAEXBU2XNZL8A76W8U1,3NJM2BJS40MNGVDMKUJ0GLDHJSMPCM,2,1
210,2,object_05,object_04,605.80000001192,3,2,316.19999998808,0.7777777777777778,1,object_01,5,3228,0,7,4,forest_1,1,memory-2step-stake-s,699,3251286,0.0-19.0-0.1-0.210,A3DDTGMRDXR9NR,32CXT5U15JJVAEXBU2XNZL8A76W8U1,3NJM2BJS40MNGVDMKUJ0GLDHJSMPCM,4,3
211,2,object_05,object_04,583.19999998808,3,2,444.60000002384,0.6666666666666666,1,object_01,1,3234,0,6,4,forest_2,1,memory-2step-stake-s,700,3259676,0.0-19.0-0.1-0.211,A3DDTGMRDXR9NR,32CXT5U15JJVAEXBU2XNZL8A76W8U1,3NJM2BJS40MNGVDMKUJ0GLDHJSMPCM,4,3
212,2,object_04,object_05,624.0,3,1,435.0,0.8888888888888888,1,object_01,1,3242,0,8,5,forest_2,1,memory-2step-stake-s,701,3268280,0.0-19.0-0.1-0.212,A3DDTGMRDXR9NR,32CXT5U15JJVAEXBU2XNZL8A76W8U1,3NJM2BJS40MNGVDMKUJ0GLDHJSMPCM,3,4
213,3,object_08,object_02,872.20000004768,5,1,274.0,0.7777777777777778,1,object_01,1,3249,0,7,1,library_2,1,memory-2step-stake-s,702,3276620,0.0-19.0-0.1-0.213,A3DDTGMRDXR9NR,32CXT5U15JJVAEXBU2XNZL8A76W8U1,3NJM2BJS40MNGVDMKUJ0GLDHJSMPCM,5,6
214,1,object_06,object_10,1024.3000000119,1,1,342.89999997616,0.8888888888888888,1,object_01,5,3289,0,8,1,desert_1,1,memory-2step-stake-s,703,3285066,0.0-19.0-0.1-0.214,A3DDTGMRDXR9NR,32CXT5U15JJVAEXBU2XNZL8A76W8U1,3NJM2BJS40MNGVDMKUJ0GLDHJSMPCM,1,2
215,3,object_02,object_08,962.30000001192,5,2,550.0,0.6666666666666666,1,object_01,1,3295,0,6,1,library_7,1,memory-2step-stake-s,704,3293571,0.0-19.0-0.1-0.215,A3DDTGMRDXR9NR,32CXT5U15JJVAEXBU2XNZL8A76W8U1,3NJM2BJS40MNGVDMKUJ0GLDHJSMPCM,6,5
216,4,object_07,object_03,675.70000004768,7,1,317.10000002384,0.5555555555555556,1,object_01,5,3320,0,5,2,restaurant_6,1,memory-2step-stake-s,705,3301713,0.0-19.0-0.1-0.216,A3DDTGMRDXR9NR,32CXT5U15JJVAEXBU2XNZL8A76W8U1,3NJM2BJS40MNGVDMKUJ0GLDHJSMPCM,7,8
217,1,object_10,object_06,831.40000003576,1,2,274.79999995232,0.7777777777777778,1,object_01,1,3327,0,7,2,desert_8,1,memory-2step-stake-s,706,3310024,0.0-19.0-0.1-0.217,A3DDTGMRDXR9NR,32CXT5U15JJVAEXBU2XNZL8A76W8U1,3NJM2BJS40MNGVDMKUJ0GLDHJSMPCM,2,1
218,1,object_10,object_06,697.29999995232,1,2,389.29999995232,0.7777777777777778,1,object_01,1,3334,0,7,0,desert_1,1,memory-2step-stake-s,707,3318461,0.0-19.0-0.1-0.218,A3DDTGMRDXR9NR,32CXT5U15JJVAEXBU2XNZL8A76W8U1,3NJM2BJS40MNGVDMKUJ0GLDHJSMPCM,2,1
219,2,object_05,object_04,766.60000002384,3,2,512.0,0.5555555555555556,1,object_01,1,3339,0,5,0,forest_8,1,memory-2step-stake-s,708,3326777,0.0-19.0-0.1-0.219,A3DDTGMRDXR9NR,32CXT5U15JJVAEXBU2XNZL8A76W8U1,3NJM2BJS40MNGVDMKUJ0GLDHJSMPCM,4,3
220,2,object_04,object_05,944.29999995232,3,1,296.59999996424,0.8888888888888888,1,object_01,1,3347,0,8,0,forest_2,1,memory-2step-stake-s,709,3335193,0.0-19.0-0.1-0.220,A3DDTGMRDXR9NR,32CXT5U15JJVAEXBU2XNZL8A76W8U1,3NJM2BJS40MNGVDMKUJ0GLDHJSMPCM,3,4
221,3,object_08,object_02,1109.8000000119,5,1,372.10000002384,0.7777777777777778,1,object_01,5,3382,0,7,3,library_5,1,memory-2step-stake-s,710,3343541,0.0-19.0-0.1-0.221,A3DDTGMRDXR9NR,32CXT5U15JJVAEXBU2XNZL8A76W8U1,3NJM2BJS40MNGVDMKUJ0GLDHJSMPCM,5,6
222,4,object_07,object_03,626.10000002384,7,1,296.09999996424,0.8888888888888888,1,object_01,5,3422,0,8,5,restaurant_7,1,memory-2step-stake-s,711,3351943,0.0-19.0-0.1-0.222,A3DDTGMRDXR9NR,32CXT5U15JJVAEXBU2XNZL8A76W8U1,3NJM2BJS40MNGVDMKUJ0GLDHJSMPCM,7,8
223,4,object_03,object_07,560.40000003576,7,2,327.80000001192,0.6666666666666666,1,object_01,5,3452,0,6,9,restaurant_2,1,memory-2step-stake-s,712,3360169,0.0-19.0-0.1-0.223,A3DDTGMRDXR9NR,32CXT5U15JJVAEXBU2XNZL8A76W8U1,3NJM2BJS40MNGVDMKUJ0GLDHJSMPCM,8,7
224,4,object_03,object_07,507.0,7,2,306.39999997616,0.8888888888888888,1,object_01,5,3492,0,8,6,restaurant_7,1,memory-2step-stake-s,713,3368578,0.0-19.0-0.1-0.224,A3DDTGMRDXR9NR,32CXT5U15JJVAEXBU2XNZL8A76W8U1,3NJM2BJS40MNGVDMKUJ0GLDHJSMPCM,8,7
225,1,object_10,object_06,758.60000002384,1,2,339.20000004768,0.4444444444444444,1,object_01,5,3512,0,4,8,desert_8,1,memory-2step-stake-s,714,3376587,0.0-19.0-0.1-0.225,A3DDTGMRDXR9NR,32CXT5U15JJVAEXBU2XNZL8A76W8U1,3NJM2BJS40MNGVDMKUJ0GLDHJSMPCM,2,1
226,4,object_07,object_03,1241.1000000238,7,1,314.80000001192,0.3333333333333333,1,object_01,5,3527,0,3,6,restaurant_2,1,memory-2step-stake-s,715,3384487,0.0-19.0-0.1-0.226,A3DDTGMRDXR9NR,32CXT5U15JJVAEXBU2XNZL8A76W8U1,3NJM2BJS40MNGVDMKUJ0GLDHJSMPCM,7,8
227,3,object_08,object_02,727.80000001192,6,2,297.69999998808,0.7777777777777778,2,object_09,1,3534,0,7,7,library_7,1,memory-2step-stake-s,716,3392834,0.0-19.0-0.1-0.227,A3DDTGMRDXR9NR,32CXT5U15JJVAEXBU2XNZL8A76W8U1,3NJM2BJS40MNGVDMKUJ0GLDHJSMPCM,5,6
228,2,object_04,object_05,647.40000003576,4,2,356.69999998808,0.6666666666666666,2,object_09,1,3540,0,8,6,forest_4,1,memory-2step-stake-s,717,3401119,0.0-19.0-0.1-0.228,A3DDTGMRDXR9NR,32CXT5U15JJVAEXBU2XNZL8A76W8U1,3NJM2BJS40MNGVDMKUJ0GLDHJSMPCM,3,4
229,3,object_02,object_08,519.90000003576,6,1,285.10000002384,0.5555555555555556,2,object_09,5,3565,0,9,5,library_3,1,memory-2step-stake-s,718,3409223,0.0-19.0-0.1-0.229,A3DDTGMRDXR9NR,32CXT5U15JJVAEXBU2XNZL8A76W8U1,3NJM2BJS40MNGVDMKUJ0GLDHJSMPCM,6,5
230,3,object_08,object_02,708.20000004768,6,2,308.89999997616,0.5555555555555556,2,object_09,5,3590,0,7,5,library_2,1,memory-2step-stake-s,719,3417357,0.0-19.0-0.1-0.230,A3DDTGMRDXR9NR,32CXT5U15JJVAEXBU2XNZL8A76W8U1,3NJM2BJS40MNGVDMKUJ0GLDHJSMPCM,5,6
231,1,object_06,object_10,751.40000003576,2,2,311.69999998808,0.3333333333333333,2,object_09,1,3593,0,8,3,desert_8,1,memory-2step-stake-s,720,3425247,0.0-19.0-0.1-0.231,A3DDTGMRDXR9NR,32CXT5U15JJVAEXBU2XNZL8A76W8U1,3NJM2BJS40MNGVDMKUJ0GLDHJSMPCM,1,2
232,2,object_04,object_05,1133.2999999523,4,2,394.10000002384,0.5555555555555556,2,object_09,1,3598,0,6,5,forest_8,1,memory-2step-stake-s,721,3433451,0.0-19.0-0.1-0.232,A3DDTGMRDXR9NR,32CXT5U15JJVAEXBU2XNZL8A76W8U1,3NJM2BJS40MNGVDMKUJ0GLDHJSMPCM,3,4
233,1,object_06,object_10,995.39999997616,1,1,275.10000002384,1.0,1,object_01,1,3607,0,9,1,desert_3,1,memory-2step-stake-s,722,3441967,0.0-19.0-0.1-0.233,A3DDTGMRDXR9NR,32CXT5U15JJVAEXBU2XNZL8A76W8U1,3NJM2BJS40MNGVDMKUJ0GLDHJSMPCM,1,2
234,1,object_06,object_10,805.80000001192,1,1,253.89999997616,0.6666666666666666,1,object_01,1,3613,0,6,7,desert_1,1,memory-2step-stake-s,723,3450110,0.0-19.0-0.1-0.234,A3DDTGMRDXR9NR,32CXT5U15JJVAEXBU2XNZL8A76W8U1,3NJM2BJS40MNGVDMKUJ0GLDHJSMPCM,1,2
235,2,object_04,object_05,626.30000001192,3,1,493.0,0.7777777777777778,1,object_01,1,3620,0,7,8,forest_1,1,memory-2step-stake-s,724,3458633,0.0-19.0-0.1-0.235,A3DDTGMRDXR9NR,32CXT5U15JJVAEXBU2XNZL8A76W8U1,3NJM2BJS40MNGVDMKUJ0GLDHJSMPCM,3,4
236,1,object_06,object_10,673.30000001192,1,1,441.59999996424,0.4444444444444444,1,object_01,1,3624,0,4,6,desert_1,1,memory-2step-stake-s,725,3466758,0.0-19.0-0.1-0.236,A3DDTGMRDXR9NR,32CXT5U15JJVAEXBU2XNZL8A76W8U1,3NJM2BJS40MNGVDMKUJ0GLDHJSMPCM,1,2
237,3,object_08,object_02,1081.4000000358,5,1,302.59999996424,0.7777777777777778,1,object_01,1,3631,0,7,7,library_7,1,memory-2step-stake-s,726,3475091,0.0-19.0-0.1-0.237,A3DDTGMRDXR9NR,32CXT5U15JJVAEXBU2XNZL8A76W8U1,3NJM2BJS40MNGVDMKUJ0GLDHJSMPCM,5,6
238,2,object_04,object_05,509.40000003576,3,1,380.80000001192,0.6666666666666666,1,object_01,1,3637,0,6,7,forest_1,1,memory-2step-stake-s,727,3483354,0.0-19.0-0.1-0.238,A3DDTGMRDXR9NR,32CXT5U15JJVAEXBU2XNZL8A76W8U1,3NJM2BJS40MNGVDMKUJ0GLDHJSMPCM,3,4
239,1,object_10,object_06,743.80000001192,1,2,317.69999998808,0.6666666666666666,1,object_01,1,3643,0,6,2,desert_7,1,memory-2step-stake-s,728,3491555,0.0-19.0-0.1-0.239,A3DDTGMRDXR9NR,32CXT5U15JJVAEXBU2XNZL8A76W8U1,3NJM2BJS40MNGVDMKUJ0GLDHJSMPCM,2,1
240,4,object_03,object_07,579.39999997616,7,2,383.0,0.7777777777777778,1,object_01,5,3678,0,7,1,restaurant_2,1,memory-2step-stake-s,729,3499974,0.0-19.0-0.1-0.240,A3DDTGMRDXR9NR,32CXT5U15JJVAEXBU2XNZL8A76W8U1,3NJM2BJS40MNGVDMKUJ0GLDHJSMPCM,8,7
241,3,object_02,object_08,686.20000004768,5,2,345.89999997616,0.7777777777777778,1,object_01,5,3713,0,7,2,library_5,1,memory-2step-stake-s,730,3508307,0.0-19.0-0.1-0.241,A3DDTGMRDXR9NR,32CXT5U15JJVAEXBU2XNZL8A76W8U1,3NJM2BJS40MNGVDMKUJ0GLDHJSMPCM,6,5
242,4,object_03,object_07,522.0,7,2,359.80000001192,0.7777777777777778,1,object_01,5,3748,0,7,1,restaurant_6,1,memory-2step-stake-s,731,3516668,0.0-19.0-0.1-0.242,A3DDTGMRDXR9NR,32CXT5U15JJVAEXBU2XNZL8A76W8U1,3NJM2BJS40MNGVDMKUJ0GLDHJSMPCM,8,7
243,2,object_05,object_04,692.89999997616,3,2,262.5,0.6666666666666666,1,object_01,1,3754,0,6,4,forest_1,1,memory-2step-stake-s,732,3524849,0.0-19.0-0.1-0.243,A3DDTGMRDXR9NR,32CXT5U15JJVAEXBU2XNZL8A76W8U1,3NJM2BJS40MNGVDMKUJ0GLDHJSMPCM,4,3
244,1,object_06,object_10,882.80000001192,1,1,317.19999998808,0.3333333333333333,1,object_01,1,3757,0,3,4,desert_8,1,memory-2step-stake-s,733,3532767,0.0-19.0-0.1-0.244,A3DDTGMRDXR9NR,32CXT5U15JJVAEXBU2XNZL8A76W8U1,3NJM2BJS40MNGVDMKUJ0GLDHJSMPCM,1,2
245,2,object_04,object_05,604.60000002384,4,2,328.39999997616,0.1111111111111111,2,object_09,5,3762,0,1,1,forest_4,1,memory-2step-stake-s,734,3540484,0.0-19.0-0.1-0.245,A3DDTGMRDXR9NR,32CXT5U15JJVAEXBU2XNZL8A76W8U1,3NJM2BJS40MNGVDMKUJ0GLDHJSMPCM,3,4
246,1,object_10,object_06,936.30000001192,2,1,294.30000001192,0.1111111111111111,2,object_09,1,3763,0,3,1,desert_1,1,memory-2step-stake-s,735,3548142,0.0-19.0-0.1-0.246,A3DDTGMRDXR9NR,32CXT5U15JJVAEXBU2XNZL8A76W8U1,3NJM2BJS40MNGVDMKUJ0GLDHJSMPCM,2,1
247,4,object_07,object_03,690.0,7,1,343.40000003576,0.3333333333333333,1,object_01,5,3778,0,3,0,restaurant_2,1,memory-2step-stake-s,736,3556049,0.0-19.0-0.1-0.247,A3DDTGMRDXR9NR,32CXT5U15JJVAEXBU2XNZL8A76W8U1,3NJM2BJS40MNGVDMKUJ0GLDHJSMPCM,7,8
248,1,object_10,object_06,659.69999998808,2,1,289.69999998808,0.2222222222222222,2,object_09,1,3780,0,3,2,desert_3,1,memory-2step-stake-s,737,3563780,0.0-19.0-0.1-0.248,A3DDTGMRDXR9NR,32CXT5U15JJVAEXBU2XNZL8A76W8U1,3NJM2BJS40MNGVDMKUJ0GLDHJSMPCM,2,1
249,4,object_03,object_07,599.79999995232,8,1,366.90000003576,0.2222222222222222,2,object_09,5,3790,0,1,2,restaurant_3,1,memory-2step-stake-s,738,3571631,0.0-19.0-0.1-0.249,A3DDTGMRDXR9NR,32CXT5U15JJVAEXBU2XNZL8A76W8U1,3NJM2BJS40MNGVDMKUJ0GLDHJSMPCM,8,7
250,4,object_03,object_07,548.10000002384,7,2,320.30000001192,0.3333333333333333,1,object_01,1,3793,0,3,3,restaurant_2,1,memory-2step-stake-s,739,3579578,0.0-19.0-0.1-0.250,A3DDTGMRDXR9NR,32CXT5U15JJVAEXBU2XNZL8A76W8U1,3NJM2BJS40MNGVDMKUJ0GLDHJSMPCM,8,7
251,2,object_04,object_05,622.89999997616,4,2,412.0,0.4444444444444444,2,object_09,1,3797,0,5,4,forest_1,1,memory-2step-stake-s,740,3587712,0.0-19.0-0.1-0.251,A3DDTGMRDXR9NR,32CXT5U15JJVAEXBU2XNZL8A76W8U1,3NJM2BJS40MNGVDMKUJ0GLDHJSMPCM,3,4
252,4,object_07,object_03,546.39999997616,8,2,342.60000002384,0.6666666666666666,2,object_09,5,3827,0,6,6,restaurant_3,1,memory-2step-stake-s,741,3595978,0.0-19.0-0.1-0.252,A3DDTGMRDXR9NR,32CXT5U15JJVAEXBU2XNZL8A76W8U1,3NJM2BJS40MNGVDMKUJ0GLDHJSMPCM,7,8
253,3,object_02,object_08,501.89999997616,6,1,336.30000001192,0.4444444444444444,2,object_09,5,3847,0,7,4,library_2,1,memory-2step-stake-s,742,3604027,0.0-19.0-0.1-0.253,A3DDTGMRDXR9NR,32CXT5U15JJVAEXBU2XNZL8A76W8U1,3NJM2BJS40MNGVDMKUJ0GLDHJSMPCM,6,5
254,4,object_07,object_03,445.59999996424,8,2,333.39999997616,0.4444444444444444,2,object_09,5,3867,0,7,4,restaurant_2,1,memory-2step-stake-s,743,3612075,0.0-19.0-0.1-0.254,A3DDTGMRDXR9NR,32CXT5U15JJVAEXBU2XNZL8A76W8U1,3NJM2BJS40MNGVDMKUJ0GLDHJSMPCM,7,8
255,2,object_05,object_04,706.79999995232,4,1,1164.6000000238,0.8888888888888888,2,object_09,1,3875,0,9,8,forest_1,1,memory-2step-stake-s,744,3621407,0.0-19.0-0.1-0.255,A3DDTGMRDXR9NR,32CXT5U15JJVAEXBU2XNZL8A76W8U1,3NJM2BJS40MNGVDMKUJ0GLDHJSMPCM,4,3
