,state1,stim_left,stim_right,rt_1,choice1,response1,rt_2,points,state2,stim_state2,stake,score,practice,rews1,rews2,background,high_arm,trial_type,trial_index,time_elapsed,internal_node_id,subid,hitid,assignmentid,stim_left_num,stim_right_num
0,1,object_04,object_07,448.80000001192,2,1,1356.6999999881,0.2222222222222222,2,object_08,1,2,0,5,2,desert_5,1,memory-2step-stake-s,493,757828,0.0-19.0-0.0-0.0,AYDILOZLKOAS8,39O6Z4JLY5DL2UNJ70JKB6RMCJRXVU,3IRIK4HM3E0F6PVH5YKRALM0ND2C6O,2,1
1,3,object_05,object_02,589.30000001192,6,2,424.19999998808,0.2222222222222222,2,object_08,5,12,0,3,2,library_8,1,memory-2step-stake-s,494,765668,0.0-19.0-0.0-0.1,AYDILOZLKOAS8,39O6Z4JLY5DL2UNJ70JKB6RMCJRXVU,3IRIK4HM3E0F6PVH5YKRALM0ND2C6O,5,6
2,1,object_04,object_07,790.60000002384,1,2,754.69999998808,0.5555555555555556,1,object_09,1,17,0,5,0,desert_7,1,memory-2step-stake-s,495,774137,0.0-19.0-0.0-0.2,AYDILOZLKOAS8,39O6Z4JLY5DL2UNJ70JKB6RMCJRXVU,3IRIK4HM3E0F6PVH5YKRALM0ND2C6O,2,1
3,3,object_02,object_05,720.30000001192,5,2,474.60000002384,0.3333333333333333,1,object_09,5,32,0,3,0,library_2,1,memory-2step-stake-s,496,782126,0.0-19.0-0.0-0.3,AYDILOZLKOAS8,39O6Z4JLY5DL2UNJ70JKB6RMCJRXVU,3IRIK4HM3E0F6PVH5YKRALM0ND2C6O,6,5
4,2,object_06,object_01,779.30000001192,4,2,246.19999998808,0.6666666666666666,2,object_08,1,38,0,1,6,forest_3,1,memory-2step-stake-s,497,790191,0.0-19.0-0.0-0.4,AYDILOZLKOAS8,39O6Z4JLY5DL2UNJ70JKB6RMCJRXVU,3IRIK4HM3E0F6PVH5YKRALM0ND2C6O,3,4
5,2,object_06,object_01,570.19999998808,3,1,470.0,0.0,1,object_09,1,38,0,0,8,forest_1,1,memory-2step-stake-s,498,797874,0.0-19.0-0.0-0.5,AYDILOZLKOAS8,39O6Z4JLY5DL2UNJ70JKB6RMCJRXVU,3IRIK4HM3E0F6PVH5YKRALM0ND2C6O,3,4
6,1,object_04,object_07,719.0,1,2,248.5,0.1111111111111111,1,object_09,1,39,0,1,8,desert_1,1,memory-2step-stake-s,499,805438,0.0-19.0-0.0-0.6,AYDILOZLKOAS8,39O6Z4JLY5DL2UNJ70JKB6RMCJRXVU,3IRIK4HM3E0F6PVH5YKRALM0ND2C6O,2,1
7,2,object_01,object_06,819.80000001192,3,2,270.30000001192,0.2222222222222222,1,object_09,1,41,0,2,9,forest_1,1,memory-2step-stake-s,500,813123,0.0-19.0-0.0-0.7,AYDILOZLKOAS8,39O6Z4JLY5DL2UNJ70JKB6RMCJRXVU,3IRIK4HM3E0F6PVH5YKRALM0ND2C6O,4,3
8,2,object_06,object_01,758.30000001192,4,2,355.29999995232,0.6666666666666666,2,object_08,1,47,0,4,6,forest_5,1,memory-2step-stake-s,501,821296,0.0-19.0-0.0-0.8,AYDILOZLKOAS8,39O6Z4JLY5DL2UNJ70JKB6RMCJRXVU,3IRIK4HM3E0F6PVH5YKRALM0ND2C6O,3,4
9,4,object_03,object_10,841.39999997616,7,1,310.19999998808,0.3333333333333333,1,object_09,1,50,0,3,3,restaurant_5,1,memory-2step-stake-s,502,829122,0.0-19.0-0.0-0.9,AYDILOZLKOAS8,39O6Z4JLY5DL2UNJ70JKB6RMCJRXVU,3IRIK4HM3E0F6PVH5YKRALM0ND2C6O,7,8
10,1,object_04,object_07,687.69999998808,1,2,314.80000001192,0.1111111111111111,1,object_09,1,51,0,1,4,desert_1,1,memory-2step-stake-s,503,836754,0.0-19.0-0.0-0.10,AYDILOZLKOAS8,39O6Z4JLY5DL2UNJ70JKB6RMCJRXVU,3IRIK4HM3E0F6PVH5YKRALM0ND2C6O,2,1
11,1,object_07,object_04,831.39999997616,2,2,242.09999996424,0.3333333333333333,2,object_08,5,66,0,0,3,desert_5,1,memory-2step-stake-s,504,844513,0.0-19.0-0.0-0.11,AYDILOZLKOAS8,39O6Z4JLY5DL2UNJ70JKB6RMCJRXVU,3IRIK4HM3E0F6PVH5YKRALM0ND2C6O,1,2
12,1,object_04,object_07,880.39999997616,2,1,275.90000003576,0.6666666666666666,2,object_08,1,72,0,1,6,desert_5,1,memory-2step-stake-s,505,852611,0.0-19.0-0.0-0.12,AYDILOZLKOAS8,39O6Z4JLY5DL2UNJ70JKB6RMCJRXVU,3IRIK4HM3E0F6PVH5YKRALM0ND2C6O,2,1
13,2,object_06,object_01,997.89999997616,4,2,241.30000001192,0.6666666666666666,2,object_08,1,78,0,1,6,forest_3,1,memory-2step-stake-s,506,860670,0.0-19.0-0.0-0.13,AYDILOZLKOAS8,39O6Z4JLY5DL2UNJ70JKB6RMCJRXVU,3IRIK4HM3E0F6PVH5YKRALM0ND2C6O,3,4
14,3,object_02,object_05,875.69999998808,5,2,302.90000003576,0.0,1,object_09,5,78,0,0,6,library_2,1,memory-2step-stake-s,507,868186,0.0-19.0-0.0-0.14,AYDILOZLKOAS8,39O6Z4JLY5DL2UNJ70JKB6RMCJRXVU,3IRIK4HM3E0F6PVH5YKRALM0ND2C6O,6,5
15,1,object_07,object_04,766.10000002384,2,2,393.59999996424,0.7777777777777778,2,object_08,1,85,0,4,7,desert_5,1,memory-2step-stake-s,508,876501,0.0-19.0-0.0-0.15,AYDILOZLKOAS8,39O6Z4JLY5DL2UNJ70JKB6RMCJRXVU,3IRIK4HM3E0F6PVH5YKRALM0ND2C6O,1,2
16,4,object_10,object_03,1171.5999999642,8,1,253.60000002384,0.5555555555555556,2,object_08,5,110,0,4,5,restaurant_1,1,memory-2step-stake-s,509,884475,0.0-19.0-0.0-0.16,AYDILOZLKOAS8,39O6Z4JLY5DL2UNJ70JKB6RMCJRXVU,3IRIK4HM3E0F6PVH5YKRALM0ND2C6O,8,7
17,3,object_05,object_02,766.0,5,1,128.60000002384,0.3333333333333333,1,object_09,5,125,0,3,1,library_5,1,memory-2step-stake-s,510,892120,0.0-19.0-0.0-0.17,AYDILOZLKOAS8,39O6Z4JLY5DL2UNJ70JKB6RMCJRXVU,3IRIK4HM3E0F6PVH5YKRALM0ND2C6O,5,6
18,4,object_10,object_03,888.80000001192,8,1,395.39999997616,0.3333333333333333,2,object_08,5,140,0,4,3,restaurant_1,1,memory-2step-stake-s,511,900033,0.0-19.0-0.0-0.18,AYDILOZLKOAS8,39O6Z4JLY5DL2UNJ70JKB6RMCJRXVU,3IRIK4HM3E0F6PVH5YKRALM0ND2C6O,8,7
19,4,object_03,object_10,624.10000002384,8,2,115.90000003576,0.1111111111111111,2,object_08,5,145,0,4,1,restaurant_4,1,memory-2step-stake-s,512,907462,0.0-19.0-0.0-0.19,AYDILOZLKOAS8,39O6Z4JLY5DL2UNJ70JKB6RMCJRXVU,3IRIK4HM3E0F6PVH5YKRALM0ND2C6O,7,8
20,2,object_01,object_06,858.69999998808,4,1,286.0,0.1111111111111111,2,object_08,5,150,0,6,1,forest_3,1,memory-2step-stake-s,513,915061,0.0-19.0-0.0-0.20,AYDILOZLKOAS8,39O6Z4JLY5DL2UNJ70JKB6RMCJRXVU,3IRIK4HM3E0F6PVH5YKRALM0ND2C6O,4,3
21,4,object_03,object_10,723.20000004768,8,2,494.69999998808,0.4444444444444444,2,object_08,5,170,0,5,4,restaurant_3,1,memory-2step-stake-s,514,923175,0.0-19.0-0.0-0.21,AYDILOZLKOAS8,39O6Z4JLY5DL2UNJ70JKB6RMCJRXVU,3IRIK4HM3E0F6PVH5YKRALM0ND2C6O,7,8
22,2,object_06,object_01,1033.1999999881,3,1,356.40000003576,0.5555555555555556,1,object_09,1,175,0,5,3,forest_4,1,memory-2step-stake-s,515,931251,0.0-19.0-0.0-0.22,AYDILOZLKOAS8,39O6Z4JLY5DL2UNJ70JKB6RMCJRXVU,3IRIK4HM3E0F6PVH5YKRALM0ND2C6O,3,4
23,1,object_07,object_04,1149.9000000358,2,2,504.29999995232,0.4444444444444444,2,object_08,5,195,0,6,4,desert_3,1,memory-2step-stake-s,516,939373,0.0-19.0-0.0-0.23,AYDILOZLKOAS8,39O6Z4JLY5DL2UNJ70JKB6RMCJRXVU,3IRIK4HM3E0F6PVH5YKRALM0ND2C6O,1,2
24,1,object_07,object_04,-1.0,-1,-1,-1.0,0.0,-,0,5,195,0,6,6,desert_3,1,memory-2step-stake-s,517,945881,0.0-19.0-0.0-0.24,AYDILOZLKOAS8,39O6Z4JLY5DL2UNJ70JKB6RMCJRXVU,3IRIK4HM3E0F6PVH5YKRALM0ND2C6O,1,2
25,2,object_06,object_01,543.0,3,1,273.0,0.6666666666666666,1,object_09,1,201,0,6,6,forest_1,1,memory-2step-stake-s,518,953977,0.0-19.0-0.0-0.25,AYDILOZLKOAS8,39O6Z4JLY5DL2UNJ70JKB6RMCJRXVU,3IRIK4HM3E0F6PVH5YKRALM0ND2C6O,3,4
26,4,object_03,object_10,366.0,8,2,281.80000001192,0.4444444444444444,2,object_08,1,205,0,6,4,restaurant_4,1,memory-2step-stake-s,519,961877,0.0-19.0-0.0-0.26,AYDILOZLKOAS8,39O6Z4JLY5DL2UNJ70JKB6RMCJRXVU,3IRIK4HM3E0F6PVH5YKRALM0ND2C6O,7,8
27,3,object_02,object_05,513.40000003576,6,1,308.80000001192,0.3333333333333333,2,object_08,5,220,0,5,3,library_2,1,memory-2step-stake-s,520,969721,0.0-19.0-0.0-0.27,AYDILOZLKOAS8,39O6Z4JLY5DL2UNJ70JKB6RMCJRXVU,3IRIK4HM3E0F6PVH5YKRALM0ND2C6O,6,5
28,1,object_07,object_04,566.40000003576,2,2,241.30000001192,0.1111111111111111,2,object_08,1,221,0,3,1,desert_1,1,memory-2step-stake-s,521,977278,0.0-19.0-0.0-0.28,AYDILOZLKOAS8,39O6Z4JLY5DL2UNJ70JKB6RMCJRXVU,3IRIK4HM3E0F6PVH5YKRALM0ND2C6O,1,2
29,1,object_07,object_04,522.80000001192,1,1,309.40000003576,0.3333333333333333,1,object_09,1,224,0,3,4,desert_3,1,memory-2step-stake-s,522,985103,0.0-19.0-0.0-0.29,AYDILOZLKOAS8,39O6Z4JLY5DL2UNJ70JKB6RMCJRXVU,3IRIK4HM3E0F6PVH5YKRALM0ND2C6O,1,2
30,3,object_05,object_02,785.10000002384,6,2,300.59999996424,0.5555555555555556,2,object_08,5,249,0,1,5,library_5,1,memory-2step-stake-s,523,993123,0.0-19.0-0.0-0.30,AYDILOZLKOAS8,39O6Z4JLY5DL2UNJ70JKB6RMCJRXVU,3IRIK4HM3E0F6PVH5YKRALM0ND2C6O,5,6
31,3,object_02,object_05,893.80000001192,5,2,280.5,0.2222222222222222,1,object_09,5,259,0,2,1,library_2,1,memory-2step-stake-s,524,1000818,0.0-19.0-0.0-0.31,AYDILOZLKOAS8,39O6Z4JLY5DL2UNJ70JKB6RMCJRXVU,3IRIK4HM3E0F6PVH5YKRALM0ND2C6O,6,5
32,4,object_03,object_10,733.5,7,1,303.5,0.3333333333333333,1,object_09,1,262,0,3,1,restaurant_5,1,memory-2step-stake-s,525,1008640,0.0-19.0-0.0-0.32,AYDILOZLKOAS8,39O6Z4JLY5DL2UNJ70JKB6RMCJRXVU,3IRIK4HM3E0F6PVH5YKRALM0ND2C6O,7,8
33,1,object_04,object_07,696.60000002384,1,2,284.10000002384,0.6666666666666666,1,object_09,1,268,0,6,2,desert_7,1,memory-2step-stake-s,526,1016743,0.0-19.0-0.0-0.33,AYDILOZLKOAS8,39O6Z4JLY5DL2UNJ70JKB6RMCJRXVU,3IRIK4HM3E0F6PVH5YKRALM0ND2C6O,2,1
34,3,object_05,object_02,386.0,6,2,340.10000002384,0.5555555555555556,2,object_08,1,273,0,5,5,library_2,1,memory-2step-stake-s,527,1024803,0.0-19.0-0.0-0.34,AYDILOZLKOAS8,39O6Z4JLY5DL2UNJ70JKB6RMCJRXVU,3IRIK4HM3E0F6PVH5YKRALM0ND2C6O,5,6
35,3,object_02,object_05,389.39999997616,5,2,377.90000003576,0.5555555555555556,1,object_09,5,298,0,5,1,library_2,1,memory-2step-stake-s,528,1032899,0.0-19.0-0.0-0.35,AYDILOZLKOAS8,39O6Z4JLY5DL2UNJ70JKB6RMCJRXVU,3IRIK4HM3E0F6PVH5YKRALM0ND2C6O,6,5
36,1,object_07,object_04,469.10000002384,1,1,144.5,0.8888888888888888,1,object_09,1,306,0,8,0,desert_5,1,memory-2step-stake-s,529,1041064,0.0-19.0-0.0-0.36,AYDILOZLKOAS8,39O6Z4JLY5DL2UNJ70JKB6RMCJRXVU,3IRIK4HM3E0F6PVH5YKRALM0ND2C6O,1,2
37,1,object_04,object_07,856.69999998808,1,2,107.80000001192,0.8888888888888888,1,object_09,1,314,0,8,1,desert_7,1,memory-2step-stake-s,530,1049193,0.0-19.0-0.0-0.37,AYDILOZLKOAS8,39O6Z4JLY5DL2UNJ70JKB6RMCJRXVU,3IRIK4HM3E0F6PVH5YKRALM0ND2C6O,2,1
38,1,object_07,object_04,720.19999998808,1,1,268.59999996424,1.0,1,object_09,1,323,0,9,1,desert_5,1,memory-2step-stake-s,531,1057580,0.0-19.0-0.0-0.38,AYDILOZLKOAS8,39O6Z4JLY5DL2UNJ70JKB6RMCJRXVU,3IRIK4HM3E0F6PVH5YKRALM0ND2C6O,1,2
39,4,object_10,object_03,790.10000002384,8,1,242.19999998808,0.4444444444444444,2,object_08,5,343,0,8,4,restaurant_3,1,memory-2step-stake-s,532,1065438,0.0-19.0-0.0-0.39,AYDILOZLKOAS8,39O6Z4JLY5DL2UNJ70JKB6RMCJRXVU,3IRIK4HM3E0F6PVH5YKRALM0ND2C6O,8,7
40,4,object_10,object_03,826.89999997616,7,2,237.80000001192,0.7777777777777778,1,object_09,5,378,0,7,3,restaurant_3,1,memory-2step-stake-s,533,1073597,0.0-19.0-0.0-0.40,AYDILOZLKOAS8,39O6Z4JLY5DL2UNJ70JKB6RMCJRXVU,3IRIK4HM3E0F6PVH5YKRALM0ND2C6O,8,7
41,2,object_06,object_01,523.40000003576,4,2,398.60000002384,0.3333333333333333,2,object_08,1,381,0,5,3,forest_4,1,memory-2step-stake-s,534,1081513,0.0-19.0-0.0-0.41,AYDILOZLKOAS8,39O6Z4JLY5DL2UNJ70JKB6RMCJRXVU,3IRIK4HM3E0F6PVH5YKRALM0ND2C6O,3,4
42,3,object_02,object_05,647.60000002384,6,1,395.60000002384,0.1111111111111111,2,object_08,1,382,0,4,1,library_8,1,memory-2step-stake-s,535,1089222,0.0-19.0-0.0-0.42,AYDILOZLKOAS8,39O6Z4JLY5DL2UNJ70JKB6RMCJRXVU,3IRIK4HM3E0F6PVH5YKRALM0ND2C6O,6,5
43,4,object_03,object_10,682.69999998808,8,2,701.09999996424,0.0,2,object_08,5,382,0,4,0,restaurant_5,1,memory-2step-stake-s,536,1097136,0.0-19.0-0.0-0.43,AYDILOZLKOAS8,39O6Z4JLY5DL2UNJ70JKB6RMCJRXVU,3IRIK4HM3E0F6PVH5YKRALM0ND2C6O,7,8
44,3,object_05,object_02,559.79999995232,5,1,314.69999998808,0.5555555555555556,1,object_09,5,407,0,5,0,library_2,1,memory-2step-stake-s,537,1105169,0.0-19.0-0.0-0.44,AYDILOZLKOAS8,39O6Z4JLY5DL2UNJ70JKB6RMCJRXVU,3IRIK4HM3E0F6PVH5YKRALM0ND2C6O,5,6
45,3,object_05,object_02,1335.0999999642,6,2,282.59999996424,0.0,2,object_08,5,407,0,6,0,library_2,1,memory-2step-stake-s,538,1112665,0.0-19.0-0.0-0.45,AYDILOZLKOAS8,39O6Z4JLY5DL2UNJ70JKB6RMCJRXVU,3IRIK4HM3E0F6PVH5YKRALM0ND2C6O,5,6
46,2,object_01,object_06,703.39999997616,4,1,234.69999998808,0.0,2,object_08,5,407,0,5,0,forest_3,1,memory-2step-stake-s,539,1120112,0.0-19.0-0.0-0.46,AYDILOZLKOAS8,39O6Z4JLY5DL2UNJ70JKB6RMCJRXVU,3IRIK4HM3E0F6PVH5YKRALM0ND2C6O,4,3
47,1,object_07,object_04,888.70000004768,1,1,531.40000003576,0.4444444444444444,1,object_09,1,411,0,4,2,desert_5,1,memory-2step-stake-s,540,1128261,0.0-19.0-0.0-0.47,AYDILOZLKOAS8,39O6Z4JLY5DL2UNJ70JKB6RMCJRXVU,3IRIK4HM3E0F6PVH5YKRALM0ND2C6O,1,2
48,1,object_04,object_07,426.89999997616,1,2,68.600000023842,0.6666666666666666,1,object_09,1,417,0,6,0,desert_1,1,memory-2step-stake-s,541,1136151,0.0-19.0-0.0-0.48,AYDILOZLKOAS8,39O6Z4JLY5DL2UNJ70JKB6RMCJRXVU,3IRIK4HM3E0F6PVH5YKRALM0ND2C6O,2,1
49,4,object_10,object_03,625.39999997616,8,1,516.40000003576,0.5555555555555556,2,object_08,5,442,0,6,5,restaurant_5,1,memory-2step-stake-s,542,1144385,0.0-19.0-0.0-0.49,AYDILOZLKOAS8,39O6Z4JLY5DL2UNJ70JKB6RMCJRXVU,3IRIK4HM3E0F6PVH5YKRALM0ND2C6O,8,7
50,2,object_01,object_06,407.39999997616,4,1,450.19999998808,0.7777777777777778,2,object_08,1,449,0,7,7,forest_3,1,memory-2step-stake-s,543,1152756,0.0-19.0-0.0-0.50,AYDILOZLKOAS8,39O6Z4JLY5DL2UNJ70JKB6RMCJRXVU,3IRIK4HM3E0F6PVH5YKRALM0ND2C6O,4,3
51,4,object_10,object_03,661.10000002384,7,2,304.20000004768,0.6666666666666666,1,object_09,5,479,0,6,4,restaurant_5,1,memory-2step-stake-s,544,1160880,0.0-19.0-0.0-0.51,AYDILOZLKOAS8,39O6Z4JLY5DL2UNJ70JKB6RMCJRXVU,3IRIK4HM3E0F6PVH5YKRALM0ND2C6O,8,7
52,1,object_07,object_04,560.20000004768,1,1,443.60000002384,0.5555555555555556,1,object_09,1,484,0,5,1,desert_1,1,memory-2step-stake-s,545,1169042,0.0-19.0-0.0-0.52,AYDILOZLKOAS8,39O6Z4JLY5DL2UNJ70JKB6RMCJRXVU,3IRIK4HM3E0F6PVH5YKRALM0ND2C6O,1,2
53,2,object_01,object_06,798.30000001192,3,2,378.80000001192,0.6666666666666666,1,object_09,1,490,0,6,0,forest_3,1,memory-2step-stake-s,546,1177240,0.0-19.0-0.0-0.53,AYDILOZLKOAS8,39O6Z4JLY5DL2UNJ70JKB6RMCJRXVU,3IRIK4HM3E0F6PVH5YKRALM0ND2C6O,4,3
54,2,object_01,object_06,424.39999997616,4,1,403.60000002384,0.3333333333333333,2,object_08,5,505,0,8,3,forest_3,1,memory-2step-stake-s,547,1185158,0.0-19.0-0.0-0.54,AYDILOZLKOAS8,39O6Z4JLY5DL2UNJ70JKB6RMCJRXVU,3IRIK4HM3E0F6PVH5YKRALM0ND2C6O,4,3
55,2,object_06,object_01,729.70000004768,3,1,764.5,0.6666666666666666,1,object_09,1,511,0,6,3,forest_3,1,memory-2step-stake-s,548,1193743,0.0-19.0-0.0-0.55,AYDILOZLKOAS8,39O6Z4JLY5DL2UNJ70JKB6RMCJRXVU,3IRIK4HM3E0F6PVH5YKRALM0ND2C6O,3,4
56,2,object_01,object_06,881.29999995232,3,2,348.69999998808,0.5555555555555556,1,object_09,5,536,0,5,2,forest_5,1,memory-2step-stake-s,549,1201811,0.0-19.0-0.0-0.56,AYDILOZLKOAS8,39O6Z4JLY5DL2UNJ70JKB6RMCJRXVU,3IRIK4HM3E0F6PVH5YKRALM0ND2C6O,4,3
57,3,object_05,object_02,605.90000003576,5,1,432.40000003576,0.5555555555555556,1,object_09,1,541,0,5,2,library_2,1,memory-2step-stake-s,550,1209963,0.0-19.0-0.0-0.57,AYDILOZLKOAS8,39O6Z4JLY5DL2UNJ70JKB6RMCJRXVU,3IRIK4HM3E0F6PVH5YKRALM0ND2C6O,5,6
58,4,object_10,object_03,644.5,7,2,952.5,0.7777777777777778,1,object_09,5,576,0,7,3,restaurant_5,1,memory-2step-stake-s,551,1218835,0.0-19.0-0.0-0.58,AYDILOZLKOAS8,39O6Z4JLY5DL2UNJ70JKB6RMCJRXVU,3IRIK4HM3E0F6PVH5YKRALM0ND2C6O,8,7
59,3,object_05,object_02,549.19999998808,5,1,640.90000003576,1.0,1,object_09,1,585,0,9,5,library_5,1,memory-2step-stake-s,552,1227596,0.0-19.0-0.0-0.59,AYDILOZLKOAS8,39O6Z4JLY5DL2UNJ70JKB6RMCJRXVU,3IRIK4HM3E0F6PVH5YKRALM0ND2C6O,5,6
60,3,object_02,object_05,1083.1999999881,5,2,598.80000001192,0.3333333333333333,1,object_09,5,600,0,3,3,library_5,1,memory-2step-stake-s,553,1235713,0.0-19.0-0.0-0.60,AYDILOZLKOAS8,39O6Z4JLY5DL2UNJ70JKB6RMCJRXVU,3IRIK4HM3E0F6PVH5YKRALM0ND2C6O,6,5
61,2,object_06,object_01,376.60000002384,3,1,84.099999964237,0.0,1,object_09,1,600,0,0,3,forest_4,1,memory-2step-stake-s,554,1243006,0.0-19.0-0.0-0.61,AYDILOZLKOAS8,39O6Z4JLY5DL2UNJ70JKB6RMCJRXVU,3IRIK4HM3E0F6PVH5YKRALM0ND2C6O,3,4
62,1,object_07,object_04,722.30000001192,2,2,286.0,0.2222222222222222,2,object_08,1,602,0,1,2,desert_5,1,memory-2step-stake-s,555,1250706,0.0-19.0-0.0-0.62,AYDILOZLKOAS8,39O6Z4JLY5DL2UNJ70JKB6RMCJRXVU,3IRIK4HM3E0F6PVH5YKRALM0ND2C6O,1,2
63,1,object_07,object_04,749.70000004768,2,2,40.600000023842,0.5555555555555556,2,object_08,1,607,0,0,5,desert_3,1,memory-2step-stake-s,556,1258467,0.0-19.0-0.0-0.63,AYDILOZLKOAS8,39O6Z4JLY5DL2UNJ70JKB6RMCJRXVU,3IRIK4HM3E0F6PVH5YKRALM0ND2C6O,1,2
64,3,object_05,object_02,925.5,6,2,281.5,0.5555555555555556,2,object_08,5,632,0,2,5,library_1,1,memory-2step-stake-s,557,1266466,0.0-19.0-0.0-0.64,AYDILOZLKOAS8,39O6Z4JLY5DL2UNJ70JKB6RMCJRXVU,3IRIK4HM3E0F6PVH5YKRALM0ND2C6O,5,6
65,4,object_10,object_03,364.5,8,1,408.10000002384,0.8888888888888888,2,object_08,5,672,0,1,8,restaurant_3,1,memory-2step-stake-s,558,1274897,0.0-19.0-0.0-0.65,AYDILOZLKOAS8,39O6Z4JLY5DL2UNJ70JKB6RMCJRXVU,3IRIK4HM3E0F6PVH5YKRALM0ND2C6O,8,7
66,4,object_10,object_03,294.69999998808,8,1,346.09999996424,0.7777777777777778,2,object_08,5,707,0,3,7,restaurant_4,1,memory-2step-stake-s,559,1283162,0.0-19.0-0.0-0.66,AYDILOZLKOAS8,39O6Z4JLY5DL2UNJ70JKB6RMCJRXVU,3IRIK4HM3E0F6PVH5YKRALM0ND2C6O,8,7
67,2,object_01,object_06,518.19999998808,4,1,481.10000002384,0.6666666666666666,2,object_08,5,737,0,4,6,forest_5,1,memory-2step-stake-s,560,1291462,0.0-19.0-0.0-0.67,AYDILOZLKOAS8,39O6Z4JLY5DL2UNJ70JKB6RMCJRXVU,3IRIK4HM3E0F6PVH5YKRALM0ND2C6O,4,3
68,1,object_04,object_07,410.0,1,2,28.099999964237,0.5555555555555556,1,object_09,1,742,0,5,8,desert_5,1,memory-2step-stake-s,561,1299209,0.0-19.0-0.0-0.68,AYDILOZLKOAS8,39O6Z4JLY5DL2UNJ70JKB6RMCJRXVU,3IRIK4HM3E0F6PVH5YKRALM0ND2C6O,2,1
69,4,object_10,object_03,680.5,8,1,977.30000001192,0.5555555555555556,2,object_08,5,767,0,2,5,restaurant_3,1,memory-2step-stake-s,562,1307906,0.0-19.0-0.0-0.69,AYDILOZLKOAS8,39O6Z4JLY5DL2UNJ70JKB6RMCJRXVU,3IRIK4HM3E0F6PVH5YKRALM0ND2C6O,8,7
70,2,object_01,object_06,597.29999995232,3,2,641.30000001192,0.1111111111111111,1,object_09,1,768,0,1,4,forest_3,1,memory-2step-stake-s,563,1315861,0.0-19.0-0.0-0.70,AYDILOZLKOAS8,39O6Z4JLY5DL2UNJ70JKB6RMCJRXVU,3IRIK4HM3E0F6PVH5YKRALM0ND2C6O,4,3
71,1,object_04,object_07,602.30000001192,2,1,373.19999998808,0.5555555555555556,2,object_08,1,773,0,2,5,desert_3,1,memory-2step-stake-s,564,1323952,0.0-19.0-0.0-0.71,AYDILOZLKOAS8,39O6Z4JLY5DL2UNJ70JKB6RMCJRXVU,3IRIK4HM3E0F6PVH5YKRALM0ND2C6O,2,1
72,4,object_03,object_10,879.5,8,2,585.0,0.3333333333333333,2,object_08,5,788,0,2,3,restaurant_3,1,memory-2step-stake-s,565,1332056,0.0-19.0-0.0-0.72,AYDILOZLKOAS8,39O6Z4JLY5DL2UNJ70JKB6RMCJRXVU,3IRIK4HM3E0F6PVH5YKRALM0ND2C6O,7,8
73,3,object_05,object_02,648.0,5,1,570.30000001192,0.5555555555555556,1,object_09,5,813,0,5,4,library_8,1,memory-2step-stake-s,566,1340346,0.0-19.0-0.0-0.73,AYDILOZLKOAS8,39O6Z4JLY5DL2UNJ70JKB6RMCJRXVU,3IRIK4HM3E0F6PVH5YKRALM0ND2C6O,5,6
74,1,object_04,object_07,589.89999997616,2,1,577.10000002384,0.2222222222222222,2,object_08,1,815,0,4,2,desert_1,1,memory-2step-stake-s,567,1348340,0.0-19.0-0.0-0.74,AYDILOZLKOAS8,39O6Z4JLY5DL2UNJ70JKB6RMCJRXVU,3IRIK4HM3E0F6PVH5YKRALM0ND2C6O,2,1
75,4,object_10,object_03,643.40000003576,7,2,263.0,0.4444444444444444,1,object_09,5,835,0,4,2,restaurant_1,1,memory-2step-stake-s,568,1356219,0.0-19.0-0.0-0.75,AYDILOZLKOAS8,39O6Z4JLY5DL2UNJ70JKB6RMCJRXVU,3IRIK4HM3E0F6PVH5YKRALM0ND2C6O,8,7
76,2,object_06,object_01,653.5,3,1,495.80000001192,0.6666666666666666,1,object_09,5,865,0,6,1,forest_4,1,memory-2step-stake-s,569,1364532,0.0-19.0-0.0-0.76,AYDILOZLKOAS8,39O6Z4JLY5DL2UNJ70JKB6RMCJRXVU,3IRIK4HM3E0F6PVH5YKRALM0ND2C6O,3,4
77,2,object_01,object_06,947.5,3,2,368.29999995232,0.7777777777777778,1,object_09,5,900,0,7,0,forest_4,1,memory-2step-stake-s,570,1372819,0.0-19.0-0.0-0.77,AYDILOZLKOAS8,39O6Z4JLY5DL2UNJ70JKB6RMCJRXVU,3IRIK4HM3E0F6PVH5YKRALM0ND2C6O,4,3
78,2,object_01,object_06,972.80000001192,3,2,273.59999996424,0.7777777777777778,1,object_09,1,907,0,7,4,forest_1,1,memory-2step-stake-s,571,1381012,0.0-19.0-0.0-0.78,AYDILOZLKOAS8,39O6Z4JLY5DL2UNJ70JKB6RMCJRXVU,3IRIK4HM3E0F6PVH5YKRALM0ND2C6O,4,3
79,4,object_10,object_03,1347.3000000119,8,1,310.39999997616,0.7777777777777778,2,object_08,5,942,0,6,7,restaurant_3,1,memory-2step-stake-s,572,1389244,0.0-19.0-0.0-0.79,AYDILOZLKOAS8,39O6Z4JLY5DL2UNJ70JKB6RMCJRXVU,3IRIK4HM3E0F6PVH5YKRALM0ND2C6O,8,7
80,4,object_10,object_03,1035.3999999762,7,2,206.90000003576,0.8888888888888888,1,object_09,1,950,0,8,5,restaurant_3,1,memory-2step-stake-s,573,1397471,0.0-19.0-0.0-0.80,AYDILOZLKOAS8,39O6Z4JLY5DL2UNJ70JKB6RMCJRXVU,3IRIK4HM3E0F6PVH5YKRALM0ND2C6O,8,7
81,4,object_10,object_03,848.80000001192,7,2,308.89999997616,0.7777777777777778,1,object_09,1,957,0,7,9,restaurant_4,1,memory-2step-stake-s,574,1405699,0.0-19.0-0.0-0.81,AYDILOZLKOAS8,39O6Z4JLY5DL2UNJ70JKB6RMCJRXVU,3IRIK4HM3E0F6PVH5YKRALM0ND2C6O,8,7
82,4,object_03,object_10,452.5,7,1,6.6999999880791,0.8888888888888888,1,object_09,5,997,0,8,8,restaurant_3,1,memory-2step-stake-s,575,1413729,0.0-19.0-0.0-0.82,AYDILOZLKOAS8,39O6Z4JLY5DL2UNJ70JKB6RMCJRXVU,3IRIK4HM3E0F6PVH5YKRALM0ND2C6O,7,8
83,4,object_10,object_03,464.29999995232,7,2,379.09999996424,0.8888888888888888,1,object_09,5,1037,0,8,8,restaurant_1,1,memory-2step-stake-s,576,1422129,0.0-19.0-0.0-0.83,AYDILOZLKOAS8,39O6Z4JLY5DL2UNJ70JKB6RMCJRXVU,3IRIK4HM3E0F6PVH5YKRALM0ND2C6O,8,7
84,3,object_02,object_05,886.5,5,2,273.69999998808,0.7777777777777778,1,object_09,5,1072,0,7,7,library_2,1,memory-2step-stake-s,577,1430323,0.0-19.0-0.0-0.84,AYDILOZLKOAS8,39O6Z4JLY5DL2UNJ70JKB6RMCJRXVU,3IRIK4HM3E0F6PVH5YKRALM0ND2C6O,6,5
85,3,object_05,object_02,828.69999998808,5,1,256.30000001192,0.7777777777777778,1,object_09,5,1107,0,7,8,library_5,1,memory-2step-stake-s,578,1438499,0.0-19.0-0.0-0.85,AYDILOZLKOAS8,39O6Z4JLY5DL2UNJ70JKB6RMCJRXVU,3IRIK4HM3E0F6PVH5YKRALM0ND2C6O,5,6
86,1,object_04,object_07,644.39999997616,2,1,248.0,0.6666666666666666,2,object_08,1,1113,0,8,6,desert_7,1,memory-2step-stake-s,579,1446568,0.0-19.0-0.0-0.86,AYDILOZLKOAS8,39O6Z4JLY5DL2UNJ70JKB6RMCJRXVU,3IRIK4HM3E0F6PVH5YKRALM0ND2C6O,2,1
87,3,object_05,object_02,700.80000001192,5,1,280.5,0.7777777777777778,1,object_09,5,1148,0,7,8,library_1,1,memory-2step-stake-s,580,1454770,0.0-19.0-0.0-0.87,AYDILOZLKOAS8,39O6Z4JLY5DL2UNJ70JKB6RMCJRXVU,3IRIK4HM3E0F6PVH5YKRALM0ND2C6O,5,6
88,3,object_02,object_05,637.60000002384,5,2,385.0,0.3333333333333333,1,object_09,5,1163,0,3,6,library_5,1,memory-2step-stake-s,581,1462671,0.0-19.0-0.0-0.88,AYDILOZLKOAS8,39O6Z4JLY5DL2UNJ70JKB6RMCJRXVU,3IRIK4HM3E0F6PVH5YKRALM0ND2C6O,6,5
89,1,object_04,object_07,673.80000001192,1,2,115.80000001192,0.2222222222222222,1,object_09,5,1173,0,2,4,desert_1,1,memory-2step-stake-s,582,1470204,0.0-19.0-0.0-0.89,AYDILOZLKOAS8,39O6Z4JLY5DL2UNJ70JKB6RMCJRXVU,3IRIK4HM3E0F6PVH5YKRALM0ND2C6O,2,1
90,1,object_07,object_04,564.5,2,2,287.69999998808,0.3333333333333333,2,object_08,1,1176,0,1,3,desert_1,1,memory-2step-stake-s,583,1478008,0.0-19.0-0.0-0.90,AYDILOZLKOAS8,39O6Z4JLY5DL2UNJ70JKB6RMCJRXVU,3IRIK4HM3E0F6PVH5YKRALM0ND2C6O,1,2
91,2,object_01,object_06,1120.1000000238,3,2,300.19999998808,0.4444444444444444,1,object_09,5,1196,0,4,1,forest_1,1,memory-2step-stake-s,584,1485924,0.0-19.0-0.0-0.91,AYDILOZLKOAS8,39O6Z4JLY5DL2UNJ70JKB6RMCJRXVU,3IRIK4HM3E0F6PVH5YKRALM0ND2C6O,4,3
92,4,object_03,object_10,844.40000003576,7,1,208.89999997616,0.4444444444444444,1,object_09,5,1216,0,4,0,restaurant_1,1,memory-2step-stake-s,585,1493749,0.0-19.0-0.0-0.92,AYDILOZLKOAS8,39O6Z4JLY5DL2UNJ70JKB6RMCJRXVU,3IRIK4HM3E0F6PVH5YKRALM0ND2C6O,7,8
93,1,object_04,object_07,699.59999996424,2,1,534.90000003576,0.1111111111111111,2,object_08,1,1217,0,8,1,desert_7,1,memory-2step-stake-s,586,1501599,0.0-19.0-0.0-0.93,AYDILOZLKOAS8,39O6Z4JLY5DL2UNJ70JKB6RMCJRXVU,3IRIK4HM3E0F6PVH5YKRALM0ND2C6O,2,1
94,3,object_02,object_05,945.90000003576,5,2,267.5,1.0,1,object_09,5,1262,0,9,2,library_8,1,memory-2step-stake-s,587,1509994,0.0-19.0-0.0-0.94,AYDILOZLKOAS8,39O6Z4JLY5DL2UNJ70JKB6RMCJRXVU,3IRIK4HM3E0F6PVH5YKRALM0ND2C6O,6,5
95,2,object_06,object_01,1172.8000000119,3,1,350.40000003576,0.6666666666666666,1,object_09,1,1268,0,6,0,forest_1,1,memory-2step-stake-s,588,1518168,0.0-19.0-0.0-0.95,AYDILOZLKOAS8,39O6Z4JLY5DL2UNJ70JKB6RMCJRXVU,3IRIK4HM3E0F6PVH5YKRALM0ND2C6O,3,4
96,3,object_05,object_02,855.39999997616,5,1,114.30000001192,0.7777777777777778,1,object_09,5,1303,0,7,1,library_8,1,memory-2step-stake-s,589,1526202,0.0-19.0-0.0-0.96,AYDILOZLKOAS8,39O6Z4JLY5DL2UNJ70JKB6RMCJRXVU,3IRIK4HM3E0F6PVH5YKRALM0ND2C6O,5,6
97,3,object_05,object_02,743.0,5,1,105.5,0.8888888888888888,1,object_09,5,1343,0,8,1,library_8,1,memory-2step-stake-s,590,1534329,0.0-19.0-0.0-0.97,AYDILOZLKOAS8,39O6Z4JLY5DL2UNJ70JKB6RMCJRXVU,3IRIK4HM3E0F6PVH5YKRALM0ND2C6O,5,6
98,4,object_03,object_10,670.69999998808,7,1,2.1999999880791,1.0,1,object_09,5,1388,0,9,2,restaurant_1,1,memory-2step-stake-s,591,1542452,0.0-19.0-0.0-0.98,AYDILOZLKOAS8,39O6Z4JLY5DL2UNJ70JKB6RMCJRXVU,3IRIK4HM3E0F6PVH5YKRALM0ND2C6O,7,8
99,2,object_01,object_06,906.90000003576,3,2,422.5,0.7777777777777778,1,object_09,1,1395,0,7,1,forest_4,1,memory-2step-stake-s,592,1550796,0.0-19.0-0.0-0.99,AYDILOZLKOAS8,39O6Z4JLY5DL2UNJ70JKB6RMCJRXVU,3IRIK4HM3E0F6PVH5YKRALM0ND2C6O,4,3
100,2,object_06,object_01,692.30000001192,3,1,302.29999995232,0.5555555555555556,1,object_09,1,1400,0,5,1,forest_4,1,memory-2step-stake-s,593,1558818,0.0-19.0-0.0-0.100,AYDILOZLKOAS8,39O6Z4JLY5DL2UNJ70JKB6RMCJRXVU,3IRIK4HM3E0F6PVH5YKRALM0ND2C6O,3,4
101,4,object_10,object_03,653.80000001192,7,2,81.0,0.8888888888888888,1,object_09,5,1440,0,8,1,restaurant_5,1,memory-2step-stake-s,594,1566920,0.0-19.0-0.0-0.101,AYDILOZLKOAS8,39O6Z4JLY5DL2UNJ70JKB6RMCJRXVU,3IRIK4HM3E0F6PVH5YKRALM0ND2C6O,8,7
102,1,object_07,object_04,831.59999996424,1,1,552.60000002384,1.0,1,object_09,1,1449,0,9,3,desert_1,1,memory-2step-stake-s,595,1575599,0.0-19.0-0.0-0.102,AYDILOZLKOAS8,39O6Z4JLY5DL2UNJ70JKB6RMCJRXVU,3IRIK4HM3E0F6PVH5YKRALM0ND2C6O,1,2
103,3,object_02,object_05,800.69999998808,5,2,292.19999998808,0.8888888888888888,1,object_09,1,1457,0,8,1,library_8,1,memory-2step-stake-s,596,1583914,0.0-19.0-0.0-0.103,AYDILOZLKOAS8,39O6Z4JLY5DL2UNJ70JKB6RMCJRXVU,3IRIK4HM3E0F6PVH5YKRALM0ND2C6O,6,5
104,4,object_03,object_10,654.5,7,1,441.30000001192,0.7777777777777778,1,object_09,5,1492,0,7,2,restaurant_3,1,memory-2step-stake-s,597,1592275,0.0-19.0-0.0-0.104,AYDILOZLKOAS8,39O6Z4JLY5DL2UNJ70JKB6RMCJRXVU,3IRIK4HM3E0F6PVH5YKRALM0ND2C6O,7,8
105,1,object_04,object_07,853.5,1,2,328.29999995232,0.5555555555555556,1,object_09,1,1497,0,5,0,desert_7,1,memory-2step-stake-s,598,1600323,0.0-19.0-0.0-0.105,AYDILOZLKOAS8,39O6Z4JLY5DL2UNJ70JKB6RMCJRXVU,3IRIK4HM3E0F6PVH5YKRALM0ND2C6O,2,1
106,3,object_02,object_05,908.5,5,2,232.30000001192,0.4444444444444444,1,object_09,1,1501,0,4,3,library_5,1,memory-2step-stake-s,599,1608171,0.0-19.0-0.0-0.106,AYDILOZLKOAS8,39O6Z4JLY5DL2UNJ70JKB6RMCJRXVU,3IRIK4HM3E0F6PVH5YKRALM0ND2C6O,6,5
107,4,object_03,object_10,707.09999996424,7,1,341.59999996424,0.8888888888888888,1,object_09,5,1541,0,8,4,restaurant_1,1,memory-2step-stake-s,600,1616536,0.0-19.0-0.0-0.107,AYDILOZLKOAS8,39O6Z4JLY5DL2UNJ70JKB6RMCJRXVU,3IRIK4HM3E0F6PVH5YKRALM0ND2C6O,7,8
108,2,object_06,object_01,718.80000001192,3,1,322.30000001192,0.6666666666666666,1,object_09,1,1547,0,6,4,forest_4,1,memory-2step-stake-s,601,1624677,0.0-19.0-0.0-0.108,AYDILOZLKOAS8,39O6Z4JLY5DL2UNJ70JKB6RMCJRXVU,3IRIK4HM3E0F6PVH5YKRALM0ND2C6O,3,4
109,3,object_02,object_05,706.09999996424,5,2,326.39999997616,0.4444444444444444,1,object_09,1,1551,0,4,2,library_8,1,memory-2step-stake-s,602,1632621,0.0-19.0-0.0-0.109,AYDILOZLKOAS8,39O6Z4JLY5DL2UNJ70JKB6RMCJRXVU,3IRIK4HM3E0F6PVH5YKRALM0ND2C6O,6,5
110,2,object_01,object_06,938.19999998808,3,2,669.69999998808,0.2222222222222222,1,object_09,1,1553,0,2,0,forest_4,1,memory-2step-stake-s,603,1640705,0.0-19.0-0.0-0.110,AYDILOZLKOAS8,39O6Z4JLY5DL2UNJ70JKB6RMCJRXVU,3IRIK4HM3E0F6PVH5YKRALM0ND2C6O,4,3
111,1,object_04,object_07,831.19999998808,1,2,680.5,0.0,1,object_09,1,1553,0,0,2,desert_1,1,memory-2step-stake-s,604,1648599,0.0-19.0-0.0-0.111,AYDILOZLKOAS8,39O6Z4JLY5DL2UNJ70JKB6RMCJRXVU,3IRIK4HM3E0F6PVH5YKRALM0ND2C6O,2,1
112,2,object_01,object_06,289.0,4,1,11.800000011921,0.4444444444444444,2,object_08,1,1557,0,1,4,forest_5,1,memory-2step-stake-s,605,1656226,0.0-19.0-0.0-0.112,AYDILOZLKOAS8,39O6Z4JLY5DL2UNJ70JKB6RMCJRXVU,3IRIK4HM3E0F6PVH5YKRALM0ND2C6O,4,3
113,2,object_01,object_06,557.30000001192,3,2,296.69999998808,0.2222222222222222,1,object_09,5,1567,0,2,2,forest_5,1,memory-2step-stake-s,606,1663937,0.0-19.0-0.0-0.113,AYDILOZLKOAS8,39O6Z4JLY5DL2UNJ70JKB6RMCJRXVU,3IRIK4HM3E0F6PVH5YKRALM0ND2C6O,4,3
114,2,object_01,object_06,374.79999995232,3,2,42.5,0.3333333333333333,1,object_09,1,1570,0,3,3,forest_5,1,memory-2step-stake-s,607,1671494,0.0-19.0-0.0-0.114,AYDILOZLKOAS8,39O6Z4JLY5DL2UNJ70JKB6RMCJRXVU,3IRIK4HM3E0F6PVH5YKRALM0ND2C6O,4,3
115,3,object_02,object_05,634.0,5,2,381.0,0.5555555555555556,1,object_09,1,1575,0,5,1,library_8,1,memory-2step-stake-s,608,1679593,0.0-19.0-0.0-0.115,AYDILOZLKOAS8,39O6Z4JLY5DL2UNJ70JKB6RMCJRXVU,3IRIK4HM3E0F6PVH5YKRALM0ND2C6O,6,5
116,2,object_06,object_01,550.90000003576,3,1,473.10000002384,0.5555555555555556,1,object_09,1,1580,0,5,2,forest_5,1,memory-2step-stake-s,609,1687784,0.0-19.0-0.0-0.116,AYDILOZLKOAS8,39O6Z4JLY5DL2UNJ70JKB6RMCJRXVU,3IRIK4HM3E0F6PVH5YKRALM0ND2C6O,3,4
117,3,object_02,object_05,551.60000002384,5,2,403.39999997616,0.6666666666666666,1,object_09,5,1610,0,6,2,library_5,1,memory-2step-stake-s,610,1696007,0.0-19.0-0.0-0.117,AYDILOZLKOAS8,39O6Z4JLY5DL2UNJ70JKB6RMCJRXVU,3IRIK4HM3E0F6PVH5YKRALM0ND2C6O,6,5
118,4,object_03,object_10,688.30000001192,7,1,1157.0,1.0,1,object_09,5,1655,0,9,3,restaurant_3,1,memory-2step-stake-s,611,1705284,0.0-19.0-0.0-0.118,AYDILOZLKOAS8,39O6Z4JLY5DL2UNJ70JKB6RMCJRXVU,3IRIK4HM3E0F6PVH5YKRALM0ND2C6O,7,8
119,1,object_04,object_07,662.60000002384,1,2,385.59999996424,0.8888888888888888,1,object_09,5,1695,0,8,3,desert_7,1,memory-2step-stake-s,612,1713696,0.0-19.0-0.0-0.119,AYDILOZLKOAS8,39O6Z4JLY5DL2UNJ70JKB6RMCJRXVU,3IRIK4HM3E0F6PVH5YKRALM0ND2C6O,2,1
120,1,object_04,object_07,559.19999998808,1,2,234.10000002384,1.0,1,object_09,1,1704,0,9,1,desert_7,1,memory-2step-stake-s,613,1722053,0.0-19.0-0.0-0.120,AYDILOZLKOAS8,39O6Z4JLY5DL2UNJ70JKB6RMCJRXVU,3IRIK4HM3E0F6PVH5YKRALM0ND2C6O,2,1
121,1,object_07,object_04,649.5,1,1,381.80000001192,0.8888888888888888,1,object_09,1,1712,0,8,1,desert_3,1,memory-2step-stake-s,614,1730455,0.0-19.0-0.0-0.121,AYDILOZLKOAS8,39O6Z4JLY5DL2UNJ70JKB6RMCJRXVU,3IRIK4HM3E0F6PVH5YKRALM0ND2C6O,1,2
122,4,object_10,object_03,759.60000002384,8,1,266.70000004768,0.4444444444444444,2,object_08,1,1716,0,8,4,restaurant_4,1,memory-2step-stake-s,615,1738339,0.0-19.0-0.0-0.122,AYDILOZLKOAS8,39O6Z4JLY5DL2UNJ70JKB6RMCJRXVU,3IRIK4HM3E0F6PVH5YKRALM0ND2C6O,8,7
123,2,object_06,object_01,849.59999996424,3,1,348.69999998808,0.7777777777777778,1,object_09,1,1723,0,7,4,forest_1,1,memory-2step-stake-s,616,1746611,0.0-19.0-0.0-0.123,AYDILOZLKOAS8,39O6Z4JLY5DL2UNJ70JKB6RMCJRXVU,3IRIK4HM3E0F6PVH5YKRALM0ND2C6O,3,4
124,3,object_05,object_02,948.89999997616,5,1,286.59999996424,0.5555555555555556,1,object_09,5,1748,0,5,5,library_1,1,memory-2step-stake-s,617,1754617,0.0-19.0-0.0-0.124,AYDILOZLKOAS8,39O6Z4JLY5DL2UNJ70JKB6RMCJRXVU,3IRIK4HM3E0F6PVH5YKRALM0ND2C6O,5,6
125,3,object_02,object_05,558.69999998808,5,2,306.10000002384,0.5555555555555556,1,object_09,5,1773,0,5,5,library_1,1,memory-2step-stake-s,618,1762641,0.0-19.0-0.0-0.125,AYDILOZLKOAS8,39O6Z4JLY5DL2UNJ70JKB6RMCJRXVU,3IRIK4HM3E0F6PVH5YKRALM0ND2C6O,6,5
126,1,object_04,object_07,597.89999997616,1,2,329.39999997616,0.5555555555555556,1,object_09,1,1778,0,5,5,desert_1,1,memory-2step-stake-s,619,1770689,0.0-19.0-0.0-0.126,AYDILOZLKOAS8,39O6Z4JLY5DL2UNJ70JKB6RMCJRXVU,3IRIK4HM3E0F6PVH5YKRALM0ND2C6O,2,1
127,1,object_07,object_04,654.5,1,1,513.0,0.3333333333333333,1,object_09,5,1793,0,3,3,desert_3,1,memory-2step-stake-s,620,1778718,0.0-19.0-0.0-0.127,AYDILOZLKOAS8,39O6Z4JLY5DL2UNJ70JKB6RMCJRXVU,3IRIK4HM3E0F6PVH5YKRALM0ND2C6O,1,2
128,1,object_07,object_04,839.39999997616,1,1,355.0,0.7777777777777778,1,object_09,5,1828,0,7,1,desert_5,1,memory-2step-stake-s,622,1883371,0.0-19.0-0.1-0.128,AYDILOZLKOAS8,39O6Z4JLY5DL2UNJ70JKB6RMCJRXVU,3IRIK4HM3E0F6PVH5YKRALM0ND2C6O,1,2
129,2,object_06,object_01,875.30000001192,3,1,286.39999997616,0.4444444444444444,1,object_09,1,1832,0,4,2,forest_1,1,memory-2step-stake-s,623,1891277,0.0-19.0-0.1-0.129,AYDILOZLKOAS8,39O6Z4JLY5DL2UNJ70JKB6RMCJRXVU,3IRIK4HM3E0F6PVH5YKRALM0ND2C6O,3,4
130,1,object_04,object_07,978.0,2,1,340.60000002384,0.0,2,object_08,1,1832,0,8,0,desert_5,1,memory-2step-stake-s,624,1898831,0.0-19.0-0.1-0.130,AYDILOZLKOAS8,39O6Z4JLY5DL2UNJ70JKB6RMCJRXVU,3IRIK4HM3E0F6PVH5YKRALM0ND2C6O,2,1
131,4,object_03,object_10,951.30000001192,7,1,243.90000003576,0.8888888888888888,1,object_09,5,1872,0,8,3,restaurant_5,1,memory-2step-stake-s,625,1907096,0.0-19.0-0.1-0.131,AYDILOZLKOAS8,39O6Z4JLY5DL2UNJ70JKB6RMCJRXVU,3IRIK4HM3E0F6PVH5YKRALM0ND2C6O,7,8
132,4,object_10,object_03,630.5,7,2,266.09999996424,0.7777777777777778,1,object_09,5,1907,0,7,1,restaurant_4,1,memory-2step-stake-s,626,1915281,0.0-19.0-0.1-0.132,AYDILOZLKOAS8,39O6Z4JLY5DL2UNJ70JKB6RMCJRXVU,3IRIK4HM3E0F6PVH5YKRALM0ND2C6O,8,7
133,3,object_05,object_02,868.5,6,2,110.40000003576,0.2222222222222222,2,object_08,5,1917,0,6,2,library_8,1,memory-2step-stake-s,627,1922806,0.0-19.0-0.1-0.133,AYDILOZLKOAS8,39O6Z4JLY5DL2UNJ70JKB6RMCJRXVU,3IRIK4HM3E0F6PVH5YKRALM0ND2C6O,5,6
134,4,object_03,object_10,680.19999998808,7,1,309.0,1.0,1,object_09,1,1926,0,9,3,restaurant_5,1,memory-2step-stake-s,628,1931237,0.0-19.0-0.1-0.134,AYDILOZLKOAS8,39O6Z4JLY5DL2UNJ70JKB6RMCJRXVU,3IRIK4HM3E0F6PVH5YKRALM0ND2C6O,7,8
135,3,object_02,object_05,761.5,5,2,341.69999998808,0.8888888888888888,1,object_09,5,1966,0,8,4,library_1,1,memory-2step-stake-s,629,1939602,0.0-19.0-0.1-0.135,AYDILOZLKOAS8,39O6Z4JLY5DL2UNJ70JKB6RMCJRXVU,3IRIK4HM3E0F6PVH5YKRALM0ND2C6O,6,5
136,4,object_03,object_10,676.09999996424,7,1,406.0,0.6666666666666666,1,object_09,5,1996,0,6,4,restaurant_4,1,memory-2step-stake-s,630,1947828,0.0-19.0-0.1-0.136,AYDILOZLKOAS8,39O6Z4JLY5DL2UNJ70JKB6RMCJRXVU,3IRIK4HM3E0F6PVH5YKRALM0ND2C6O,7,8
137,1,object_07,object_04,601.20000004768,1,1,204.59999996424,0.3333333333333333,1,object_09,1,1999,0,3,4,desert_7,1,memory-2step-stake-s,631,1955549,0.0-19.0-0.1-0.137,AYDILOZLKOAS8,39O6Z4JLY5DL2UNJ70JKB6RMCJRXVU,3IRIK4HM3E0F6PVH5YKRALM0ND2C6O,1,2
138,4,object_03,object_10,602.0,7,1,332.60000002384,0.2222222222222222,1,object_09,1,2001,0,2,5,restaurant_5,1,memory-2step-stake-s,632,1963295,0.0-19.0-0.1-0.138,AYDILOZLKOAS8,39O6Z4JLY5DL2UNJ70JKB6RMCJRXVU,3IRIK4HM3E0F6PVH5YKRALM0ND2C6O,7,8
139,1,object_04,object_07,774.0,1,2,375.60000002384,0.0,1,object_09,5,2001,0,0,8,desert_3,1,memory-2step-stake-s,633,1970888,0.0-19.0-0.1-0.139,AYDILOZLKOAS8,39O6Z4JLY5DL2UNJ70JKB6RMCJRXVU,3IRIK4HM3E0F6PVH5YKRALM0ND2C6O,2,1
140,3,object_02,object_05,637.60000002384,5,2,328.5,0.3333333333333333,1,object_09,5,2016,0,3,7,library_1,1,memory-2step-stake-s,634,1978734,0.0-19.0-0.1-0.140,AYDILOZLKOAS8,39O6Z4JLY5DL2UNJ70JKB6RMCJRXVU,3IRIK4HM3E0F6PVH5YKRALM0ND2C6O,6,5
141,1,object_07,object_04,543.10000002384,1,1,507.09999996424,0.0,1,object_09,5,2016,0,0,7,desert_3,1,memory-2step-stake-s,635,1986454,0.0-19.0-0.1-0.141,AYDILOZLKOAS8,39O6Z4JLY5DL2UNJ70JKB6RMCJRXVU,3IRIK4HM3E0F6PVH5YKRALM0ND2C6O,1,2
142,4,object_03,object_10,504.10000002384,8,2,339.39999997616,1.0,2,object_08,5,2061,0,1,9,restaurant_5,1,memory-2step-stake-s,636,1994917,0.0-19.0-0.1-0.142,AYDILOZLKOAS8,39O6Z4JLY5DL2UNJ70JKB6RMCJRXVU,3IRIK4HM3E0F6PVH5YKRALM0ND2C6O,7,8
143,3,object_05,object_02,992.89999997616,6,2,219.39999997616,0.6666666666666666,2,object_08,1,2067,0,3,6,library_8,1,memory-2step-stake-s,637,2002956,0.0-19.0-0.1-0.143,AYDILOZLKOAS8,39O6Z4JLY5DL2UNJ70JKB6RMCJRXVU,3IRIK4HM3E0F6PVH5YKRALM0ND2C6O,5,6
144,2,object_06,object_01,857.30000001192,4,2,68.300000011921,0.7777777777777778,2,object_08,5,2102,0,0,7,forest_1,1,memory-2step-stake-s,638,2010945,0.0-19.0-0.1-0.144,AYDILOZLKOAS8,39O6Z4JLY5DL2UNJ70JKB6RMCJRXVU,3IRIK4HM3E0F6PVH5YKRALM0ND2C6O,3,4
145,3,object_02,object_05,932.59999996424,6,1,343.5,1.0,2,object_08,1,2111,0,4,9,library_8,1,memory-2step-stake-s,639,2019411,0.0-19.0-0.1-0.145,AYDILOZLKOAS8,39O6Z4JLY5DL2UNJ70JKB6RMCJRXVU,3IRIK4HM3E0F6PVH5YKRALM0ND2C6O,6,5
146,1,object_04,object_07,969.60000002384,2,1,219.90000003576,0.7777777777777778,2,object_08,5,2146,0,2,7,desert_3,1,memory-2step-stake-s,640,2027554,0.0-19.0-0.1-0.146,AYDILOZLKOAS8,39O6Z4JLY5DL2UNJ70JKB6RMCJRXVU,3IRIK4HM3E0F6PVH5YKRALM0ND2C6O,2,1
147,1,object_07,object_04,644.89999997616,2,2,136.70000004768,1.0,2,object_08,5,2191,0,1,9,desert_7,1,memory-2step-stake-s,641,2035813,0.0-19.0-0.1-0.147,AYDILOZLKOAS8,39O6Z4JLY5DL2UNJ70JKB6RMCJRXVU,3IRIK4HM3E0F6PVH5YKRALM0ND2C6O,1,2
148,2,object_01,object_06,1066.3999999762,4,1,277.80000001192,0.8888888888888888,2,object_08,5,2231,0,3,8,forest_4,1,memory-2step-stake-s,642,2044113,0.0-19.0-0.1-0.148,AYDILOZLKOAS8,39O6Z4JLY5DL2UNJ70JKB6RMCJRXVU,3IRIK4HM3E0F6PVH5YKRALM0ND2C6O,4,3
149,2,object_01,object_06,965.69999998808,4,1,176.40000003576,1.0,2,object_08,1,2240,0,1,9,forest_1,1,memory-2step-stake-s,643,2052411,0.0-19.0-0.1-0.149,AYDILOZLKOAS8,39O6Z4JLY5DL2UNJ70JKB6RMCJRXVU,3IRIK4HM3E0F6PVH5YKRALM0ND2C6O,4,3
150,3,object_02,object_05,787.09999996424,6,1,95.600000023842,0.7777777777777778,2,object_08,5,2275,0,1,7,library_1,1,memory-2step-stake-s,644,2060424,0.0-19.0-0.1-0.150,AYDILOZLKOAS8,39O6Z4JLY5DL2UNJ70JKB6RMCJRXVU,3IRIK4HM3E0F6PVH5YKRALM0ND2C6O,6,5
151,1,object_04,object_07,798.80000001192,1,2,1042.5,0.2222222222222222,1,object_09,1,2277,0,2,3,desert_3,1,memory-2step-stake-s,645,2068879,0.0-19.0-0.1-0.151,AYDILOZLKOAS8,39O6Z4JLY5DL2UNJ70JKB6RMCJRXVU,3IRIK4HM3E0F6PVH5YKRALM0ND2C6O,2,1
152,3,object_02,object_05,695.19999998808,6,1,171.5,0.2222222222222222,2,object_08,5,2287,0,2,2,library_1,1,memory-2step-stake-s,646,2076465,0.0-19.0-0.1-0.152,AYDILOZLKOAS8,39O6Z4JLY5DL2UNJ70JKB6RMCJRXVU,3IRIK4HM3E0F6PVH5YKRALM0ND2C6O,6,5
153,4,object_10,object_03,918.39999997616,8,1,241.89999997616,0.3333333333333333,2,object_08,5,2302,0,3,3,restaurant_3,1,memory-2step-stake-s,647,2084221,0.0-19.0-0.1-0.153,AYDILOZLKOAS8,39O6Z4JLY5DL2UNJ70JKB6RMCJRXVU,3IRIK4HM3E0F6PVH5YKRALM0ND2C6O,8,7
154,4,object_10,object_03,593.30000001192,7,2,341.10000002384,0.2222222222222222,1,object_09,5,2312,0,2,4,restaurant_4,1,memory-2step-stake-s,648,2091977,0.0-19.0-0.1-0.154,AYDILOZLKOAS8,39O6Z4JLY5DL2UNJ70JKB6RMCJRXVU,3IRIK4HM3E0F6PVH5YKRALM0ND2C6O,8,7
155,2,object_06,object_01,542.19999998808,3,1,58.400000035763,0.4444444444444444,1,object_09,1,2316,0,4,5,forest_5,1,memory-2step-stake-s,649,2099649,0.0-19.0-0.1-0.155,AYDILOZLKOAS8,39O6Z4JLY5DL2UNJ70JKB6RMCJRXVU,3IRIK4HM3E0F6PVH5YKRALM0ND2C6O,3,4
156,3,object_05,object_02,784.20000004768,6,2,164.0,0.5555555555555556,2,object_08,5,2341,0,3,5,library_1,1,memory-2step-stake-s,650,2107544,0.0-19.0-0.1-0.156,AYDILOZLKOAS8,39O6Z4JLY5DL2UNJ70JKB6RMCJRXVU,3IRIK4HM3E0F6PVH5YKRALM0ND2C6O,5,6
157,1,object_07,object_04,582.80000001192,1,1,249.79999995232,0.5555555555555556,1,object_09,5,2366,0,5,5,desert_7,1,memory-2step-stake-s,651,2115513,0.0-19.0-0.1-0.157,AYDILOZLKOAS8,39O6Z4JLY5DL2UNJ70JKB6RMCJRXVU,3IRIK4HM3E0F6PVH5YKRALM0ND2C6O,1,2
158,4,object_10,object_03,781.79999995232,8,1,143.89999997616,0.5555555555555556,2,object_08,5,2391,0,9,5,restaurant_4,1,memory-2step-stake-s,652,2123378,0.0-19.0-0.1-0.158,AYDILOZLKOAS8,39O6Z4JLY5DL2UNJ70JKB6RMCJRXVU,3IRIK4HM3E0F6PVH5YKRALM0ND2C6O,8,7
159,4,object_03,object_10,635.0,7,1,341.5,0.5555555555555556,1,object_09,5,2416,0,5,7,restaurant_1,1,memory-2step-stake-s,653,2131440,0.0-19.0-0.1-0.159,AYDILOZLKOAS8,39O6Z4JLY5DL2UNJ70JKB6RMCJRXVU,3IRIK4HM3E0F6PVH5YKRALM0ND2C6O,7,8
160,2,object_01,object_06,501.09999996424,4,1,369.19999998808,0.8888888888888888,2,object_08,5,2456,0,4,8,forest_1,1,memory-2step-stake-s,654,2139830,0.0-19.0-0.1-0.160,AYDILOZLKOAS8,39O6Z4JLY5DL2UNJ70JKB6RMCJRXVU,3IRIK4HM3E0F6PVH5YKRALM0ND2C6O,4,3
161,2,object_01,object_06,615.89999997616,4,1,89.900000035763,0.6666666666666666,2,object_08,1,2462,0,3,6,forest_1,1,memory-2step-stake-s,655,2147741,0.0-19.0-0.1-0.161,AYDILOZLKOAS8,39O6Z4JLY5DL2UNJ70JKB6RMCJRXVU,3IRIK4HM3E0F6PVH5YKRALM0ND2C6O,4,3
162,4,object_10,object_03,521.80000001192,8,1,164.09999996424,0.8888888888888888,2,object_08,1,2470,0,4,8,restaurant_1,1,memory-2step-stake-s,656,2155925,0.0-19.0-0.1-0.162,AYDILOZLKOAS8,39O6Z4JLY5DL2UNJ70JKB6RMCJRXVU,3IRIK4HM3E0F6PVH5YKRALM0ND2C6O,8,7
163,2,object_06,object_01,922.90000003576,4,2,373.89999997616,0.7777777777777778,2,object_08,1,2477,0,5,7,forest_3,1,memory-2step-stake-s,657,2164227,0.0-19.0-0.1-0.163,AYDILOZLKOAS8,39O6Z4JLY5DL2UNJ70JKB6RMCJRXVU,3IRIK4HM3E0F6PVH5YKRALM0ND2C6O,3,4
164,1,object_04,object_07,1034.8999999762,2,1,294.0,0.6666666666666666,2,object_08,1,2483,0,3,6,desert_3,1,memory-2step-stake-s,658,2172341,0.0-19.0-0.1-0.164,AYDILOZLKOAS8,39O6Z4JLY5DL2UNJ70JKB6RMCJRXVU,3IRIK4HM3E0F6PVH5YKRALM0ND2C6O,2,1
165,4,object_10,object_03,585.29999995232,7,2,429.79999995232,0.4444444444444444,1,object_09,5,2503,0,4,7,restaurant_4,1,memory-2step-stake-s,659,2180390,0.0-19.0-0.1-0.165,AYDILOZLKOAS8,39O6Z4JLY5DL2UNJ70JKB6RMCJRXVU,3IRIK4HM3E0F6PVH5YKRALM0ND2C6O,8,7
166,3,object_05,object_02,510.80000001192,5,1,209.30000001192,0.5555555555555556,1,object_09,5,2528,0,5,4,library_5,1,memory-2step-stake-s,660,2188319,0.0-19.0-0.1-0.166,AYDILOZLKOAS8,39O6Z4JLY5DL2UNJ70JKB6RMCJRXVU,3IRIK4HM3E0F6PVH5YKRALM0ND2C6O,5,6
167,3,object_05,object_02,775.30000001192,6,2,178.0,0.2222222222222222,2,object_08,1,2530,0,5,2,library_2,1,memory-2step-stake-s,661,2195912,0.0-19.0-0.1-0.167,AYDILOZLKOAS8,39O6Z4JLY5DL2UNJ70JKB6RMCJRXVU,3IRIK4HM3E0F6PVH5YKRALM0ND2C6O,5,6
168,4,object_03,object_10,716.60000002384,7,1,319.40000003576,0.5555555555555556,1,object_09,5,2555,0,5,0,restaurant_1,1,memory-2step-stake-s,662,2203953,0.0-19.0-0.1-0.168,AYDILOZLKOAS8,39O6Z4JLY5DL2UNJ70JKB6RMCJRXVU,3IRIK4HM3E0F6PVH5YKRALM0ND2C6O,7,8
169,3,object_05,object_02,692.0,6,2,319.39999997616,0.5555555555555556,2,object_08,5,2580,0,5,5,library_8,1,memory-2step-stake-s,663,2211993,0.0-19.0-0.1-0.169,AYDILOZLKOAS8,39O6Z4JLY5DL2UNJ70JKB6RMCJRXVU,3IRIK4HM3E0F6PVH5YKRALM0ND2C6O,5,6
170,4,object_10,object_03,786.80000001192,8,1,260.10000002384,0.4444444444444444,2,object_08,5,2600,0,3,4,restaurant_4,1,memory-2step-stake-s,664,2219873,0.0-19.0-0.1-0.170,AYDILOZLKOAS8,39O6Z4JLY5DL2UNJ70JKB6RMCJRXVU,3IRIK4HM3E0F6PVH5YKRALM0ND2C6O,8,7
171,1,object_07,object_04,822.0,2,2,184.59999996424,0.2222222222222222,2,object_08,5,2610,0,5,2,desert_1,1,memory-2step-stake-s,665,2227473,0.0-19.0-0.1-0.171,AYDILOZLKOAS8,39O6Z4JLY5DL2UNJ70JKB6RMCJRXVU,3IRIK4HM3E0F6PVH5YKRALM0ND2C6O,1,2
172,4,object_10,object_03,781.40000003576,7,2,143.30000001192,0.7777777777777778,1,object_09,5,2645,0,7,0,restaurant_5,1,memory-2step-stake-s,666,2235538,0.0-19.0-0.1-0.172,AYDILOZLKOAS8,39O6Z4JLY5DL2UNJ70JKB6RMCJRXVU,3IRIK4HM3E0F6PVH5YKRALM0ND2C6O,8,7
173,2,object_01,object_06,652.30000001192,4,1,295.79999995232,0.0,2,object_08,1,2645,0,5,0,forest_5,1,memory-2step-stake-s,667,2243047,0.0-19.0-0.1-0.173,AYDILOZLKOAS8,39O6Z4JLY5DL2UNJ70JKB6RMCJRXVU,3IRIK4HM3E0F6PVH5YKRALM0ND2C6O,4,3
174,3,object_02,object_05,1062.5999999642,6,1,240.90000003576,0.2222222222222222,2,object_08,5,2655,0,2,2,library_1,1,memory-2step-stake-s,668,2250703,0.0-19.0-0.1-0.174,AYDILOZLKOAS8,39O6Z4JLY5DL2UNJ70JKB6RMCJRXVU,3IRIK4HM3E0F6PVH5YKRALM0ND2C6O,6,5
175,1,object_07,object_04,597.69999998808,2,2,72.600000023842,0.1111111111111111,2,object_08,1,2656,0,1,1,desert_3,1,memory-2step-stake-s,669,2258090,0.0-19.0-0.1-0.175,AYDILOZLKOAS8,39O6Z4JLY5DL2UNJ70JKB6RMCJRXVU,3IRIK4HM3E0F6PVH5YKRALM0ND2C6O,1,2
176,3,object_02,object_05,580.10000002384,6,1,135.09999996424,0.0,2,object_08,1,2656,0,4,0,library_1,1,memory-2step-stake-s,670,2265437,0.0-19.0-0.1-0.176,AYDILOZLKOAS8,39O6Z4JLY5DL2UNJ70JKB6RMCJRXVU,3IRIK4HM3E0F6PVH5YKRALM0ND2C6O,6,5
177,1,object_07,object_04,736.5,2,2,475.89999997616,0.1111111111111111,2,object_08,1,2657,0,6,1,desert_5,1,memory-2step-stake-s,671,2273227,0.0-19.0-0.1-0.177,AYDILOZLKOAS8,39O6Z4JLY5DL2UNJ70JKB6RMCJRXVU,3IRIK4HM3E0F6PVH5YKRALM0ND2C6O,1,2
178,4,object_10,object_03,650.19999998808,7,2,182.69999998808,0.8888888888888888,1,object_09,5,2697,0,8,3,restaurant_5,1,memory-2step-stake-s,672,2281429,0.0-19.0-0.1-0.178,AYDILOZLKOAS8,39O6Z4JLY5DL2UNJ70JKB6RMCJRXVU,3IRIK4HM3E0F6PVH5YKRALM0ND2C6O,8,7
179,2,object_06,object_01,1015.5,3,1,313.39999997616,0.8888888888888888,1,object_09,1,2705,0,8,2,forest_1,1,memory-2step-stake-s,673,2289765,0.0-19.0-0.1-0.179,AYDILOZLKOAS8,39O6Z4JLY5DL2UNJ70JKB6RMCJRXVU,3IRIK4HM3E0F6PVH5YKRALM0ND2C6O,3,4
180,2,object_01,object_06,678.89999997616,3,2,329.19999998808,0.8888888888888888,1,object_09,1,2713,0,8,0,forest_4,1,memory-2step-stake-s,674,2298119,0.0-19.0-0.1-0.180,AYDILOZLKOAS8,39O6Z4JLY5DL2UNJ70JKB6RMCJRXVU,3IRIK4HM3E0F6PVH5YKRALM0ND2C6O,4,3
181,3,object_02,object_05,902.19999998808,5,2,378.89999997616,0.6666666666666666,1,object_09,5,2743,0,6,2,library_1,1,memory-2step-stake-s,675,2306318,0.0-19.0-0.1-0.181,AYDILOZLKOAS8,39O6Z4JLY5DL2UNJ70JKB6RMCJRXVU,3IRIK4HM3E0F6PVH5YKRALM0ND2C6O,6,5
182,2,object_01,object_06,735.80000001192,3,2,1160.5,0.4444444444444444,1,object_09,1,2747,0,4,2,forest_4,1,memory-2step-stake-s,676,2315095,0.0-19.0-0.1-0.182,AYDILOZLKOAS8,39O6Z4JLY5DL2UNJ70JKB6RMCJRXVU,3IRIK4HM3E0F6PVH5YKRALM0ND2C6O,4,3
183,3,object_05,object_02,302.69999998808,5,1,152.5,0.1111111111111111,1,object_09,5,2752,0,1,3,library_2,1,memory-2step-stake-s,677,2322561,0.0-19.0-0.1-0.183,AYDILOZLKOAS8,39O6Z4JLY5DL2UNJ70JKB6RMCJRXVU,3IRIK4HM3E0F6PVH5YKRALM0ND2C6O,5,6
184,1,object_07,object_04,883.40000003576,1,1,294.5,0.0,1,object_09,1,2752,0,0,5,desert_5,1,memory-2step-stake-s,678,2330069,0.0-19.0-0.1-0.184,AYDILOZLKOAS8,39O6Z4JLY5DL2UNJ70JKB6RMCJRXVU,3IRIK4HM3E0F6PVH5YKRALM0ND2C6O,1,2
185,3,object_02,object_05,760.40000003576,6,1,507.5,0.6666666666666666,2,object_08,5,2782,0,1,6,library_1,1,memory-2step-stake-s,679,2338396,0.0-19.0-0.1-0.185,AYDILOZLKOAS8,39O6Z4JLY5DL2UNJ70JKB6RMCJRXVU,3IRIK4HM3E0F6PVH5YKRALM0ND2C6O,6,5
186,3,object_02,object_05,610.59999996424,5,2,292.10000002384,0.1111111111111111,1,object_09,5,2787,0,1,8,library_1,1,memory-2step-stake-s,680,2346002,0.0-19.0-0.1-0.186,AYDILOZLKOAS8,39O6Z4JLY5DL2UNJ70JKB6RMCJRXVU,3IRIK4HM3E0F6PVH5YKRALM0ND2C6O,6,5
187,2,object_06,object_01,860.60000002384,3,1,32.400000035763,0.2222222222222222,1,object_09,5,2797,0,2,9,forest_4,1,memory-2step-stake-s,681,2353446,0.0-19.0-0.1-0.187,AYDILOZLKOAS8,39O6Z4JLY5DL2UNJ70JKB6RMCJRXVU,3IRIK4HM3E0F6PVH5YKRALM0ND2C6O,3,4
188,2,object_01,object_06,615.5,3,2,323.30000001192,0.1111111111111111,1,object_09,1,2798,0,1,7,forest_5,1,memory-2step-stake-s,682,2361084,0.0-19.0-0.1-0.188,AYDILOZLKOAS8,39O6Z4JLY5DL2UNJ70JKB6RMCJRXVU,3IRIK4HM3E0F6PVH5YKRALM0ND2C6O,4,3
189,1,object_07,object_04,658.70000004768,1,1,301.70000004768,0.1111111111111111,1,object_09,1,2799,0,1,9,desert_5,1,memory-2step-stake-s,683,2368699,0.0-19.0-0.1-0.189,AYDILOZLKOAS8,39O6Z4JLY5DL2UNJ70JKB6RMCJRXVU,3IRIK4HM3E0F6PVH5YKRALM0ND2C6O,1,2
190,2,object_06,object_01,627.19999998808,3,1,158.69999998808,0.1111111111111111,1,object_09,1,2800,0,1,9,forest_1,1,memory-2step-stake-s,684,2376170,0.0-19.0-0.1-0.190,AYDILOZLKOAS8,39O6Z4JLY5DL2UNJ70JKB6RMCJRXVU,3IRIK4HM3E0F6PVH5YKRALM0ND2C6O,3,4
191,1,object_04,object_07,853.5,2,1,336.5,0.8888888888888888,2,object_08,1,2808,0,4,8,desert_3,1,memory-2step-stake-s,685,2384527,0.0-19.0-0.1-0.191,AYDILOZLKOAS8,39O6Z4JLY5DL2UNJ70JKB6RMCJRXVU,3IRIK4HM3E0F6PVH5YKRALM0ND2C6O,2,1
192,1,object_04,object_07,726.09999996424,2,1,170.19999998808,0.8888888888888888,2,object_08,1,2816,0,4,8,desert_3,1,memory-2step-stake-s,686,2392718,0.0-19.0-0.1-0.192,AYDILOZLKOAS8,39O6Z4JLY5DL2UNJ70JKB6RMCJRXVU,3IRIK4HM3E0F6PVH5YKRALM0ND2C6O,2,1
193,2,object_06,object_01,736.60000002384,3,1,227.60000002384,0.3333333333333333,1,object_09,1,2819,0,3,4,forest_4,1,memory-2step-stake-s,687,2400462,0.0-19.0-0.1-0.193,AYDILOZLKOAS8,39O6Z4JLY5DL2UNJ70JKB6RMCJRXVU,3IRIK4HM3E0F6PVH5YKRALM0ND2C6O,3,4
194,3,object_02,object_05,1168.2999999523,5,2,419.89999997616,0.3333333333333333,1,object_09,5,2834,0,3,2,library_5,1,memory-2step-stake-s,688,2408396,0.0-19.0-0.1-0.194,AYDILOZLKOAS8,39O6Z4JLY5DL2UNJ70JKB6RMCJRXVU,3IRIK4HM3E0F6PVH5YKRALM0ND2C6O,6,5
195,2,object_06,object_01,640.89999997616,3,1,-1.0,0.0,1,object_09,1,2834,0,5,0,forest_5,1,memory-2step-stake-s,689,2416908,0.0-19.0-0.1-0.195,AYDILOZLKOAS8,39O6Z4JLY5DL2UNJ70JKB6RMCJRXVU,3IRIK4HM3E0F6PVH5YKRALM0ND2C6O,3,4
196,3,object_05,object_02,848.80000001192,5,1,300.60000002384,0.1111111111111111,1,object_09,5,2839,0,1,2,library_5,1,memory-2step-stake-s,690,2424522,0.0-19.0-0.1-0.196,AYDILOZLKOAS8,39O6Z4JLY5DL2UNJ70JKB6RMCJRXVU,3IRIK4HM3E0F6PVH5YKRALM0ND2C6O,5,6
197,3,object_05,object_02,841.89999997616,5,1,324.0,0.0,1,object_09,5,2839,0,0,3,library_5,1,memory-2step-stake-s,691,2432062,0.0-19.0-0.1-0.197,AYDILOZLKOAS8,39O6Z4JLY5DL2UNJ70JKB6RMCJRXVU,3IRIK4HM3E0F6PVH5YKRALM0ND2C6O,5,6
198,2,object_01,object_06,711.0,3,2,17.5,0.1111111111111111,1,object_09,1,2840,0,1,2,forest_3,1,memory-2step-stake-s,692,2439395,0.0-19.0-0.1-0.198,AYDILOZLKOAS8,39O6Z4JLY5DL2UNJ70JKB6RMCJRXVU,3IRIK4HM3E0F6PVH5YKRALM0ND2C6O,4,3
199,3,object_05,object_02,706.69999998808,6,2,301.60000002384,0.3333333333333333,2,object_08,5,2855,0,2,3,library_8,1,memory-2step-stake-s,693,2447213,0.0-19.0-0.1-0.199,AYDILOZLKOAS8,39O6Z4JLY5DL2UNJ70JKB6RMCJRXVU,3IRIK4HM3E0F6PVH5YKRALM0ND2C6O,5,6
200,4,object_03,object_10,1031.3999999762,8,2,339.40000003576,0.4444444444444444,2,object_08,5,2875,0,2,4,restaurant_1,1,memory-2step-stake-s,694,2455169,0.0-19.0-0.1-0.200,AYDILOZLKOAS8,39O6Z4JLY5DL2UNJ70JKB6RMCJRXVU,3IRIK4HM3E0F6PVH5YKRALM0ND2C6O,7,8
201,4,object_03,object_10,1356.1999999881,7,1,343.29999995232,0.0,1,object_09,1,2875,0,0,6,restaurant_4,1,memory-2step-stake-s,695,2462722,0.0-19.0-0.1-0.201,AYDILOZLKOAS8,39O6Z4JLY5DL2UNJ70JKB6RMCJRXVU,3IRIK4HM3E0F6PVH5YKRALM0ND2C6O,7,8
202,3,object_02,object_05,770.69999998808,6,1,182.20000004768,0.7777777777777778,2,object_08,5,2910,0,3,7,library_1,1,memory-2step-stake-s,696,2470825,0.0-19.0-0.1-0.202,AYDILOZLKOAS8,39O6Z4JLY5DL2UNJ70JKB6RMCJRXVU,3IRIK4HM3E0F6PVH5YKRALM0ND2C6O,6,5
203,4,object_03,object_10,899.80000001192,8,2,503.29999995232,0.7777777777777778,2,object_08,5,2945,0,4,7,restaurant_4,1,memory-2step-stake-s,697,2479246,0.0-19.0-0.1-0.203,AYDILOZLKOAS8,39O6Z4JLY5DL2UNJ70JKB6RMCJRXVU,3IRIK4HM3E0F6PVH5YKRALM0ND2C6O,7,8
204,4,object_03,object_10,654.89999997616,8,2,82.399999976158,0.7777777777777778,2,object_08,1,2952,0,5,7,restaurant_5,1,memory-2step-stake-s,698,2487248,0.0-19.0-0.1-0.204,AYDILOZLKOAS8,39O6Z4JLY5DL2UNJ70JKB6RMCJRXVU,3IRIK4HM3E0F6PVH5YKRALM0ND2C6O,7,8
205,2,object_01,object_06,845.20000004768,4,1,65.399999976158,0.7777777777777778,2,object_08,1,2959,0,4,7,forest_3,1,memory-2step-stake-s,699,2495233,0.0-19.0-0.1-0.205,AYDILOZLKOAS8,39O6Z4JLY5DL2UNJ70JKB6RMCJRXVU,3IRIK4HM3E0F6PVH5YKRALM0ND2C6O,4,3
206,4,object_03,object_10,779.69999998808,8,2,78.5,1.0,2,object_08,1,2968,0,4,9,restaurant_4,1,memory-2step-stake-s,700,2503435,0.0-19.0-0.1-0.206,AYDILOZLKOAS8,39O6Z4JLY5DL2UNJ70JKB6RMCJRXVU,3IRIK4HM3E0F6PVH5YKRALM0ND2C6O,7,8
207,2,object_01,object_06,1090.3999999762,4,1,397.69999998808,1.0,2,object_08,1,2977,0,6,9,forest_5,1,memory-2step-stake-s,701,2511957,0.0-19.0-0.1-0.207,AYDILOZLKOAS8,39O6Z4JLY5DL2UNJ70JKB6RMCJRXVU,3IRIK4HM3E0F6PVH5YKRALM0ND2C6O,4,3
208,1,object_07,object_04,823.59999996424,1,1,19.100000023842,0.6666666666666666,1,object_09,1,2983,0,6,8,desert_1,1,memory-2step-stake-s,702,2519794,0.0-19.0-0.1-0.208,AYDILOZLKOAS8,39O6Z4JLY5DL2UNJ70JKB6RMCJRXVU,3IRIK4HM3E0F6PVH5YKRALM0ND2C6O,1,2
209,3,object_02,object_05,795.60000002384,6,1,254.19999998808,0.7777777777777778,2,object_08,5,3018,0,2,7,library_2,1,memory-2step-stake-s,703,2527968,0.0-19.0-0.1-0.209,AYDILOZLKOAS8,39O6Z4JLY5DL2UNJ70JKB6RMCJRXVU,3IRIK4HM3E0F6PVH5YKRALM0ND2C6O,6,5
210,1,object_04,object_07,1004.2999999523,1,2,375.89999997616,0.6666666666666666,1,object_09,5,3048,0,6,4,desert_5,1,memory-2step-stake-s,704,2536164,0.0-19.0-0.1-0.210,AYDILOZLKOAS8,39O6Z4JLY5DL2UNJ70JKB6RMCJRXVU,3IRIK4HM3E0F6PVH5YKRALM0ND2C6O,2,1
211,4,object_03,object_10,744.5,8,2,979.59999996424,0.3333333333333333,2,object_08,1,3051,0,6,3,restaurant_3,1,memory-2step-stake-s,705,2544660,0.0-19.0-0.1-0.211,AYDILOZLKOAS8,39O6Z4JLY5DL2UNJ70JKB6RMCJRXVU,3IRIK4HM3E0F6PVH5YKRALM0ND2C6O,7,8
212,2,object_06,object_01,864.80000001192,4,2,292.79999995232,0.5555555555555556,2,object_08,5,3076,0,4,5,forest_1,1,memory-2step-stake-s,706,2552671,0.0-19.0-0.1-0.212,AYDILOZLKOAS8,39O6Z4JLY5DL2UNJ70JKB6RMCJRXVU,3IRIK4HM3E0F6PVH5YKRALM0ND2C6O,3,4
213,4,object_03,object_10,916.60000002384,8,2,440.0,0.3333333333333333,2,object_08,5,3091,0,8,3,restaurant_5,1,memory-2step-stake-s,707,2560629,0.0-19.0-0.1-0.213,AYDILOZLKOAS8,39O6Z4JLY5DL2UNJ70JKB6RMCJRXVU,3IRIK4HM3E0F6PVH5YKRALM0ND2C6O,7,8
214,3,object_02,object_05,942.80000001192,6,1,248.80000001192,0.2222222222222222,2,object_08,1,3093,0,9,2,library_5,1,memory-2step-stake-s,708,2568293,0.0-19.0-0.1-0.214,AYDILOZLKOAS8,39O6Z4JLY5DL2UNJ70JKB6RMCJRXVU,3IRIK4HM3E0F6PVH5YKRALM0ND2C6O,6,5
215,3,object_05,object_02,751.39999997616,5,1,315.09999996424,0.8888888888888888,1,object_09,1,3101,0,8,1,library_5,1,memory-2step-stake-s,709,2576627,0.0-19.0-0.1-0.215,AYDILOZLKOAS8,39O6Z4JLY5DL2UNJ70JKB6RMCJRXVU,3IRIK4HM3E0F6PVH5YKRALM0ND2C6O,5,6
216,3,object_02,object_05,-1.0,-1,-1,-1.0,0.0,-,0,5,3101,0,9,2,library_8,1,memory-2step-stake-s,710,2583134,0.0-19.0-0.1-0.216,AYDILOZLKOAS8,39O6Z4JLY5DL2UNJ70JKB6RMCJRXVU,3IRIK4HM3E0F6PVH5YKRALM0ND2C6O,6,5
217,2,object_01,object_06,-1.0,-1,-1,-1.0,0.0,-,0,1,3101,0,8,1,forest_3,1,memory-2step-stake-s,711,2589645,0.0-19.0-0.1-0.217,AYDILOZLKOAS8,39O6Z4JLY5DL2UNJ70JKB6RMCJRXVU,3IRIK4HM3E0F6PVH5YKRALM0ND2C6O,4,3
218,2,object_01,object_06,431.19999998808,4,1,314.39999997616,0.3333333333333333,2,object_08,1,3104,0,6,3,forest_4,1,memory-2step-stake-s,712,2597476,0.0-19.0-0.1-0.218,AYDILOZLKOAS8,39O6Z4JLY5DL2UNJ70JKB6RMCJRXVU,3IRIK4HM3E0F6PVH5YKRALM0ND2C6O,4,3
219,3,object_05,object_02,712.60000002384,6,2,298.10000002384,0.7777777777777778,2,object_08,5,3139,0,8,7,library_2,1,memory-2step-stake-s,713,2605697,0.0-19.0-0.1-0.219,AYDILOZLKOAS8,39O6Z4JLY5DL2UNJ70JKB6RMCJRXVU,3IRIK4HM3E0F6PVH5YKRALM0ND2C6O,5,6
220,3,object_05,object_02,669.0,6,2,303.0,0.6666666666666666,2,object_08,5,3169,0,8,6,library_5,1,memory-2step-stake-s,714,2613820,0.0-19.0-0.1-0.220,AYDILOZLKOAS8,39O6Z4JLY5DL2UNJ70JKB6RMCJRXVU,3IRIK4HM3E0F6PVH5YKRALM0ND2C6O,5,6
221,1,object_04,object_07,666.0,2,1,44.200000047684,0.6666666666666666,2,object_08,1,3175,0,8,6,desert_7,1,memory-2step-stake-s,715,2621683,0.0-19.0-0.1-0.221,AYDILOZLKOAS8,39O6Z4JLY5DL2UNJ70JKB6RMCJRXVU,3IRIK4HM3E0F6PVH5YKRALM0ND2C6O,2,1
222,2,object_06,object_01,809.60000002384,4,2,300.69999998808,0.8888888888888888,2,object_08,1,3183,0,9,8,forest_4,1,memory-2step-stake-s,716,2630007,0.0-19.0-0.1-0.222,AYDILOZLKOAS8,39O6Z4JLY5DL2UNJ70JKB6RMCJRXVU,3IRIK4HM3E0F6PVH5YKRALM0ND2C6O,3,4
223,4,object_10,object_03,908.0,8,1,311.30000001192,0.7777777777777778,2,object_08,1,3190,0,7,7,restaurant_3,1,memory-2step-stake-s,717,2638242,0.0-19.0-0.1-0.223,AYDILOZLKOAS8,39O6Z4JLY5DL2UNJ70JKB6RMCJRXVU,3IRIK4HM3E0F6PVH5YKRALM0ND2C6O,8,7
224,4,object_03,object_10,739.19999998808,8,2,334.39999997616,0.2222222222222222,2,object_08,5,3200,0,8,2,restaurant_1,1,memory-2step-stake-s,718,2645989,0.0-19.0-0.1-0.224,AYDILOZLKOAS8,39O6Z4JLY5DL2UNJ70JKB6RMCJRXVU,3IRIK4HM3E0F6PVH5YKRALM0ND2C6O,7,8
225,1,object_07,object_04,910.79999995232,1,1,698.19999998808,0.7777777777777778,1,object_09,1,3207,0,7,1,desert_5,1,memory-2step-stake-s,719,2654610,0.0-19.0-0.1-0.225,AYDILOZLKOAS8,39O6Z4JLY5DL2UNJ70JKB6RMCJRXVU,3IRIK4HM3E0F6PVH5YKRALM0ND2C6O,1,2
226,2,object_01,object_06,611.09999996424,4,1,285.80000001192,0.2222222222222222,2,object_08,1,3209,0,4,2,forest_3,1,memory-2step-stake-s,720,2662309,0.0-19.0-0.1-0.226,AYDILOZLKOAS8,39O6Z4JLY5DL2UNJ70JKB6RMCJRXVU,3IRIK4HM3E0F6PVH5YKRALM0ND2C6O,4,3
227,3,object_05,object_02,1118.9000000358,5,1,233.69999998808,0.6666666666666666,1,object_09,1,3215,0,6,1,library_8,1,memory-2step-stake-s,721,2670364,0.0-19.0-0.1-0.227,AYDILOZLKOAS8,39O6Z4JLY5DL2UNJ70JKB6RMCJRXVU,3IRIK4HM3E0F6PVH5YKRALM0ND2C6O,5,6
228,2,object_06,object_01,816.5,3,1,139.59999996424,0.2222222222222222,1,object_09,5,3225,0,2,2,forest_3,1,memory-2step-stake-s,722,2677918,0.0-19.0-0.1-0.228,AYDILOZLKOAS8,39O6Z4JLY5DL2UNJ70JKB6RMCJRXVU,3IRIK4HM3E0F6PVH5YKRALM0ND2C6O,3,4
229,4,object_10,object_03,389.39999997616,8,1,49.100000023842,0.1111111111111111,2,object_08,5,3230,0,4,1,restaurant_3,1,memory-2step-stake-s,723,2685281,0.0-19.0-0.1-0.229,AYDILOZLKOAS8,39O6Z4JLY5DL2UNJ70JKB6RMCJRXVU,3IRIK4HM3E0F6PVH5YKRALM0ND2C6O,8,7
230,2,object_01,object_06,650.80000001192,3,2,286.39999997616,0.5555555555555556,1,object_09,1,3235,0,5,4,forest_5,1,memory-2step-stake-s,724,2693287,0.0-19.0-0.1-0.230,AYDILOZLKOAS8,39O6Z4JLY5DL2UNJ70JKB6RMCJRXVU,3IRIK4HM3E0F6PVH5YKRALM0ND2C6O,4,3
231,1,object_07,object_04,813.0,1,1,200.19999998808,0.6666666666666666,1,object_09,1,3241,0,6,7,desert_7,1,memory-2step-stake-s,725,2701306,0.0-19.0-0.1-0.231,AYDILOZLKOAS8,39O6Z4JLY5DL2UNJ70JKB6RMCJRXVU,3IRIK4HM3E0F6PVH5YKRALM0ND2C6O,1,2
232,4,object_10,object_03,497.69999998808,8,1,1069.1999999881,0.6666666666666666,2,object_08,5,3271,0,7,6,restaurant_5,1,memory-2step-stake-s,726,2710194,0.0-19.0-0.1-0.232,AYDILOZLKOAS8,39O6Z4JLY5DL2UNJ70JKB6RMCJRXVU,3IRIK4HM3E0F6PVH5YKRALM0ND2C6O,8,7
233,4,object_03,object_10,674.0,7,1,268.19999998808,0.6666666666666666,1,object_09,5,3301,0,6,5,restaurant_4,1,memory-2step-stake-s,727,2718283,0.0-19.0-0.1-0.233,AYDILOZLKOAS8,39O6Z4JLY5DL2UNJ70JKB6RMCJRXVU,3IRIK4HM3E0F6PVH5YKRALM0ND2C6O,7,8
234,1,object_07,object_04,522.0,1,1,317.39999997616,0.5555555555555556,1,object_09,1,3306,0,5,8,desert_1,1,memory-2step-stake-s,728,2726318,0.0-19.0-0.1-0.234,AYDILOZLKOAS8,39O6Z4JLY5DL2UNJ70JKB6RMCJRXVU,3IRIK4HM3E0F6PVH5YKRALM0ND2C6O,1,2
235,4,object_03,object_10,614.0,7,1,736.60000002384,0.5555555555555556,1,object_09,5,3331,0,5,4,restaurant_1,1,memory-2step-stake-s,729,2734775,0.0-19.0-0.1-0.235,AYDILOZLKOAS8,39O6Z4JLY5DL2UNJ70JKB6RMCJRXVU,3IRIK4HM3E0F6PVH5YKRALM0ND2C6O,7,8
236,3,object_02,object_05,774.0,5,2,248.19999998808,0.6666666666666666,1,object_09,5,3361,0,6,2,library_2,1,memory-2step-stake-s,730,2742848,0.0-19.0-0.1-0.236,AYDILOZLKOAS8,39O6Z4JLY5DL2UNJ70JKB6RMCJRXVU,3IRIK4HM3E0F6PVH5YKRALM0ND2C6O,6,5
237,4,object_10,object_03,773.89999997616,7,2,512.5,0.7777777777777778,1,object_09,5,3396,0,7,3,restaurant_1,1,memory-2step-stake-s,731,2751279,0.0-19.0-0.1-0.237,AYDILOZLKOAS8,39O6Z4JLY5DL2UNJ70JKB6RMCJRXVU,3IRIK4HM3E0F6PVH5YKRALM0ND2C6O,8,7
238,2,object_01,object_06,1077.8000000119,4,1,512.10000002384,0.1111111111111111,2,object_08,1,3397,0,9,1,forest_5,1,memory-2step-stake-s,732,2759107,0.0-19.0-0.1-0.238,AYDILOZLKOAS8,39O6Z4JLY5DL2UNJ70JKB6RMCJRXVU,3IRIK4HM3E0F6PVH5YKRALM0ND2C6O,4,3
239,1,object_04,object_07,602.39999997616,1,2,221.80000001192,0.7777777777777778,1,object_09,1,3404,0,7,3,desert_1,1,memory-2step-stake-s,733,2767249,0.0-19.0-0.1-0.239,AYDILOZLKOAS8,39O6Z4JLY5DL2UNJ70JKB6RMCJRXVU,3IRIK4HM3E0F6PVH5YKRALM0ND2C6O,2,1
240,3,object_02,object_05,643.60000002384,5,2,182.80000001192,0.4444444444444444,1,object_09,5,3424,0,4,1,library_5,1,memory-2step-stake-s,734,2775048,0.0-19.0-0.1-0.240,AYDILOZLKOAS8,39O6Z4JLY5DL2UNJ70JKB6RMCJRXVU,3IRIK4HM3E0F6PVH5YKRALM0ND2C6O,6,5
241,1,object_04,object_07,803.60000002384,1,2,422.60000002384,0.3333333333333333,1,object_09,1,3427,0,3,0,desert_3,1,memory-2step-stake-s,735,2782987,0.0-19.0-0.1-0.241,AYDILOZLKOAS8,39O6Z4JLY5DL2UNJ70JKB6RMCJRXVU,3IRIK4HM3E0F6PVH5YKRALM0ND2C6O,2,1
242,4,object_10,object_03,745.5,8,1,316.60000002384,0.0,2,object_08,5,3427,0,0,0,restaurant_1,1,memory-2step-stake-s,736,2790515,0.0-19.0-0.1-0.242,AYDILOZLKOAS8,39O6Z4JLY5DL2UNJ70JKB6RMCJRXVU,3IRIK4HM3E0F6PVH5YKRALM0ND2C6O,8,7
243,3,object_05,object_02,1016.8000000119,5,1,242.69999998808,0.2222222222222222,1,object_09,1,3429,0,2,1,library_2,1,memory-2step-stake-s,737,2798174,0.0-19.0-0.1-0.243,AYDILOZLKOAS8,39O6Z4JLY5DL2UNJ70JKB6RMCJRXVU,3IRIK4HM3E0F6PVH5YKRALM0ND2C6O,5,6
244,1,object_04,object_07,822.29999995232,1,2,370.5,0.2222222222222222,1,object_09,1,3431,0,2,0,desert_1,1,memory-2step-stake-s,738,2805958,0.0-19.0-0.1-0.244,AYDILOZLKOAS8,39O6Z4JLY5DL2UNJ70JKB6RMCJRXVU,3IRIK4HM3E0F6PVH5YKRALM0ND2C6O,2,1
245,2,object_01,object_06,925.89999997616,4,1,383.5,0.2222222222222222,2,object_08,1,3433,0,1,2,forest_5,1,memory-2step-stake-s,739,2813758,0.0-19.0-0.1-0.245,AYDILOZLKOAS8,39O6Z4JLY5DL2UNJ70JKB6RMCJRXVU,3IRIK4HM3E0F6PVH5YKRALM0ND2C6O,4,3
246,2,object_06,object_01,901.5,4,2,392.79999995232,0.1111111111111111,2,object_08,1,3434,0,2,1,forest_3,1,memory-2step-stake-s,740,2821465,0.0-19.0-0.1-0.246,AYDILOZLKOAS8,39O6Z4JLY5DL2UNJ70JKB6RMCJRXVU,3IRIK4HM3E0F6PVH5YKRALM0ND2C6O,3,4
247,2,object_06,object_01,778.60000002384,3,1,389.0,0.6666666666666666,1,object_09,1,3440,0,6,1,forest_1,1,memory-2step-stake-s,741,2829673,0.0-19.0-0.1-0.247,AYDILOZLKOAS8,39O6Z4JLY5DL2UNJ70JKB6RMCJRXVU,3IRIK4HM3E0F6PVH5YKRALM0ND2C6O,3,4
248,1,object_07,object_04,882.60000002384,1,1,573.19999998808,0.7777777777777778,1,object_09,1,3447,0,7,2,desert_7,1,memory-2step-stake-s,742,2838169,0.0-19.0-0.1-0.248,AYDILOZLKOAS8,39O6Z4JLY5DL2UNJ70JKB6RMCJRXVU,3IRIK4HM3E0F6PVH5YKRALM0ND2C6O,1,2
249,1,object_04,object_07,787.40000003576,1,2,306.19999998808,0.7777777777777778,1,object_09,1,3454,0,7,2,desert_7,1,memory-2step-stake-s,743,2846400,0.0-19.0-0.1-0.249,AYDILOZLKOAS8,39O6Z4JLY5DL2UNJ70JKB6RMCJRXVU,3IRIK4HM3E0F6PVH5YKRALM0ND2C6O,2,1
250,4,object_03,object_10,731.19999998808,7,1,294.5,1.0,1,object_09,5,3499,0,9,0,restaurant_3,1,memory-2step-stake-s,744,2854819,0.0-19.0-0.1-0.250,AYDILOZLKOAS8,39O6Z4JLY5DL2UNJ70JKB6RMCJRXVU,3IRIK4HM3E0F6PVH5YKRALM0ND2C6O,7,8
251,4,object_10,object_03,559.59999996424,8,1,338.10000002384,0.1111111111111111,2,object_08,5,3504,0,9,1,restaurant_4,1,memory-2step-stake-s,745,2862473,0.0-19.0-0.1-0.251,AYDILOZLKOAS8,39O6Z4JLY5DL2UNJ70JKB6RMCJRXVU,3IRIK4HM3E0F6PVH5YKRALM0ND2C6O,8,7
252,2,object_01,object_06,899.09999996424,4,1,367.90000003576,0.2222222222222222,2,object_08,1,3506,0,4,2,forest_5,1,memory-2step-stake-s,746,2870255,0.0-19.0-0.1-0.252,AYDILOZLKOAS8,39O6Z4JLY5DL2UNJ70JKB6RMCJRXVU,3IRIK4HM3E0F6PVH5YKRALM0ND2C6O,4,3
253,4,object_03,object_10,612.20000004768,7,1,247.89999997616,0.5555555555555556,1,object_09,5,3531,0,5,4,restaurant_1,1,memory-2step-stake-s,747,2878222,0.0-19.0-0.1-0.253,AYDILOZLKOAS8,39O6Z4JLY5DL2UNJ70JKB6RMCJRXVU,3IRIK4HM3E0F6PVH5YKRALM0ND2C6O,7,8
254,3,object_02,object_05,764.5,5,2,392.30000001192,0.7777777777777778,1,object_09,5,3566,0,7,4,library_1,1,memory-2step-stake-s,748,2886535,0.0-19.0-0.1-0.254,AYDILOZLKOAS8,39O6Z4JLY5DL2UNJ70JKB6RMCJRXVU,3IRIK4HM3E0F6PVH5YKRALM0ND2C6O,6,5
255,1,object_04,object_07,731.80000001192,1,2,270.19999998808,0.7777777777777778,1,object_09,1,3573,0,7,3,desert_7,1,memory-2step-stake-s,749,2894727,0.0-19.0-0.1-0.255,AYDILOZLKOAS8,39O6Z4JLY5DL2UNJ70JKB6RMCJRXVU,3IRIK4HM3E0F6PVH5YKRALM0ND2C6O,2,1
