,state1,stim_left,stim_right,rt_1,choice1,response1,rt_2,points,state2,stim_state2,stake,score,practice,rews1,rews2,background,high_arm,trial_type,trial_index,time_elapsed,internal_node_id,subid,hitid,assignmentid,stim_left_num,stim_right_num
0,4,object_10,object_02,902.70000000298,8,1,-1.0,0.0,2,object_01,1,0,0,4,0,restaurant_3,2,memory-2step-stake-s,488,2586741,0.0-19.0-0.0-0.0,A2WPKP73S4MBLK,30UZJB2PPKSSO21QHKUJ0S8JS3B35M,3TXD01ZLD8XXDW8381CC7TOSZWZ4UM,8,7
1,3,object_06,object_03,1008.0,6,2,-1.0,0.0,2,object_01,1,0,0,5,0,library_6,2,memory-2step-stake-s,489,2595276,0.0-19.0-0.0-0.1,A2WPKP73S4MBLK,30UZJB2PPKSSO21QHKUJ0S8JS3B35M,3TXD01ZLD8XXDW8381CC7TOSZWZ4UM,5,6
2,1,object_09,object_08,1040.5,1,2,-1.0,0.0,1,object_04,5,0,0,7,2,desert_5,2,memory-2step-stake-s,490,2603812,0.0-19.0-0.0-0.2,A2WPKP73S4MBLK,30UZJB2PPKSSO21QHKUJ0S8JS3B35M,3TXD01ZLD8XXDW8381CC7TOSZWZ4UM,2,1
3,3,object_06,object_03,1139.1000000089,5,1,-1.0,0.0,1,object_04,1,0,0,5,1,library_1,2,memory-2step-stake-s,491,2612371,0.0-19.0-0.0-0.3,A2WPKP73S4MBLK,30UZJB2PPKSSO21QHKUJ0S8JS3B35M,3TXD01ZLD8XXDW8381CC7TOSZWZ4UM,5,6
4,2,object_07,object_05,933.19999998808,3,2,-1.0,0.0,1,object_04,5,0,0,6,2,forest_6,2,memory-2step-stake-s,492,2620928,0.0-19.0-0.0-0.4,A2WPKP73S4MBLK,30UZJB2PPKSSO21QHKUJ0S8JS3B35M,3TXD01ZLD8XXDW8381CC7TOSZWZ4UM,4,3
5,1,object_08,object_09,1353.5,1,1,-1.0,0.0,1,object_04,5,0,0,5,1,desert_6,2,memory-2step-stake-s,493,2629482,0.0-19.0-0.0-0.5,A2WPKP73S4MBLK,30UZJB2PPKSSO21QHKUJ0S8JS3B35M,3TXD01ZLD8XXDW8381CC7TOSZWZ4UM,1,2
6,4,object_10,object_02,1064.8000000119,7,2,-1.0,0.0,1,object_04,1,0,0,7,0,restaurant_2,2,memory-2step-stake-s,494,2638033,0.0-19.0-0.0-0.6,A2WPKP73S4MBLK,30UZJB2PPKSSO21QHKUJ0S8JS3B35M,3TXD01ZLD8XXDW8381CC7TOSZWZ4UM,8,7
7,3,object_03,object_06,601.59999999404,6,1,-1.0,0.0,2,object_01,1,0,0,9,1,library_7,2,memory-2step-stake-s,495,2646604,0.0-19.0-0.0-0.7,A2WPKP73S4MBLK,30UZJB2PPKSSO21QHKUJ0S8JS3B35M,3TXD01ZLD8XXDW8381CC7TOSZWZ4UM,6,5
8,2,object_05,object_07,872.09999999404,3,1,-1.0,0.0,1,object_04,5,0,0,8,4,forest_3,2,memory-2step-stake-s,496,2655139,0.0-19.0-0.0-0.8,A2WPKP73S4MBLK,30UZJB2PPKSSO21QHKUJ0S8JS3B35M,3TXD01ZLD8XXDW8381CC7TOSZWZ4UM,3,4
9,3,object_03,object_06,790.90000000596,5,2,-1.0,0.0,1,object_04,1,0,0,8,3,library_6,2,memory-2step-stake-s,497,2663708,0.0-19.0-0.0-0.9,A2WPKP73S4MBLK,30UZJB2PPKSSO21QHKUJ0S8JS3B35M,3TXD01ZLD8XXDW8381CC7TOSZWZ4UM,6,5
10,4,object_10,object_02,1070.799999997,8,1,-1.0,0.0,2,object_01,5,0,0,8,2,restaurant_3,2,memory-2step-stake-s,498,2672276,0.0-19.0-0.0-0.10,A2WPKP73S4MBLK,30UZJB2PPKSSO21QHKUJ0S8JS3B35M,3TXD01ZLD8XXDW8381CC7TOSZWZ4UM,8,7
11,2,object_05,object_07,1140.5,3,1,-1.0,0.0,1,object_04,5,0,0,7,3,forest_6,2,memory-2step-stake-s,499,2680828,0.0-19.0-0.0-0.11,A2WPKP73S4MBLK,30UZJB2PPKSSO21QHKUJ0S8JS3B35M,3TXD01ZLD8XXDW8381CC7TOSZWZ4UM,3,4
12,4,object_10,object_02,350.39999999106,7,2,-1.0,0.0,1,object_04,1,0,0,5,1,restaurant_2,2,memory-2step-stake-s,500,2689375,0.0-19.0-0.0-0.12,A2WPKP73S4MBLK,30UZJB2PPKSSO21QHKUJ0S8JS3B35M,3TXD01ZLD8XXDW8381CC7TOSZWZ4UM,8,7
13,4,object_10,object_02,699.09999999404,8,1,430.60000000894,0.4444444444444444,2,object_01,5,20,0,3,4,restaurant_2,2,memory-2step-stake-s,501,2697505,0.0-19.0-0.0-0.13,A2WPKP73S4MBLK,30UZJB2PPKSSO21QHKUJ0S8JS3B35M,3TXD01ZLD8XXDW8381CC7TOSZWZ4UM,8,7
14,4,object_10,object_02,551.29999999702,8,1,447.69999998808,0.6666666666666666,2,object_01,1,26,0,1,6,restaurant_2,2,memory-2step-stake-s,502,2705833,0.0-19.0-0.0-0.14,A2WPKP73S4MBLK,30UZJB2PPKSSO21QHKUJ0S8JS3B35M,3TXD01ZLD8XXDW8381CC7TOSZWZ4UM,8,7
15,2,object_07,object_05,1146.1999999881,3,2,740.20000000298,0.1111111111111111,1,object_04,5,31,0,1,5,forest_6,2,memory-2step-stake-s,503,2713936,0.0-19.0-0.0-0.15,A2WPKP73S4MBLK,30UZJB2PPKSSO21QHKUJ0S8JS3B35M,3TXD01ZLD8XXDW8381CC7TOSZWZ4UM,4,3
16,2,object_07,object_05,674.29999999702,3,2,698.59999999404,0.1111111111111111,1,object_04,1,32,0,1,6,forest_7,2,memory-2step-stake-s,504,2721990,0.0-19.0-0.0-0.16,A2WPKP73S4MBLK,30UZJB2PPKSSO21QHKUJ0S8JS3B35M,3TXD01ZLD8XXDW8381CC7TOSZWZ4UM,4,3
17,4,object_02,object_10,1158.900000006,8,2,333.10000000894,0.8888888888888888,2,object_01,1,40,0,1,8,restaurant_3,2,memory-2step-stake-s,505,2730424,0.0-19.0-0.0-0.17,A2WPKP73S4MBLK,30UZJB2PPKSSO21QHKUJ0S8JS3B35M,3TXD01ZLD8XXDW8381CC7TOSZWZ4UM,7,8
18,1,object_08,object_09,1183.900000006,2,2,517.40000000596,1.0,2,object_01,5,85,0,2,9,desert_1,2,memory-2step-stake-s,506,2739122,0.0-19.0-0.0-0.18,A2WPKP73S4MBLK,30UZJB2PPKSSO21QHKUJ0S8JS3B35M,3TXD01ZLD8XXDW8381CC7TOSZWZ4UM,1,2
19,4,object_10,object_02,1368.5,8,1,445.09999999404,0.7777777777777778,2,object_01,5,120,0,3,7,restaurant_5,2,memory-2step-stake-s,507,2747566,0.0-19.0-0.0-0.19,A2WPKP73S4MBLK,30UZJB2PPKSSO21QHKUJ0S8JS3B35M,3TXD01ZLD8XXDW8381CC7TOSZWZ4UM,8,7
20,1,object_08,object_09,899.5,2,2,514.79999999702,0.7777777777777778,2,object_01,5,155,0,2,7,desert_3,2,memory-2step-stake-s,508,2756053,0.0-19.0-0.0-0.20,A2WPKP73S4MBLK,30UZJB2PPKSSO21QHKUJ0S8JS3B35M,3TXD01ZLD8XXDW8381CC7TOSZWZ4UM,1,2
21,1,object_09,object_08,780.10000000894,2,1,482.40000000596,0.7777777777777778,2,object_01,5,190,0,2,7,desert_3,2,memory-2step-stake-s,509,2764537,0.0-19.0-0.0-0.21,A2WPKP73S4MBLK,30UZJB2PPKSSO21QHKUJ0S8JS3B35M,3TXD01ZLD8XXDW8381CC7TOSZWZ4UM,2,1
22,4,object_02,object_10,934.79999999702,8,2,234.20000000298,0.5555555555555556,2,object_01,5,215,0,3,5,restaurant_3,2,memory-2step-stake-s,510,2772550,0.0-19.0-0.0-0.22,A2WPKP73S4MBLK,30UZJB2PPKSSO21QHKUJ0S8JS3B35M,3TXD01ZLD8XXDW8381CC7TOSZWZ4UM,7,8
23,2,object_07,object_05,1014.799999997,3,2,359.0,0.5555555555555556,1,object_04,5,240,0,5,5,forest_7,2,memory-2step-stake-s,511,2780676,0.0-19.0-0.0-0.23,A2WPKP73S4MBLK,30UZJB2PPKSSO21QHKUJ0S8JS3B35M,3TXD01ZLD8XXDW8381CC7TOSZWZ4UM,4,3
24,3,object_06,object_03,1194.200000003,5,1,388.89999999106,0.3333333333333333,1,object_04,1,243,0,3,5,library_1,2,memory-2step-stake-s,512,2788597,0.0-19.0-0.0-0.24,A2WPKP73S4MBLK,30UZJB2PPKSSO21QHKUJ0S8JS3B35M,3TXD01ZLD8XXDW8381CC7TOSZWZ4UM,5,6
25,1,object_09,object_08,839.09999999404,2,1,355.59999999404,0.5555555555555556,2,object_01,5,268,0,3,5,desert_6,2,memory-2step-stake-s,513,2796736,0.0-19.0-0.0-0.25,A2WPKP73S4MBLK,30UZJB2PPKSSO21QHKUJ0S8JS3B35M,3TXD01ZLD8XXDW8381CC7TOSZWZ4UM,2,1
26,4,object_10,object_02,931.5,8,1,295.09999999404,0.6666666666666666,2,object_01,1,274,0,4,6,restaurant_5,2,memory-2step-stake-s,514,2804943,0.0-19.0-0.0-0.26,A2WPKP73S4MBLK,30UZJB2PPKSSO21QHKUJ0S8JS3B35M,3TXD01ZLD8XXDW8381CC7TOSZWZ4UM,8,7
27,2,object_07,object_05,1078.5,4,1,381.59999999404,0.5555555555555556,2,object_01,5,299,0,5,5,forest_8,2,memory-2step-stake-s,515,2813096,0.0-19.0-0.0-0.27,A2WPKP73S4MBLK,30UZJB2PPKSSO21QHKUJ0S8JS3B35M,3TXD01ZLD8XXDW8381CC7TOSZWZ4UM,4,3
28,3,object_06,object_03,1002.0,6,2,762.40000000596,0.8888888888888888,2,object_01,1,307,0,1,8,library_7,2,memory-2step-stake-s,516,2821923,0.0-19.0-0.0-0.28,A2WPKP73S4MBLK,30UZJB2PPKSSO21QHKUJ0S8JS3B35M,3TXD01ZLD8XXDW8381CC7TOSZWZ4UM,5,6
29,3,object_06,object_03,995.79999999702,6,2,390.79999999702,0.7777777777777778,2,object_01,1,314,0,2,7,library_6,2,memory-2step-stake-s,517,2830306,0.0-19.0-0.0-0.29,A2WPKP73S4MBLK,30UZJB2PPKSSO21QHKUJ0S8JS3B35M,3TXD01ZLD8XXDW8381CC7TOSZWZ4UM,5,6
30,3,object_06,object_03,633.70000000298,6,2,198.09999999404,1.0,2,object_01,1,323,0,3,9,library_1,2,memory-2step-stake-s,518,2838700,0.0-19.0-0.0-0.30,A2WPKP73S4MBLK,30UZJB2PPKSSO21QHKUJ0S8JS3B35M,3TXD01ZLD8XXDW8381CC7TOSZWZ4UM,5,6
31,4,object_02,object_10,856.60000000894,7,1,1268.5,0.1111111111111111,1,object_04,1,324,0,1,6,restaurant_5,2,memory-2step-stake-s,519,2847335,0.0-19.0-0.0-0.31,A2WPKP73S4MBLK,30UZJB2PPKSSO21QHKUJ0S8JS3B35M,3TXD01ZLD8XXDW8381CC7TOSZWZ4UM,7,8
32,4,object_10,object_02,863.70000000298,8,1,261.60000000894,0.7777777777777778,2,object_01,1,331,0,2,7,restaurant_3,2,memory-2step-stake-s,520,2855598,0.0-19.0-0.0-0.32,A2WPKP73S4MBLK,30UZJB2PPKSSO21QHKUJ0S8JS3B35M,3TXD01ZLD8XXDW8381CC7TOSZWZ4UM,8,7
33,2,object_07,object_05,1441.299999997,4,1,474.89999999106,0.6666666666666666,2,object_01,5,361,0,1,6,forest_3,2,memory-2step-stake-s,521,2863960,0.0-19.0-0.0-0.33,A2WPKP73S4MBLK,30UZJB2PPKSSO21QHKUJ0S8JS3B35M,3TXD01ZLD8XXDW8381CC7TOSZWZ4UM,4,3
34,3,object_06,object_03,849.40000000596,6,2,256.0,0.7777777777777778,2,object_01,1,368,0,1,7,library_7,2,memory-2step-stake-s,522,2872196,0.0-19.0-0.0-0.34,A2WPKP73S4MBLK,30UZJB2PPKSSO21QHKUJ0S8JS3B35M,3TXD01ZLD8XXDW8381CC7TOSZWZ4UM,5,6
35,2,object_07,object_05,1410.1000000089,4,1,397.59999999404,0.8888888888888888,2,object_01,5,408,0,0,8,forest_6,2,memory-2step-stake-s,523,2880695,0.0-19.0-0.0-0.35,A2WPKP73S4MBLK,30UZJB2PPKSSO21QHKUJ0S8JS3B35M,3TXD01ZLD8XXDW8381CC7TOSZWZ4UM,4,3
36,3,object_06,object_03,767.90000000596,6,2,273.70000000298,0.6666666666666666,2,object_01,1,414,0,3,6,library_7,2,memory-2step-stake-s,524,2888847,0.0-19.0-0.0-0.36,A2WPKP73S4MBLK,30UZJB2PPKSSO21QHKUJ0S8JS3B35M,3TXD01ZLD8XXDW8381CC7TOSZWZ4UM,5,6
37,4,object_02,object_10,1169.1999999881,8,2,445.0,0.6666666666666666,2,object_01,5,444,0,2,6,restaurant_4,2,memory-2step-stake-s,525,2897177,0.0-19.0-0.0-0.37,A2WPKP73S4MBLK,30UZJB2PPKSSO21QHKUJ0S8JS3B35M,3TXD01ZLD8XXDW8381CC7TOSZWZ4UM,7,8
38,3,object_03,object_06,782.10000000894,6,1,295.90000000596,0.7777777777777778,2,object_01,1,451,0,3,7,library_6,2,memory-2step-stake-s,526,2905458,0.0-19.0-0.0-0.38,A2WPKP73S4MBLK,30UZJB2PPKSSO21QHKUJ0S8JS3B35M,3TXD01ZLD8XXDW8381CC7TOSZWZ4UM,6,5
39,1,object_09,object_08,1165.0,2,1,659.09999999404,0.7777777777777778,2,object_01,5,486,0,3,7,desert_5,2,memory-2step-stake-s,527,2914087,0.0-19.0-0.0-0.39,A2WPKP73S4MBLK,30UZJB2PPKSSO21QHKUJ0S8JS3B35M,3TXD01ZLD8XXDW8381CC7TOSZWZ4UM,2,1
40,3,object_03,object_06,716.79999999702,6,1,305.0,0.8888888888888888,2,object_01,1,494,0,2,8,library_7,2,memory-2step-stake-s,528,2922492,0.0-19.0-0.0-0.40,A2WPKP73S4MBLK,30UZJB2PPKSSO21QHKUJ0S8JS3B35M,3TXD01ZLD8XXDW8381CC7TOSZWZ4UM,6,5
41,3,object_06,object_03,1198.5,6,2,487.79999999702,0.8888888888888888,2,object_01,1,502,0,3,8,library_1,2,memory-2step-stake-s,529,2931051,0.0-19.0-0.0-0.41,A2WPKP73S4MBLK,30UZJB2PPKSSO21QHKUJ0S8JS3B35M,3TXD01ZLD8XXDW8381CC7TOSZWZ4UM,5,6
42,1,object_08,object_09,-1.0,-1,-1,-1.0,0.0,-,0,5,502,0,2,8,desert_3,2,memory-2step-stake-s,530,2937596,0.0-19.0-0.0-0.42,A2WPKP73S4MBLK,30UZJB2PPKSSO21QHKUJ0S8JS3B35M,3TXD01ZLD8XXDW8381CC7TOSZWZ4UM,1,2
43,2,object_05,object_07,1403.599999994,4,2,509.79999999702,0.7777777777777778,2,object_01,5,537,0,1,7,forest_8,2,memory-2step-stake-s,531,2946098,0.0-19.0-0.0-0.43,A2WPKP73S4MBLK,30UZJB2PPKSSO21QHKUJ0S8JS3B35M,3TXD01ZLD8XXDW8381CC7TOSZWZ4UM,3,4
44,3,object_03,object_06,590.5,6,1,211.59999999404,0.8888888888888888,2,object_01,1,545,0,3,8,library_8,2,memory-2step-stake-s,532,2954375,0.0-19.0-0.0-0.44,A2WPKP73S4MBLK,30UZJB2PPKSSO21QHKUJ0S8JS3B35M,3TXD01ZLD8XXDW8381CC7TOSZWZ4UM,6,5
45,1,object_08,object_09,1041.900000006,2,2,367.70000000298,1.0,2,object_01,5,590,0,5,9,desert_1,2,memory-2step-stake-s,533,2962945,0.0-19.0-0.0-0.45,A2WPKP73S4MBLK,30UZJB2PPKSSO21QHKUJ0S8JS3B35M,3TXD01ZLD8XXDW8381CC7TOSZWZ4UM,1,2
46,1,object_08,object_09,613.20000000298,2,2,298.39999999106,0.7777777777777778,2,object_01,5,625,0,8,7,desert_5,2,memory-2step-stake-s,534,2971222,0.0-19.0-0.0-0.46,A2WPKP73S4MBLK,30UZJB2PPKSSO21QHKUJ0S8JS3B35M,3TXD01ZLD8XXDW8381CC7TOSZWZ4UM,1,2
47,2,object_05,object_07,945.5,4,2,345.0,0.8888888888888888,2,object_01,1,633,0,8,8,forest_6,2,memory-2step-stake-s,535,2979653,0.0-19.0-0.0-0.47,A2WPKP73S4MBLK,30UZJB2PPKSSO21QHKUJ0S8JS3B35M,3TXD01ZLD8XXDW8381CC7TOSZWZ4UM,3,4
48,3,object_06,object_03,558.59999999404,6,2,258.40000000596,0.7777777777777778,2,object_01,1,640,0,8,7,library_8,2,memory-2step-stake-s,536,2987891,0.0-19.0-0.0-0.48,A2WPKP73S4MBLK,30UZJB2PPKSSO21QHKUJ0S8JS3B35M,3TXD01ZLD8XXDW8381CC7TOSZWZ4UM,5,6
49,3,object_06,object_03,661.0,6,2,239.79999999702,0.7777777777777778,2,object_01,1,647,0,7,7,library_6,2,memory-2step-stake-s,537,2996115,0.0-19.0-0.0-0.49,A2WPKP73S4MBLK,30UZJB2PPKSSO21QHKUJ0S8JS3B35M,3TXD01ZLD8XXDW8381CC7TOSZWZ4UM,5,6
50,3,object_06,object_03,625.90000000596,6,2,387.40000000596,0.5555555555555556,2,object_01,1,652,0,9,5,library_8,2,memory-2step-stake-s,538,3004266,0.0-19.0-0.0-0.50,A2WPKP73S4MBLK,30UZJB2PPKSSO21QHKUJ0S8JS3B35M,3TXD01ZLD8XXDW8381CC7TOSZWZ4UM,5,6
51,2,object_07,object_05,933.20000000298,4,1,419.5,1.0,2,object_01,1,661,0,9,9,forest_8,2,memory-2step-stake-s,539,3012860,0.0-19.0-0.0-0.51,A2WPKP73S4MBLK,30UZJB2PPKSSO21QHKUJ0S8JS3B35M,3TXD01ZLD8XXDW8381CC7TOSZWZ4UM,4,3
52,1,object_08,object_09,694.70000000298,2,2,330.59999999404,0.7777777777777778,2,object_01,5,696,0,6,7,desert_1,2,memory-2step-stake-s,540,3021195,0.0-19.0-0.0-0.52,A2WPKP73S4MBLK,30UZJB2PPKSSO21QHKUJ0S8JS3B35M,3TXD01ZLD8XXDW8381CC7TOSZWZ4UM,1,2
53,4,object_02,object_10,905.59999999404,8,2,227.40000000596,0.7777777777777778,2,object_01,1,703,0,4,7,restaurant_3,2,memory-2step-stake-s,541,3029398,0.0-19.0-0.0-0.53,A2WPKP73S4MBLK,30UZJB2PPKSSO21QHKUJ0S8JS3B35M,3TXD01ZLD8XXDW8381CC7TOSZWZ4UM,7,8
54,1,object_08,object_09,638.29999999702,2,2,213.59999999404,0.6666666666666666,2,object_01,1,709,0,2,6,desert_3,2,memory-2step-stake-s,542,3037485,0.0-19.0-0.0-0.54,A2WPKP73S4MBLK,30UZJB2PPKSSO21QHKUJ0S8JS3B35M,3TXD01ZLD8XXDW8381CC7TOSZWZ4UM,1,2
55,3,object_06,object_03,576.40000000596,6,2,301.70000000298,0.7777777777777778,2,object_01,1,716,0,4,7,library_8,2,memory-2step-stake-s,543,3045758,0.0-19.0-0.0-0.55,A2WPKP73S4MBLK,30UZJB2PPKSSO21QHKUJ0S8JS3B35M,3TXD01ZLD8XXDW8381CC7TOSZWZ4UM,5,6
56,4,object_10,object_02,917.20000000298,8,1,355.30000001192,0.7777777777777778,2,object_01,5,751,0,2,7,restaurant_2,2,memory-2step-stake-s,544,3054110,0.0-19.0-0.0-0.56,A2WPKP73S4MBLK,30UZJB2PPKSSO21QHKUJ0S8JS3B35M,3TXD01ZLD8XXDW8381CC7TOSZWZ4UM,8,7
57,1,object_08,object_09,499.70000000298,2,2,208.0,0.7777777777777778,2,object_01,5,786,0,1,7,desert_1,2,memory-2step-stake-s,545,3062302,0.0-19.0-0.0-0.57,A2WPKP73S4MBLK,30UZJB2PPKSSO21QHKUJ0S8JS3B35M,3TXD01ZLD8XXDW8381CC7TOSZWZ4UM,1,2
58,2,object_05,object_07,885.40000000596,4,2,271.29999999702,0.6666666666666666,2,object_01,5,816,0,2,6,forest_3,2,memory-2step-stake-s,546,3070465,0.0-19.0-0.0-0.58,A2WPKP73S4MBLK,30UZJB2PPKSSO21QHKUJ0S8JS3B35M,3TXD01ZLD8XXDW8381CC7TOSZWZ4UM,3,4
59,2,object_05,object_07,705.0,4,2,337.89999999106,0.6666666666666666,2,object_01,5,846,0,0,6,forest_7,2,memory-2step-stake-s,547,3078678,0.0-19.0-0.0-0.59,A2WPKP73S4MBLK,30UZJB2PPKSSO21QHKUJ0S8JS3B35M,3TXD01ZLD8XXDW8381CC7TOSZWZ4UM,3,4
60,4,object_02,object_10,623.10000000894,8,2,251.59999999404,0.7777777777777778,2,object_01,5,881,0,2,7,restaurant_5,2,memory-2step-stake-s,548,3086922,0.0-19.0-0.0-0.60,A2WPKP73S4MBLK,30UZJB2PPKSSO21QHKUJ0S8JS3B35M,3TXD01ZLD8XXDW8381CC7TOSZWZ4UM,7,8
61,1,object_09,object_08,691.20000000298,2,1,289.0,0.6666666666666666,2,object_01,5,911,0,1,6,desert_5,2,memory-2step-stake-s,549,3095083,0.0-19.0-0.0-0.61,A2WPKP73S4MBLK,30UZJB2PPKSSO21QHKUJ0S8JS3B35M,3TXD01ZLD8XXDW8381CC7TOSZWZ4UM,2,1
62,4,object_02,object_10,651.0,8,2,233.40000000596,0.4444444444444444,2,object_01,1,915,0,1,4,restaurant_4,2,memory-2step-stake-s,550,3102979,0.0-19.0-0.0-0.62,A2WPKP73S4MBLK,30UZJB2PPKSSO21QHKUJ0S8JS3B35M,3TXD01ZLD8XXDW8381CC7TOSZWZ4UM,7,8
63,4,object_10,object_02,732.79999999702,8,1,470.20000000298,0.4444444444444444,2,object_01,5,935,0,3,4,restaurant_3,2,memory-2step-stake-s,551,3111118,0.0-19.0-0.0-0.63,A2WPKP73S4MBLK,30UZJB2PPKSSO21QHKUJ0S8JS3B35M,3TXD01ZLD8XXDW8381CC7TOSZWZ4UM,8,7
64,3,object_03,object_06,941.60000000894,5,2,354.5,0.2222222222222222,1,object_04,1,937,0,2,4,library_8,2,memory-2step-stake-s,552,3118923,0.0-19.0-0.0-0.64,A2WPKP73S4MBLK,30UZJB2PPKSSO21QHKUJ0S8JS3B35M,3TXD01ZLD8XXDW8381CC7TOSZWZ4UM,6,5
65,3,object_03,object_06,756.0,6,1,464.40000000596,0.5555555555555556,2,object_01,1,942,0,3,5,library_7,2,memory-2step-stake-s,553,3127135,0.0-19.0-0.0-0.65,A2WPKP73S4MBLK,30UZJB2PPKSSO21QHKUJ0S8JS3B35M,3TXD01ZLD8XXDW8381CC7TOSZWZ4UM,6,5
66,2,object_07,object_05,921.90000000596,4,1,332.59999999404,0.3333333333333333,2,object_01,5,957,0,1,3,forest_7,2,memory-2step-stake-s,554,3135057,0.0-19.0-0.0-0.66,A2WPKP73S4MBLK,30UZJB2PPKSSO21QHKUJ0S8JS3B35M,3TXD01ZLD8XXDW8381CC7TOSZWZ4UM,4,3
67,4,object_02,object_10,967.5,7,1,378.5,0.2222222222222222,1,object_04,1,959,0,2,4,restaurant_2,2,memory-2step-stake-s,555,3142893,0.0-19.0-0.0-0.67,A2WPKP73S4MBLK,30UZJB2PPKSSO21QHKUJ0S8JS3B35M,3TXD01ZLD8XXDW8381CC7TOSZWZ4UM,7,8
68,4,object_10,object_02,859.20000000298,8,1,322.0,0.2222222222222222,2,object_01,1,961,0,1,2,restaurant_4,2,memory-2step-stake-s,556,3150653,0.0-19.0-0.0-0.68,A2WPKP73S4MBLK,30UZJB2PPKSSO21QHKUJ0S8JS3B35M,3TXD01ZLD8XXDW8381CC7TOSZWZ4UM,8,7
69,2,object_07,object_05,1089.099999994,3,2,363.59999999404,0.1111111111111111,1,object_04,1,962,0,1,2,forest_3,2,memory-2step-stake-s,557,3158382,0.0-19.0-0.0-0.69,A2WPKP73S4MBLK,30UZJB2PPKSSO21QHKUJ0S8JS3B35M,3TXD01ZLD8XXDW8381CC7TOSZWZ4UM,4,3
70,3,object_06,object_03,733.89999999106,6,2,370.59999999404,0.1111111111111111,2,object_01,1,963,0,2,1,library_7,2,memory-2step-stake-s,558,3166120,0.0-19.0-0.0-0.70,A2WPKP73S4MBLK,30UZJB2PPKSSO21QHKUJ0S8JS3B35M,3TXD01ZLD8XXDW8381CC7TOSZWZ4UM,5,6
71,2,object_07,object_05,1017.0,3,2,414.39999999106,0.2222222222222222,1,object_04,5,973,0,2,5,forest_8,2,memory-2step-stake-s,559,3173987,0.0-19.0-0.0-0.71,A2WPKP73S4MBLK,30UZJB2PPKSSO21QHKUJ0S8JS3B35M,3TXD01ZLD8XXDW8381CC7TOSZWZ4UM,4,3
72,1,object_08,object_09,838.40000000596,1,1,294.90000000596,0.2222222222222222,1,object_04,5,983,0,2,5,desert_3,2,memory-2step-stake-s,560,3181759,0.0-19.0-0.0-0.72,A2WPKP73S4MBLK,30UZJB2PPKSSO21QHKUJ0S8JS3B35M,3TXD01ZLD8XXDW8381CC7TOSZWZ4UM,1,2
73,1,object_08,object_09,1202.0,1,1,320.09999999404,0.3333333333333333,1,object_04,5,998,0,3,4,desert_1,2,memory-2step-stake-s,561,3189652,0.0-19.0-0.0-0.73,A2WPKP73S4MBLK,30UZJB2PPKSSO21QHKUJ0S8JS3B35M,3TXD01ZLD8XXDW8381CC7TOSZWZ4UM,1,2
74,2,object_07,object_05,1039.3000000119,3,2,315.09999999404,0.5555555555555556,1,object_04,1,1003,0,5,5,forest_7,2,memory-2step-stake-s,562,3197761,0.0-19.0-0.0-0.74,A2WPKP73S4MBLK,30UZJB2PPKSSO21QHKUJ0S8JS3B35M,3TXD01ZLD8XXDW8381CC7TOSZWZ4UM,4,3
75,3,object_06,object_03,1372.299999997,5,1,378.80000001192,0.7777777777777778,1,object_04,1,1010,0,7,3,library_8,2,memory-2step-stake-s,563,3206157,0.0-19.0-0.0-0.75,A2WPKP73S4MBLK,30UZJB2PPKSSO21QHKUJ0S8JS3B35M,3TXD01ZLD8XXDW8381CC7TOSZWZ4UM,5,6
76,4,object_02,object_10,1497.299999997,7,1,390.5,0.8888888888888888,1,object_04,1,1018,0,8,1,restaurant_5,2,memory-2step-stake-s,564,3214634,0.0-19.0-0.0-0.76,A2WPKP73S4MBLK,30UZJB2PPKSSO21QHKUJ0S8JS3B35M,3TXD01ZLD8XXDW8381CC7TOSZWZ4UM,7,8
77,1,object_09,object_08,994.20000000298,1,2,268.0,0.6666666666666666,1,object_04,5,1048,0,6,0,desert_5,2,memory-2step-stake-s,565,3222749,0.0-19.0-0.0-0.77,A2WPKP73S4MBLK,30UZJB2PPKSSO21QHKUJ0S8JS3B35M,3TXD01ZLD8XXDW8381CC7TOSZWZ4UM,2,1
78,3,object_06,object_03,967.40000000596,5,1,244.0,0.2222222222222222,1,object_04,1,1050,0,2,0,library_6,2,memory-2step-stake-s,566,3230454,0.0-19.0-0.0-0.78,A2WPKP73S4MBLK,30UZJB2PPKSSO21QHKUJ0S8JS3B35M,3TXD01ZLD8XXDW8381CC7TOSZWZ4UM,5,6
79,1,object_08,object_09,754.80000001192,2,2,277.59999999404,0.3333333333333333,2,object_01,5,1065,0,4,3,desert_6,2,memory-2step-stake-s,567,3238302,0.0-19.0-0.0-0.79,A2WPKP73S4MBLK,30UZJB2PPKSSO21QHKUJ0S8JS3B35M,3TXD01ZLD8XXDW8381CC7TOSZWZ4UM,1,2
80,1,object_08,object_09,533.5,2,2,361.5,0.3333333333333333,2,object_01,5,1080,0,6,3,desert_1,2,memory-2step-stake-s,568,3246221,0.0-19.0-0.0-0.80,A2WPKP73S4MBLK,30UZJB2PPKSSO21QHKUJ0S8JS3B35M,3TXD01ZLD8XXDW8381CC7TOSZWZ4UM,1,2
81,1,object_09,object_08,454.79999999702,2,1,361.5,0.5555555555555556,2,object_01,5,1105,0,7,5,desert_6,2,memory-2step-stake-s,569,3254365,0.0-19.0-0.0-0.81,A2WPKP73S4MBLK,30UZJB2PPKSSO21QHKUJ0S8JS3B35M,3TXD01ZLD8XXDW8381CC7TOSZWZ4UM,2,1
82,1,object_08,object_09,413.20000000298,2,2,280.5,0.6666666666666666,2,object_01,5,1135,0,7,6,desert_6,2,memory-2step-stake-s,570,3262516,0.0-19.0-0.0-0.82,A2WPKP73S4MBLK,30UZJB2PPKSSO21QHKUJ0S8JS3B35M,3TXD01ZLD8XXDW8381CC7TOSZWZ4UM,1,2
83,4,object_10,object_02,772.29999999702,8,1,307.5,0.6666666666666666,2,object_01,5,1165,0,9,6,restaurant_2,2,memory-2step-stake-s,571,3270763,0.0-19.0-0.0-0.83,A2WPKP73S4MBLK,30UZJB2PPKSSO21QHKUJ0S8JS3B35M,3TXD01ZLD8XXDW8381CC7TOSZWZ4UM,8,7
84,4,object_02,object_10,553.10000000894,8,2,230.5,0.8888888888888888,2,object_01,1,1173,0,8,8,restaurant_5,2,memory-2step-stake-s,572,3279078,0.0-19.0-0.0-0.84,A2WPKP73S4MBLK,30UZJB2PPKSSO21QHKUJ0S8JS3B35M,3TXD01ZLD8XXDW8381CC7TOSZWZ4UM,7,8
85,1,object_08,object_09,655.5,2,2,229.29999999702,0.7777777777777778,2,object_01,1,1180,0,5,7,desert_1,2,memory-2step-stake-s,573,3287318,0.0-19.0-0.0-0.85,A2WPKP73S4MBLK,30UZJB2PPKSSO21QHKUJ0S8JS3B35M,3TXD01ZLD8XXDW8381CC7TOSZWZ4UM,1,2
86,2,object_05,object_07,-1.0,-1,-1,-1.0,0.0,-,0,5,1180,0,5,9,forest_6,2,memory-2step-stake-s,574,3293850,0.0-19.0-0.0-0.86,A2WPKP73S4MBLK,30UZJB2PPKSSO21QHKUJ0S8JS3B35M,3TXD01ZLD8XXDW8381CC7TOSZWZ4UM,3,4
87,1,object_08,object_09,558.09999999404,2,2,285.0,1.0,2,object_01,5,1225,0,4,9,desert_5,2,memory-2step-stake-s,575,3302298,0.0-19.0-0.0-0.87,A2WPKP73S4MBLK,30UZJB2PPKSSO21QHKUJ0S8JS3B35M,3TXD01ZLD8XXDW8381CC7TOSZWZ4UM,1,2
88,1,object_09,object_08,675.0,2,1,385.0,0.4444444444444444,2,object_01,5,1245,0,3,4,desert_5,2,memory-2step-stake-s,576,3310365,0.0-19.0-0.0-0.88,A2WPKP73S4MBLK,30UZJB2PPKSSO21QHKUJ0S8JS3B35M,3TXD01ZLD8XXDW8381CC7TOSZWZ4UM,2,1
89,3,object_03,object_06,918.89999999106,6,1,398.10000000894,0.4444444444444444,2,object_01,1,1249,0,3,4,library_1,2,memory-2step-stake-s,577,3318433,0.0-19.0-0.0-0.89,A2WPKP73S4MBLK,30UZJB2PPKSSO21QHKUJ0S8JS3B35M,3TXD01ZLD8XXDW8381CC7TOSZWZ4UM,6,5
90,4,object_02,object_10,1143.799999997,8,2,508.69999998808,0.4444444444444444,2,object_01,1,1253,0,2,4,restaurant_5,2,memory-2step-stake-s,578,3326610,0.0-19.0-0.0-0.90,A2WPKP73S4MBLK,30UZJB2PPKSSO21QHKUJ0S8JS3B35M,3TXD01ZLD8XXDW8381CC7TOSZWZ4UM,7,8
91,2,object_07,object_05,1001.299999997,4,1,342.40000000596,0.8888888888888888,2,object_01,5,1293,0,7,8,forest_3,2,memory-2step-stake-s,579,3335059,0.0-19.0-0.0-0.91,A2WPKP73S4MBLK,30UZJB2PPKSSO21QHKUJ0S8JS3B35M,3TXD01ZLD8XXDW8381CC7TOSZWZ4UM,4,3
92,2,object_07,object_05,932.70000000298,4,1,377.59999999404,0.8888888888888888,2,object_01,5,1333,0,8,8,forest_3,2,memory-2step-stake-s,580,3343502,0.0-19.0-0.0-0.92,A2WPKP73S4MBLK,30UZJB2PPKSSO21QHKUJ0S8JS3B35M,3TXD01ZLD8XXDW8381CC7TOSZWZ4UM,4,3
93,1,object_08,object_09,1061.5,2,2,344.09999999404,0.7777777777777778,2,object_01,5,1368,0,8,7,desert_3,2,memory-2step-stake-s,581,3351846,0.0-19.0-0.0-0.93,A2WPKP73S4MBLK,30UZJB2PPKSSO21QHKUJ0S8JS3B35M,3TXD01ZLD8XXDW8381CC7TOSZWZ4UM,1,2
94,4,object_10,object_02,844.20000000298,8,1,499.70000000298,0.8888888888888888,2,object_01,5,1408,0,7,8,restaurant_4,2,memory-2step-stake-s,582,3360433,0.0-19.0-0.0-0.94,A2WPKP73S4MBLK,30UZJB2PPKSSO21QHKUJ0S8JS3B35M,3TXD01ZLD8XXDW8381CC7TOSZWZ4UM,8,7
95,2,object_05,object_07,1275.1999999881,4,2,428.29999999702,0.8888888888888888,2,object_01,5,1448,0,9,8,forest_7,2,memory-2step-stake-s,583,3368950,0.0-19.0-0.0-0.95,A2WPKP73S4MBLK,30UZJB2PPKSSO21QHKUJ0S8JS3B35M,3TXD01ZLD8XXDW8381CC7TOSZWZ4UM,3,4
96,2,object_07,object_05,860.70000000298,4,1,374.90000000596,0.7777777777777778,2,object_01,5,1483,0,8,7,forest_3,2,memory-2step-stake-s,584,3377332,0.0-19.0-0.0-0.96,A2WPKP73S4MBLK,30UZJB2PPKSSO21QHKUJ0S8JS3B35M,3TXD01ZLD8XXDW8381CC7TOSZWZ4UM,4,3
97,2,object_07,object_05,819.89999999106,4,1,301.0,0.8888888888888888,2,object_01,1,1491,0,9,8,forest_6,2,memory-2step-stake-s,585,3385740,0.0-19.0-0.0-0.97,A2WPKP73S4MBLK,30UZJB2PPKSSO21QHKUJ0S8JS3B35M,3TXD01ZLD8XXDW8381CC7TOSZWZ4UM,4,3
98,2,object_07,object_05,727.20000000298,4,1,317.40000000596,1.0,2,object_01,5,1536,0,9,9,forest_8,2,memory-2step-stake-s,586,3394241,0.0-19.0-0.0-0.98,A2WPKP73S4MBLK,30UZJB2PPKSSO21QHKUJ0S8JS3B35M,3TXD01ZLD8XXDW8381CC7TOSZWZ4UM,4,3
99,3,object_03,object_06,797.40000000596,6,1,393.20000000298,0.8888888888888888,2,object_01,1,1544,0,7,8,library_1,2,memory-2step-stake-s,587,3402713,0.0-19.0-0.0-0.99,A2WPKP73S4MBLK,30UZJB2PPKSSO21QHKUJ0S8JS3B35M,3TXD01ZLD8XXDW8381CC7TOSZWZ4UM,6,5
100,4,object_02,object_10,1107.200000003,8,2,351.0,0.7777777777777778,2,object_01,1,1551,0,9,7,restaurant_3,2,memory-2step-stake-s,588,3411043,0.0-19.0-0.0-0.100,A2WPKP73S4MBLK,30UZJB2PPKSSO21QHKUJ0S8JS3B35M,3TXD01ZLD8XXDW8381CC7TOSZWZ4UM,7,8
101,1,object_09,object_08,579.70000000298,2,1,366.30000001192,0.5555555555555556,2,object_01,5,1576,0,5,5,desert_3,2,memory-2step-stake-s,589,3419183,0.0-19.0-0.0-0.101,A2WPKP73S4MBLK,30UZJB2PPKSSO21QHKUJ0S8JS3B35M,3TXD01ZLD8XXDW8381CC7TOSZWZ4UM,2,1
102,1,object_09,object_08,688.79999999702,2,1,289.89999999106,0.3333333333333333,2,object_01,5,1591,0,2,3,desert_6,2,memory-2step-stake-s,590,3427028,0.0-19.0-0.0-0.102,A2WPKP73S4MBLK,30UZJB2PPKSSO21QHKUJ0S8JS3B35M,3TXD01ZLD8XXDW8381CC7TOSZWZ4UM,2,1
103,1,object_08,object_09,917.70000000298,1,1,350.90000000596,0.0,1,object_04,5,1591,0,0,4,desert_3,2,memory-2step-stake-s,591,3434626,0.0-19.0-0.0-0.103,A2WPKP73S4MBLK,30UZJB2PPKSSO21QHKUJ0S8JS3B35M,3TXD01ZLD8XXDW8381CC7TOSZWZ4UM,1,2
104,1,object_08,object_09,563.59999999404,2,2,261.89999999106,0.3333333333333333,2,object_01,5,1606,0,3,3,desert_5,2,memory-2step-stake-s,592,3442478,0.0-19.0-0.0-0.104,A2WPKP73S4MBLK,30UZJB2PPKSSO21QHKUJ0S8JS3B35M,3TXD01ZLD8XXDW8381CC7TOSZWZ4UM,1,2
105,1,object_08,object_09,500.09999999404,2,2,225.60000000894,0.1111111111111111,2,object_01,5,1611,0,3,1,desert_6,2,memory-2step-stake-s,593,3450052,0.0-19.0-0.0-0.105,A2WPKP73S4MBLK,30UZJB2PPKSSO21QHKUJ0S8JS3B35M,3TXD01ZLD8XXDW8381CC7TOSZWZ4UM,1,2
106,2,object_07,object_05,950.5,3,2,347.29999999702,0.3333333333333333,1,object_04,1,1614,0,3,3,forest_7,2,memory-2step-stake-s,594,3457975,0.0-19.0-0.0-0.106,A2WPKP73S4MBLK,30UZJB2PPKSSO21QHKUJ0S8JS3B35M,3TXD01ZLD8XXDW8381CC7TOSZWZ4UM,4,3
107,1,object_09,object_08,690.29999999702,1,2,317.79999999702,0.4444444444444444,1,object_04,1,1618,0,4,5,desert_5,2,memory-2step-stake-s,595,3465946,0.0-19.0-0.0-0.107,A2WPKP73S4MBLK,30UZJB2PPKSSO21QHKUJ0S8JS3B35M,3TXD01ZLD8XXDW8381CC7TOSZWZ4UM,2,1
108,3,object_06,object_03,867.39999999106,5,1,360.09999999404,0.3333333333333333,1,object_04,1,1621,0,3,4,library_6,2,memory-2step-stake-s,596,3473861,0.0-19.0-0.0-0.108,A2WPKP73S4MBLK,30UZJB2PPKSSO21QHKUJ0S8JS3B35M,3TXD01ZLD8XXDW8381CC7TOSZWZ4UM,5,6
109,4,object_10,object_02,983.90000000596,7,2,470.0,0.6666666666666666,1,object_04,1,1627,0,6,6,restaurant_2,2,memory-2step-stake-s,597,3482237,0.0-19.0-0.0-0.109,A2WPKP73S4MBLK,30UZJB2PPKSSO21QHKUJ0S8JS3B35M,3TXD01ZLD8XXDW8381CC7TOSZWZ4UM,8,7
110,1,object_08,object_09,592.29999999702,1,1,306.10000000894,0.3333333333333333,1,object_04,5,1642,0,3,7,desert_6,2,memory-2step-stake-s,598,3490096,0.0-19.0-0.0-0.110,A2WPKP73S4MBLK,30UZJB2PPKSSO21QHKUJ0S8JS3B35M,3TXD01ZLD8XXDW8381CC7TOSZWZ4UM,1,2
111,4,object_10,object_02,1227.799999997,7,2,458.5,0.4444444444444444,1,object_04,1,1646,0,4,8,restaurant_4,2,memory-2step-stake-s,599,3498240,0.0-19.0-0.0-0.111,A2WPKP73S4MBLK,30UZJB2PPKSSO21QHKUJ0S8JS3B35M,3TXD01ZLD8XXDW8381CC7TOSZWZ4UM,8,7
112,1,object_08,object_09,835.20000000298,1,1,346.70000000298,0.4444444444444444,1,object_04,5,1666,0,4,8,desert_1,2,memory-2step-stake-s,600,3506262,0.0-19.0-0.0-0.112,A2WPKP73S4MBLK,30UZJB2PPKSSO21QHKUJ0S8JS3B35M,3TXD01ZLD8XXDW8381CC7TOSZWZ4UM,1,2
113,2,object_05,object_07,1050.900000006,3,1,386.09999999404,0.5555555555555556,1,object_04,1,1671,0,5,8,forest_7,2,memory-2step-stake-s,601,3514458,0.0-19.0-0.0-0.113,A2WPKP73S4MBLK,30UZJB2PPKSSO21QHKUJ0S8JS3B35M,3TXD01ZLD8XXDW8381CC7TOSZWZ4UM,3,4
114,3,object_03,object_06,912.0,5,2,229.20000000298,0.6666666666666666,1,object_04,1,1677,0,6,7,library_1,2,memory-2step-stake-s,602,3522576,0.0-19.0-0.0-0.114,A2WPKP73S4MBLK,30UZJB2PPKSSO21QHKUJ0S8JS3B35M,3TXD01ZLD8XXDW8381CC7TOSZWZ4UM,6,5
115,4,object_02,object_10,1111.299999997,7,1,310.20000000298,0.7777777777777778,1,object_04,1,1684,0,7,5,restaurant_2,2,memory-2step-stake-s,603,3530892,0.0-19.0-0.0-0.115,A2WPKP73S4MBLK,30UZJB2PPKSSO21QHKUJ0S8JS3B35M,3TXD01ZLD8XXDW8381CC7TOSZWZ4UM,7,8
116,2,object_07,object_05,1175.200000003,3,2,244.79999999702,0.7777777777777778,1,object_04,5,1719,0,7,4,forest_8,2,memory-2step-stake-s,604,3539124,0.0-19.0-0.0-0.116,A2WPKP73S4MBLK,30UZJB2PPKSSO21QHKUJ0S8JS3B35M,3TXD01ZLD8XXDW8381CC7TOSZWZ4UM,4,3
117,2,object_05,object_07,1241.799999997,3,1,218.20000000298,0.7777777777777778,1,object_04,5,1754,0,7,6,forest_3,2,memory-2step-stake-s,605,3547303,0.0-19.0-0.0-0.117,A2WPKP73S4MBLK,30UZJB2PPKSSO21QHKUJ0S8JS3B35M,3TXD01ZLD8XXDW8381CC7TOSZWZ4UM,3,4
118,2,object_05,object_07,1145.299999997,3,1,336.60000000894,0.6666666666666666,1,object_04,5,1784,0,6,4,forest_6,2,memory-2step-stake-s,606,3555522,0.0-19.0-0.0-0.118,A2WPKP73S4MBLK,30UZJB2PPKSSO21QHKUJ0S8JS3B35M,3TXD01ZLD8XXDW8381CC7TOSZWZ4UM,3,4
119,4,object_02,object_10,1369.400000006,7,1,294.09999999404,0.8888888888888888,1,object_04,1,1792,0,8,3,restaurant_3,2,memory-2step-stake-s,607,3563905,0.0-19.0-0.0-0.119,A2WPKP73S4MBLK,30UZJB2PPKSSO21QHKUJ0S8JS3B35M,3TXD01ZLD8XXDW8381CC7TOSZWZ4UM,7,8
120,3,object_03,object_06,1004.700000003,5,2,223.59999999404,0.6666666666666666,1,object_04,1,1798,0,6,2,library_8,2,memory-2step-stake-s,608,3572032,0.0-19.0-0.0-0.120,A2WPKP73S4MBLK,30UZJB2PPKSSO21QHKUJ0S8JS3B35M,3TXD01ZLD8XXDW8381CC7TOSZWZ4UM,6,5
121,4,object_10,object_02,971.59999999404,7,2,475.0,0.6666666666666666,1,object_04,1,1804,0,6,2,restaurant_4,2,memory-2step-stake-s,609,3580371,0.0-19.0-0.0-0.121,A2WPKP73S4MBLK,30UZJB2PPKSSO21QHKUJ0S8JS3B35M,3TXD01ZLD8XXDW8381CC7TOSZWZ4UM,8,7
122,3,object_06,object_03,919.59999999404,5,1,358.5,0.5555555555555556,1,object_04,1,1809,0,5,3,library_1,2,memory-2step-stake-s,610,3588511,0.0-19.0-0.0-0.122,A2WPKP73S4MBLK,30UZJB2PPKSSO21QHKUJ0S8JS3B35M,3TXD01ZLD8XXDW8381CC7TOSZWZ4UM,5,6
123,3,object_03,object_06,871.5,5,2,446.60000000894,0.6666666666666666,1,object_04,1,1815,0,6,1,library_7,2,memory-2step-stake-s,611,3596822,0.0-19.0-0.0-0.123,A2WPKP73S4MBLK,30UZJB2PPKSSO21QHKUJ0S8JS3B35M,3TXD01ZLD8XXDW8381CC7TOSZWZ4UM,6,5
124,4,object_02,object_10,989.90000000596,7,1,416.79999999702,0.6666666666666666,1,object_04,1,1821,0,6,3,restaurant_4,2,memory-2step-stake-s,612,3605099,0.0-19.0-0.0-0.124,A2WPKP73S4MBLK,30UZJB2PPKSSO21QHKUJ0S8JS3B35M,3TXD01ZLD8XXDW8381CC7TOSZWZ4UM,7,8
125,4,object_10,object_02,737.40000000596,7,2,346.89999999106,0.5555555555555556,1,object_04,5,1846,0,5,6,restaurant_5,2,memory-2step-stake-s,613,3613229,0.0-19.0-0.0-0.125,A2WPKP73S4MBLK,30UZJB2PPKSSO21QHKUJ0S8JS3B35M,3TXD01ZLD8XXDW8381CC7TOSZWZ4UM,8,7
126,4,object_10,object_02,842.29999999702,7,2,241.59999999404,0.5555555555555556,1,object_04,1,1851,0,5,7,restaurant_5,2,memory-2step-stake-s,614,3621252,0.0-19.0-0.0-0.126,A2WPKP73S4MBLK,30UZJB2PPKSSO21QHKUJ0S8JS3B35M,3TXD01ZLD8XXDW8381CC7TOSZWZ4UM,8,7
127,1,object_09,object_08,906.20000000298,1,2,233.59999999404,0.7777777777777778,1,object_04,1,1858,0,7,8,desert_1,2,memory-2step-stake-s,615,3629462,0.0-19.0-0.0-0.127,A2WPKP73S4MBLK,30UZJB2PPKSSO21QHKUJ0S8JS3B35M,3TXD01ZLD8XXDW8381CC7TOSZWZ4UM,2,1
128,1,object_09,object_08,1203.3000000119,1,2,411.80000001192,0.7777777777777778,1,object_04,1,1865,0,7,7,desert_3,2,memory-2step-stake-s,617,3643414,0.0-19.0-0.1-0.128,A2WPKP73S4MBLK,30UZJB2PPKSSO21QHKUJ0S8JS3B35M,3TXD01ZLD8XXDW8381CC7TOSZWZ4UM,2,1
129,3,object_03,object_06,996.29999999702,5,2,402.80000001192,0.2222222222222222,1,object_04,1,1867,0,2,8,library_7,2,memory-2step-stake-s,618,3651266,0.0-19.0-0.1-0.129,A2WPKP73S4MBLK,30UZJB2PPKSSO21QHKUJ0S8JS3B35M,3TXD01ZLD8XXDW8381CC7TOSZWZ4UM,6,5
130,1,object_08,object_09,532.70000000298,2,2,290.70000000298,0.8888888888888888,2,object_01,5,1907,0,1,8,desert_6,2,memory-2step-stake-s,619,3659641,0.0-19.0-0.1-0.130,A2WPKP73S4MBLK,30UZJB2PPKSSO21QHKUJ0S8JS3B35M,3TXD01ZLD8XXDW8381CC7TOSZWZ4UM,1,2
131,3,object_03,object_06,673.10000000894,6,1,387.19999998808,0.7777777777777778,2,object_01,1,1914,0,1,7,library_6,2,memory-2step-stake-s,620,3668019,0.0-19.0-0.1-0.131,A2WPKP73S4MBLK,30UZJB2PPKSSO21QHKUJ0S8JS3B35M,3TXD01ZLD8XXDW8381CC7TOSZWZ4UM,6,5
132,4,object_02,object_10,858.20000000298,8,2,315.10000000894,0.8888888888888888,2,object_01,1,1922,0,3,8,restaurant_4,2,memory-2step-stake-s,621,3676433,0.0-19.0-0.1-0.132,A2WPKP73S4MBLK,30UZJB2PPKSSO21QHKUJ0S8JS3B35M,3TXD01ZLD8XXDW8381CC7TOSZWZ4UM,7,8
133,3,object_03,object_06,662.60000000894,6,1,187.5,0.6666666666666666,2,object_01,1,1928,0,5,6,library_7,2,memory-2step-stake-s,622,3684516,0.0-19.0-0.1-0.133,A2WPKP73S4MBLK,30UZJB2PPKSSO21QHKUJ0S8JS3B35M,3TXD01ZLD8XXDW8381CC7TOSZWZ4UM,6,5
134,4,object_10,object_02,682.29999999702,8,1,228.40000000596,0.2222222222222222,2,object_01,1,1930,0,5,2,restaurant_2,2,memory-2step-stake-s,623,3692231,0.0-19.0-0.1-0.134,A2WPKP73S4MBLK,30UZJB2PPKSSO21QHKUJ0S8JS3B35M,3TXD01ZLD8XXDW8381CC7TOSZWZ4UM,8,7
135,2,object_07,object_05,864.0,3,2,300.59999999404,0.4444444444444444,1,object_04,5,1950,0,4,2,forest_3,2,memory-2step-stake-s,624,3700199,0.0-19.0-0.1-0.135,A2WPKP73S4MBLK,30UZJB2PPKSSO21QHKUJ0S8JS3B35M,3TXD01ZLD8XXDW8381CC7TOSZWZ4UM,4,3
136,2,object_05,object_07,871.90000000596,3,1,268.89999999106,0.4444444444444444,1,object_04,5,1970,0,4,4,forest_7,2,memory-2step-stake-s,625,3708164,0.0-19.0-0.1-0.136,A2WPKP73S4MBLK,30UZJB2PPKSSO21QHKUJ0S8JS3B35M,3TXD01ZLD8XXDW8381CC7TOSZWZ4UM,3,4
137,4,object_02,object_10,882.40000000596,7,1,232.39999999106,0.5555555555555556,1,object_04,1,1975,0,5,7,restaurant_2,2,memory-2step-stake-s,626,3716206,0.0-19.0-0.1-0.137,A2WPKP73S4MBLK,30UZJB2PPKSSO21QHKUJ0S8JS3B35M,3TXD01ZLD8XXDW8381CC7TOSZWZ4UM,7,8
138,2,object_05,object_07,1261.1000000089,3,1,444.10000000894,0.3333333333333333,1,object_04,5,1990,0,3,8,forest_8,2,memory-2step-stake-s,627,3724202,0.0-19.0-0.1-0.138,A2WPKP73S4MBLK,30UZJB2PPKSSO21QHKUJ0S8JS3B35M,3TXD01ZLD8XXDW8381CC7TOSZWZ4UM,3,4
139,2,object_05,object_07,826.70000000298,4,2,283.80000001192,0.7777777777777778,2,object_01,5,2025,0,3,7,forest_8,2,memory-2step-stake-s,628,3732483,0.0-19.0-0.1-0.139,A2WPKP73S4MBLK,30UZJB2PPKSSO21QHKUJ0S8JS3B35M,3TXD01ZLD8XXDW8381CC7TOSZWZ4UM,3,4
140,2,object_07,object_05,827.39999999106,4,1,337.10000000894,0.5555555555555556,2,object_01,5,2050,0,1,5,forest_8,2,memory-2step-stake-s,629,3740614,0.0-19.0-0.1-0.140,A2WPKP73S4MBLK,30UZJB2PPKSSO21QHKUJ0S8JS3B35M,3TXD01ZLD8XXDW8381CC7TOSZWZ4UM,4,3
141,2,object_05,object_07,763.70000000298,4,2,143.0,0.2222222222222222,2,object_01,5,2060,0,0,2,forest_6,2,memory-2step-stake-s,630,3748241,0.0-19.0-0.1-0.141,A2WPKP73S4MBLK,30UZJB2PPKSSO21QHKUJ0S8JS3B35M,3TXD01ZLD8XXDW8381CC7TOSZWZ4UM,3,4
142,4,object_10,object_02,999.70000000298,7,2,239.79999999702,0.0,1,object_04,1,2060,0,0,4,restaurant_2,2,memory-2step-stake-s,631,3755737,0.0-19.0-0.1-0.142,A2WPKP73S4MBLK,30UZJB2PPKSSO21QHKUJ0S8JS3B35M,3TXD01ZLD8XXDW8381CC7TOSZWZ4UM,8,7
143,3,object_06,object_03,799.70000000298,6,2,247.90000000596,0.5555555555555556,2,object_01,1,2065,0,0,5,library_8,2,memory-2step-stake-s,632,3763759,0.0-19.0-0.1-0.143,A2WPKP73S4MBLK,30UZJB2PPKSSO21QHKUJ0S8JS3B35M,3TXD01ZLD8XXDW8381CC7TOSZWZ4UM,5,6
144,3,object_03,object_06,612.89999999106,6,1,325.39999999106,0.4444444444444444,2,object_01,1,2069,0,3,4,library_1,2,memory-2step-stake-s,633,3771738,0.0-19.0-0.1-0.144,A2WPKP73S4MBLK,30UZJB2PPKSSO21QHKUJ0S8JS3B35M,3TXD01ZLD8XXDW8381CC7TOSZWZ4UM,6,5
145,1,object_09,object_08,685.89999999106,2,1,17.699999988079,0.6666666666666666,2,object_01,5,2099,0,3,6,desert_6,2,memory-2step-stake-s,634,3779646,0.0-19.0-0.1-0.145,A2WPKP73S4MBLK,30UZJB2PPKSSO21QHKUJ0S8JS3B35M,3TXD01ZLD8XXDW8381CC7TOSZWZ4UM,2,1
146,4,object_10,object_02,721.40000000596,8,1,169.09999999404,0.7777777777777778,2,object_01,1,2106,0,3,7,restaurant_2,2,memory-2step-stake-s,635,3787803,0.0-19.0-0.1-0.146,A2WPKP73S4MBLK,30UZJB2PPKSSO21QHKUJ0S8JS3B35M,3TXD01ZLD8XXDW8381CC7TOSZWZ4UM,8,7
147,4,object_10,object_02,663.70000000298,8,1,213.10000000894,0.7777777777777778,2,object_01,1,2113,0,3,7,restaurant_5,2,memory-2step-stake-s,636,3795982,0.0-19.0-0.1-0.147,A2WPKP73S4MBLK,30UZJB2PPKSSO21QHKUJ0S8JS3B35M,3TXD01ZLD8XXDW8381CC7TOSZWZ4UM,8,7
148,4,object_02,object_10,785.09999999404,8,2,294.0,0.4444444444444444,2,object_01,5,2133,0,1,4,restaurant_3,2,memory-2step-stake-s,637,3803958,0.0-19.0-0.1-0.148,A2WPKP73S4MBLK,30UZJB2PPKSSO21QHKUJ0S8JS3B35M,3TXD01ZLD8XXDW8381CC7TOSZWZ4UM,7,8
149,4,object_10,object_02,692.0,8,1,228.79999999702,0.4444444444444444,2,object_01,1,2137,0,1,4,restaurant_5,2,memory-2step-stake-s,638,3811836,0.0-19.0-0.1-0.149,A2WPKP73S4MBLK,30UZJB2PPKSSO21QHKUJ0S8JS3B35M,3TXD01ZLD8XXDW8381CC7TOSZWZ4UM,8,7
150,3,object_06,object_03,650.0,6,2,214.89999999106,0.4444444444444444,2,object_01,1,2141,0,0,4,library_1,2,memory-2step-stake-s,639,3819737,0.0-19.0-0.1-0.150,A2WPKP73S4MBLK,30UZJB2PPKSSO21QHKUJ0S8JS3B35M,3TXD01ZLD8XXDW8381CC7TOSZWZ4UM,5,6
151,2,object_07,object_05,911.29999999702,4,1,323.80000001192,0.5555555555555556,2,object_01,5,2166,0,4,5,forest_6,2,memory-2step-stake-s,640,3827817,0.0-19.0-0.1-0.151,A2WPKP73S4MBLK,30UZJB2PPKSSO21QHKUJ0S8JS3B35M,3TXD01ZLD8XXDW8381CC7TOSZWZ4UM,4,3
152,2,object_07,object_05,1058.900000006,4,1,364.40000000596,0.3333333333333333,2,object_01,5,2181,0,2,3,forest_3,2,memory-2step-stake-s,641,3835744,0.0-19.0-0.1-0.152,A2WPKP73S4MBLK,30UZJB2PPKSSO21QHKUJ0S8JS3B35M,3TXD01ZLD8XXDW8381CC7TOSZWZ4UM,4,3
153,1,object_08,object_09,464.40000000596,2,2,265.0,0.2222222222222222,2,object_01,5,2191,0,2,2,desert_3,2,memory-2step-stake-s,642,3843473,0.0-19.0-0.1-0.153,A2WPKP73S4MBLK,30UZJB2PPKSSO21QHKUJ0S8JS3B35M,3TXD01ZLD8XXDW8381CC7TOSZWZ4UM,1,2
154,4,object_10,object_02,804.29999999702,7,2,315.0,0.1111111111111111,1,object_04,5,2196,0,1,4,restaurant_4,2,memory-2step-stake-s,643,3851137,0.0-19.0-0.1-0.154,A2WPKP73S4MBLK,30UZJB2PPKSSO21QHKUJ0S8JS3B35M,3TXD01ZLD8XXDW8381CC7TOSZWZ4UM,8,7
155,3,object_06,object_03,674.59999999404,6,2,251.29999999702,0.2222222222222222,2,object_01,5,2206,0,3,2,library_1,2,memory-2step-stake-s,644,3858862,0.0-19.0-0.1-0.155,A2WPKP73S4MBLK,30UZJB2PPKSSO21QHKUJ0S8JS3B35M,3TXD01ZLD8XXDW8381CC7TOSZWZ4UM,5,6
156,3,object_03,object_06,695.09999999404,5,2,320.40000000596,0.7777777777777778,1,object_04,5,2241,0,7,6,library_1,2,memory-2step-stake-s,645,3867172,0.0-19.0-0.1-0.156,A2WPKP73S4MBLK,30UZJB2PPKSSO21QHKUJ0S8JS3B35M,3TXD01ZLD8XXDW8381CC7TOSZWZ4UM,6,5
157,3,object_06,object_03,883.60000000894,5,1,266.09999999404,0.6666666666666666,1,object_04,1,2247,0,6,4,library_8,2,memory-2step-stake-s,646,3875307,0.0-19.0-0.1-0.157,A2WPKP73S4MBLK,30UZJB2PPKSSO21QHKUJ0S8JS3B35M,3TXD01ZLD8XXDW8381CC7TOSZWZ4UM,5,6
158,2,object_07,object_05,1069.6000000089,3,2,324.0,0.7777777777777778,1,object_04,5,2282,0,7,7,forest_3,2,memory-2step-stake-s,647,3883632,0.0-19.0-0.1-0.158,A2WPKP73S4MBLK,30UZJB2PPKSSO21QHKUJ0S8JS3B35M,3TXD01ZLD8XXDW8381CC7TOSZWZ4UM,4,3
159,2,object_07,object_05,581.39999999106,3,2,19.90000000596,0.6666666666666666,1,object_04,5,2312,0,6,5,forest_7,2,memory-2step-stake-s,648,3891507,0.0-19.0-0.1-0.159,A2WPKP73S4MBLK,30UZJB2PPKSSO21QHKUJ0S8JS3B35M,3TXD01ZLD8XXDW8381CC7TOSZWZ4UM,4,3
160,4,object_10,object_02,687.69999998808,7,2,223.90000000596,0.5555555555555556,1,object_04,5,2337,0,5,6,restaurant_5,2,memory-2step-stake-s,649,3899489,0.0-19.0-0.1-0.160,A2WPKP73S4MBLK,30UZJB2PPKSSO21QHKUJ0S8JS3B35M,3TXD01ZLD8XXDW8381CC7TOSZWZ4UM,8,7
161,4,object_02,object_10,1105.200000003,8,2,358.70000000298,1.0,2,object_01,1,2346,0,7,9,restaurant_3,2,memory-2step-stake-s,650,3908040,0.0-19.0-0.1-0.161,A2WPKP73S4MBLK,30UZJB2PPKSSO21QHKUJ0S8JS3B35M,3TXD01ZLD8XXDW8381CC7TOSZWZ4UM,7,8
162,2,object_07,object_05,894.70000000298,4,1,298.30000001192,0.6666666666666666,2,object_01,1,2352,0,6,6,forest_3,2,memory-2step-stake-s,651,3916234,0.0-19.0-0.1-0.162,A2WPKP73S4MBLK,30UZJB2PPKSSO21QHKUJ0S8JS3B35M,3TXD01ZLD8XXDW8381CC7TOSZWZ4UM,4,3
163,3,object_06,object_03,705.60000000894,6,2,297.30000001192,0.5555555555555556,2,object_01,1,2357,0,5,5,library_7,2,memory-2step-stake-s,652,3924300,0.0-19.0-0.1-0.163,A2WPKP73S4MBLK,30UZJB2PPKSSO21QHKUJ0S8JS3B35M,3TXD01ZLD8XXDW8381CC7TOSZWZ4UM,5,6
164,2,object_05,object_07,485.70000000298,3,1,257.5,0.7777777777777778,1,object_04,5,2392,0,7,4,forest_7,2,memory-2step-stake-s,653,3932554,0.0-19.0-0.1-0.164,A2WPKP73S4MBLK,30UZJB2PPKSSO21QHKUJ0S8JS3B35M,3TXD01ZLD8XXDW8381CC7TOSZWZ4UM,3,4
165,1,object_09,object_08,832.30000001192,1,2,263.0,0.6666666666666666,1,object_04,5,2422,0,6,3,desert_5,2,memory-2step-stake-s,654,3940721,0.0-19.0-0.1-0.165,A2WPKP73S4MBLK,30UZJB2PPKSSO21QHKUJ0S8JS3B35M,3TXD01ZLD8XXDW8381CC7TOSZWZ4UM,2,1
166,2,object_07,object_05,1063.1000000089,3,2,326.09999999404,0.6666666666666666,1,object_04,5,2452,0,6,2,forest_3,2,memory-2step-stake-s,655,3948958,0.0-19.0-0.1-0.166,A2WPKP73S4MBLK,30UZJB2PPKSSO21QHKUJ0S8JS3B35M,3TXD01ZLD8XXDW8381CC7TOSZWZ4UM,4,3
167,3,object_03,object_06,686.29999999702,5,2,181.69999998808,0.6666666666666666,1,object_04,5,2482,0,6,2,library_7,2,memory-2step-stake-s,656,3957023,0.0-19.0-0.1-0.167,A2WPKP73S4MBLK,30UZJB2PPKSSO21QHKUJ0S8JS3B35M,3TXD01ZLD8XXDW8381CC7TOSZWZ4UM,6,5
168,1,object_09,object_08,653.5,1,2,385.70000000298,0.8888888888888888,1,object_04,5,2522,0,8,3,desert_3,2,memory-2step-stake-s,657,3965513,0.0-19.0-0.1-0.168,A2WPKP73S4MBLK,30UZJB2PPKSSO21QHKUJ0S8JS3B35M,3TXD01ZLD8XXDW8381CC7TOSZWZ4UM,2,1
169,2,object_05,object_07,1021.1999999881,3,1,345.90000000596,0.5555555555555556,1,object_04,5,2547,0,5,4,forest_7,2,memory-2step-stake-s,658,3973655,0.0-19.0-0.1-0.169,A2WPKP73S4MBLK,30UZJB2PPKSSO21QHKUJ0S8JS3B35M,3TXD01ZLD8XXDW8381CC7TOSZWZ4UM,3,4
170,3,object_06,object_03,1274.6000000089,5,1,491.20000000298,0.4444444444444444,1,object_04,1,2551,0,4,2,library_6,2,memory-2step-stake-s,659,3981842,0.0-19.0-0.1-0.170,A2WPKP73S4MBLK,30UZJB2PPKSSO21QHKUJ0S8JS3B35M,3TXD01ZLD8XXDW8381CC7TOSZWZ4UM,5,6
171,2,object_07,object_05,921.40000000596,4,1,458.0,0.4444444444444444,2,object_01,1,2555,0,5,4,forest_6,2,memory-2step-stake-s,660,3989968,0.0-19.0-0.1-0.171,A2WPKP73S4MBLK,30UZJB2PPKSSO21QHKUJ0S8JS3B35M,3TXD01ZLD8XXDW8381CC7TOSZWZ4UM,4,3
172,1,object_09,object_08,667.5,2,1,249.70000000298,0.6666666666666666,2,object_01,5,2585,0,6,6,desert_5,2,memory-2step-stake-s,661,3998064,0.0-19.0-0.1-0.172,A2WPKP73S4MBLK,30UZJB2PPKSSO21QHKUJ0S8JS3B35M,3TXD01ZLD8XXDW8381CC7TOSZWZ4UM,2,1
173,1,object_09,object_08,622.70000000298,2,1,362.89999999106,0.7777777777777778,2,object_01,5,2620,0,6,7,desert_6,2,memory-2step-stake-s,662,4006425,0.0-19.0-0.1-0.173,A2WPKP73S4MBLK,30UZJB2PPKSSO21QHKUJ0S8JS3B35M,3TXD01ZLD8XXDW8381CC7TOSZWZ4UM,2,1
174,1,object_09,object_08,453.5,2,1,210.19999998808,0.6666666666666666,2,object_01,5,2650,0,5,6,desert_1,2,memory-2step-stake-s,663,4014511,0.0-19.0-0.1-0.174,A2WPKP73S4MBLK,30UZJB2PPKSSO21QHKUJ0S8JS3B35M,3TXD01ZLD8XXDW8381CC7TOSZWZ4UM,2,1
175,2,object_05,object_07,853.60000000894,4,2,270.89999999106,0.5555555555555556,2,object_01,1,2655,0,6,5,forest_3,2,memory-2step-stake-s,664,4022545,0.0-19.0-0.1-0.175,A2WPKP73S4MBLK,30UZJB2PPKSSO21QHKUJ0S8JS3B35M,3TXD01ZLD8XXDW8381CC7TOSZWZ4UM,3,4
176,4,object_10,object_02,881.60000000894,8,1,376.5,0.5555555555555556,2,object_01,1,2660,0,7,5,restaurant_5,2,memory-2step-stake-s,665,4030689,0.0-19.0-0.1-0.176,A2WPKP73S4MBLK,30UZJB2PPKSSO21QHKUJ0S8JS3B35M,3TXD01ZLD8XXDW8381CC7TOSZWZ4UM,8,7
177,2,object_05,object_07,784.19999998808,4,2,203.09999999404,0.5555555555555556,2,object_01,5,2685,0,9,5,forest_8,2,memory-2step-stake-s,666,4038692,0.0-19.0-0.1-0.177,A2WPKP73S4MBLK,30UZJB2PPKSSO21QHKUJ0S8JS3B35M,3TXD01ZLD8XXDW8381CC7TOSZWZ4UM,3,4
178,1,object_09,object_08,514.09999999404,2,1,427.29999999702,0.3333333333333333,2,object_01,1,2688,0,7,3,desert_1,2,memory-2step-stake-s,667,4046685,0.0-19.0-0.1-0.178,A2WPKP73S4MBLK,30UZJB2PPKSSO21QHKUJ0S8JS3B35M,3TXD01ZLD8XXDW8381CC7TOSZWZ4UM,2,1
179,1,object_09,object_08,468.89999999106,1,2,296.70000000298,1.0,1,object_04,5,2733,0,9,5,desert_6,2,memory-2step-stake-s,668,4055187,0.0-19.0-0.1-0.179,A2WPKP73S4MBLK,30UZJB2PPKSSO21QHKUJ0S8JS3B35M,3TXD01ZLD8XXDW8381CC7TOSZWZ4UM,2,1
180,4,object_02,object_10,887.20000000298,7,1,331.79999999702,0.7777777777777778,1,object_04,5,2768,0,7,5,restaurant_2,2,memory-2step-stake-s,669,4063522,0.0-19.0-0.1-0.180,A2WPKP73S4MBLK,30UZJB2PPKSSO21QHKUJ0S8JS3B35M,3TXD01ZLD8XXDW8381CC7TOSZWZ4UM,7,8
181,2,object_07,object_05,910.70000000298,4,1,228.80000001192,0.5555555555555556,2,object_01,5,2793,0,8,5,forest_8,2,memory-2step-stake-s,670,4071547,0.0-19.0-0.1-0.181,A2WPKP73S4MBLK,30UZJB2PPKSSO21QHKUJ0S8JS3B35M,3TXD01ZLD8XXDW8381CC7TOSZWZ4UM,4,3
182,1,object_08,object_09,753.20000000298,1,1,281.89999999106,1.0,1,object_04,1,2802,0,9,4,desert_5,2,memory-2step-stake-s,671,4080017,0.0-19.0-0.1-0.182,A2WPKP73S4MBLK,30UZJB2PPKSSO21QHKUJ0S8JS3B35M,3TXD01ZLD8XXDW8381CC7TOSZWZ4UM,1,2
183,2,object_05,object_07,759.09999999404,3,1,289.09999999404,0.7777777777777778,1,object_04,5,2837,0,7,7,forest_8,2,memory-2step-stake-s,672,4088300,0.0-19.0-0.1-0.183,A2WPKP73S4MBLK,30UZJB2PPKSSO21QHKUJ0S8JS3B35M,3TXD01ZLD8XXDW8381CC7TOSZWZ4UM,3,4
184,3,object_06,object_03,815.0,5,1,248.09999999404,0.5555555555555556,1,object_04,1,2842,0,5,8,library_1,2,memory-2step-stake-s,673,4096307,0.0-19.0-0.1-0.184,A2WPKP73S4MBLK,30UZJB2PPKSSO21QHKUJ0S8JS3B35M,3TXD01ZLD8XXDW8381CC7TOSZWZ4UM,5,6
185,3,object_06,object_03,691.10000000894,6,2,266.70000000298,0.7777777777777778,2,object_01,1,2849,0,2,7,library_6,2,memory-2step-stake-s,674,4104555,0.0-19.0-0.1-0.185,A2WPKP73S4MBLK,30UZJB2PPKSSO21QHKUJ0S8JS3B35M,3TXD01ZLD8XXDW8381CC7TOSZWZ4UM,5,6
186,3,object_06,object_03,438.0,6,2,254.5,0.6666666666666666,2,object_01,1,2855,0,1,6,library_6,2,memory-2step-stake-s,675,4112688,0.0-19.0-0.1-0.186,A2WPKP73S4MBLK,30UZJB2PPKSSO21QHKUJ0S8JS3B35M,3TXD01ZLD8XXDW8381CC7TOSZWZ4UM,5,6
187,3,object_03,object_06,586.19999998808,6,1,15.40000000596,0.8888888888888888,2,object_01,1,2863,0,0,8,library_7,2,memory-2step-stake-s,676,4120792,0.0-19.0-0.1-0.187,A2WPKP73S4MBLK,30UZJB2PPKSSO21QHKUJ0S8JS3B35M,3TXD01ZLD8XXDW8381CC7TOSZWZ4UM,6,5
188,1,object_09,object_08,798.29999999702,2,1,244.20000000298,0.8888888888888888,2,object_01,5,2903,0,3,8,desert_6,2,memory-2step-stake-s,677,4129122,0.0-19.0-0.1-0.188,A2WPKP73S4MBLK,30UZJB2PPKSSO21QHKUJ0S8JS3B35M,3TXD01ZLD8XXDW8381CC7TOSZWZ4UM,2,1
189,3,object_06,object_03,560.5,6,2,460.59999999404,0.7777777777777778,2,object_01,5,2938,0,2,7,library_6,2,memory-2step-stake-s,678,4137559,0.0-19.0-0.1-0.189,A2WPKP73S4MBLK,30UZJB2PPKSSO21QHKUJ0S8JS3B35M,3TXD01ZLD8XXDW8381CC7TOSZWZ4UM,5,6
190,2,object_07,object_05,1023.099999994,4,1,318.30000001192,0.8888888888888888,2,object_01,5,2978,0,1,8,forest_6,2,memory-2step-stake-s,679,4145985,0.0-19.0-0.1-0.190,A2WPKP73S4MBLK,30UZJB2PPKSSO21QHKUJ0S8JS3B35M,3TXD01ZLD8XXDW8381CC7TOSZWZ4UM,4,3
191,2,object_07,object_05,713.70000000298,4,1,252.20000000298,0.8888888888888888,2,object_01,1,2986,0,3,8,forest_8,2,memory-2step-stake-s,680,4154325,0.0-19.0-0.1-0.191,A2WPKP73S4MBLK,30UZJB2PPKSSO21QHKUJ0S8JS3B35M,3TXD01ZLD8XXDW8381CC7TOSZWZ4UM,4,3
192,3,object_06,object_03,669.60000000894,6,2,269.20000000298,0.8888888888888888,2,object_01,1,2994,0,5,8,library_8,2,memory-2step-stake-s,681,4162666,0.0-19.0-0.1-0.192,A2WPKP73S4MBLK,30UZJB2PPKSSO21QHKUJ0S8JS3B35M,3TXD01ZLD8XXDW8381CC7TOSZWZ4UM,5,6
193,4,object_02,object_10,682.90000000596,8,2,585.60000000894,0.8888888888888888,2,object_01,1,3002,0,2,8,restaurant_5,2,memory-2step-stake-s,682,4171363,0.0-19.0-0.1-0.193,A2WPKP73S4MBLK,30UZJB2PPKSSO21QHKUJ0S8JS3B35M,3TXD01ZLD8XXDW8381CC7TOSZWZ4UM,7,8
194,1,object_08,object_09,500.5,2,2,279.5,1.0,2,object_01,5,3047,0,3,9,desert_5,2,memory-2step-stake-s,683,4179859,0.0-19.0-0.1-0.194,A2WPKP73S4MBLK,30UZJB2PPKSSO21QHKUJ0S8JS3B35M,3TXD01ZLD8XXDW8381CC7TOSZWZ4UM,1,2
195,4,object_10,object_02,714.40000000596,8,1,216.70000000298,0.7777777777777778,2,object_01,5,3082,0,4,7,restaurant_3,2,memory-2step-stake-s,684,4188059,0.0-19.0-0.1-0.195,A2WPKP73S4MBLK,30UZJB2PPKSSO21QHKUJ0S8JS3B35M,3TXD01ZLD8XXDW8381CC7TOSZWZ4UM,8,7
196,3,object_06,object_03,561.0,6,2,307.5,0.7777777777777778,2,object_01,5,3117,0,2,7,library_7,2,memory-2step-stake-s,685,4196341,0.0-19.0-0.1-0.196,A2WPKP73S4MBLK,30UZJB2PPKSSO21QHKUJ0S8JS3B35M,3TXD01ZLD8XXDW8381CC7TOSZWZ4UM,5,6
197,2,object_07,object_05,838.40000000596,4,1,490.39999999106,0.5555555555555556,2,object_01,5,3142,0,4,5,forest_8,2,memory-2step-stake-s,686,4204595,0.0-19.0-0.1-0.197,A2WPKP73S4MBLK,30UZJB2PPKSSO21QHKUJ0S8JS3B35M,3TXD01ZLD8XXDW8381CC7TOSZWZ4UM,4,3
198,2,object_05,object_07,880.5,3,1,266.40000000596,0.4444444444444444,1,object_04,1,3146,0,4,2,forest_8,2,memory-2step-stake-s,687,4212532,0.0-19.0-0.1-0.198,A2WPKP73S4MBLK,30UZJB2PPKSSO21QHKUJ0S8JS3B35M,3TXD01ZLD8XXDW8381CC7TOSZWZ4UM,3,4
199,4,object_02,object_10,789.29999999702,7,1,433.90000000596,0.5555555555555556,1,object_04,1,3151,0,5,1,restaurant_4,2,memory-2step-stake-s,688,4220767,0.0-19.0-0.1-0.199,A2WPKP73S4MBLK,30UZJB2PPKSSO21QHKUJ0S8JS3B35M,3TXD01ZLD8XXDW8381CC7TOSZWZ4UM,7,8
200,3,object_03,object_06,956.0,5,2,282.70000000298,0.6666666666666666,1,object_04,1,3157,0,6,2,library_7,2,memory-2step-stake-s,689,4228969,0.0-19.0-0.1-0.200,A2WPKP73S4MBLK,30UZJB2PPKSSO21QHKUJ0S8JS3B35M,3TXD01ZLD8XXDW8381CC7TOSZWZ4UM,6,5
201,2,object_07,object_05,884.09999999404,3,2,213.39999999106,0.7777777777777778,1,object_04,5,3192,0,7,1,forest_7,2,memory-2step-stake-s,690,4237188,0.0-19.0-0.1-0.201,A2WPKP73S4MBLK,30UZJB2PPKSSO21QHKUJ0S8JS3B35M,3TXD01ZLD8XXDW8381CC7TOSZWZ4UM,4,3
202,3,object_03,object_06,611.40000000596,5,2,270.0,0.8888888888888888,1,object_04,1,3200,0,8,4,library_8,2,memory-2step-stake-s,691,4245540,0.0-19.0-0.1-0.202,A2WPKP73S4MBLK,30UZJB2PPKSSO21QHKUJ0S8JS3B35M,3TXD01ZLD8XXDW8381CC7TOSZWZ4UM,6,5
203,4,object_02,object_10,807.40000000596,7,1,264.79999999702,1.0,1,object_04,1,3209,0,9,7,restaurant_2,2,memory-2step-stake-s,692,4254035,0.0-19.0-0.1-0.203,A2WPKP73S4MBLK,30UZJB2PPKSSO21QHKUJ0S8JS3B35M,3TXD01ZLD8XXDW8381CC7TOSZWZ4UM,7,8
204,1,object_09,object_08,878.5,1,2,529.20000000298,0.7777777777777778,1,object_04,5,3244,0,7,9,desert_6,2,memory-2step-stake-s,693,4262575,0.0-19.0-0.1-0.204,A2WPKP73S4MBLK,30UZJB2PPKSSO21QHKUJ0S8JS3B35M,3TXD01ZLD8XXDW8381CC7TOSZWZ4UM,2,1
205,2,object_07,object_05,856.20000000298,4,1,315.29999999702,0.8888888888888888,2,object_01,1,3252,0,5,8,forest_6,2,memory-2step-stake-s,694,4270992,0.0-19.0-0.1-0.205,A2WPKP73S4MBLK,30UZJB2PPKSSO21QHKUJ0S8JS3B35M,3TXD01ZLD8XXDW8381CC7TOSZWZ4UM,4,3
206,4,object_10,object_02,699.59999999404,8,1,387.29999999702,0.7777777777777778,2,object_01,1,3259,0,8,7,restaurant_5,2,memory-2step-stake-s,695,4279358,0.0-19.0-0.1-0.206,A2WPKP73S4MBLK,30UZJB2PPKSSO21QHKUJ0S8JS3B35M,3TXD01ZLD8XXDW8381CC7TOSZWZ4UM,8,7
207,3,object_06,object_03,579.40000000596,6,2,214.40000000596,0.7777777777777778,2,object_01,5,3294,0,8,7,library_6,2,memory-2step-stake-s,696,4287569,0.0-19.0-0.1-0.207,A2WPKP73S4MBLK,30UZJB2PPKSSO21QHKUJ0S8JS3B35M,3TXD01ZLD8XXDW8381CC7TOSZWZ4UM,5,6
208,4,object_02,object_10,642.59999999404,8,2,212.89999999106,0.7777777777777778,2,object_01,5,3329,0,4,7,restaurant_3,2,memory-2step-stake-s,697,4295755,0.0-19.0-0.1-0.208,A2WPKP73S4MBLK,30UZJB2PPKSSO21QHKUJ0S8JS3B35M,3TXD01ZLD8XXDW8381CC7TOSZWZ4UM,7,8
209,3,object_03,object_06,598.29999999702,6,1,208.90000000596,0.6666666666666666,2,object_01,1,3335,0,7,6,library_8,2,memory-2step-stake-s,698,4303847,0.0-19.0-0.1-0.209,A2WPKP73S4MBLK,30UZJB2PPKSSO21QHKUJ0S8JS3B35M,3TXD01ZLD8XXDW8381CC7TOSZWZ4UM,6,5
210,1,object_08,object_09,1115.299999997,1,1,349.29999999702,0.8888888888888888,1,object_04,5,3375,0,8,7,desert_6,2,memory-2step-stake-s,699,4312285,0.0-19.0-0.1-0.210,A2WPKP73S4MBLK,30UZJB2PPKSSO21QHKUJ0S8JS3B35M,3TXD01ZLD8XXDW8381CC7TOSZWZ4UM,1,2
211,1,object_08,object_09,733.90000000596,1,1,301.70000000298,0.5555555555555556,1,object_04,1,3380,0,5,8,desert_6,2,memory-2step-stake-s,700,4320355,0.0-19.0-0.1-0.211,A2WPKP73S4MBLK,30UZJB2PPKSSO21QHKUJ0S8JS3B35M,3TXD01ZLD8XXDW8381CC7TOSZWZ4UM,1,2
212,3,object_06,object_03,768.20000000298,5,1,301.5,0.5555555555555556,1,object_04,1,3385,0,5,8,library_8,2,memory-2step-stake-s,701,4328434,0.0-19.0-0.1-0.212,A2WPKP73S4MBLK,30UZJB2PPKSSO21QHKUJ0S8JS3B35M,3TXD01ZLD8XXDW8381CC7TOSZWZ4UM,5,6
213,3,object_03,object_06,619.59999999404,6,1,251.90000000596,0.5555555555555556,2,object_01,1,3390,0,6,5,library_8,2,memory-2step-stake-s,702,4336466,0.0-19.0-0.1-0.213,A2WPKP73S4MBLK,30UZJB2PPKSSO21QHKUJ0S8JS3B35M,3TXD01ZLD8XXDW8381CC7TOSZWZ4UM,6,5
214,2,object_07,object_05,760.70000000298,4,1,414.89999999106,0.7777777777777778,2,object_01,5,3425,0,2,7,forest_7,2,memory-2step-stake-s,703,4344836,0.0-19.0-0.1-0.214,A2WPKP73S4MBLK,30UZJB2PPKSSO21QHKUJ0S8JS3B35M,3TXD01ZLD8XXDW8381CC7TOSZWZ4UM,4,3
215,1,object_08,object_09,744.59999999404,2,2,265.80000001192,0.8888888888888888,2,object_01,5,3465,0,4,8,desert_3,2,memory-2step-stake-s,704,4353165,0.0-19.0-0.1-0.215,A2WPKP73S4MBLK,30UZJB2PPKSSO21QHKUJ0S8JS3B35M,3TXD01ZLD8XXDW8381CC7TOSZWZ4UM,1,2
216,2,object_05,object_07,726.0,4,2,243.70000000298,0.8888888888888888,2,object_01,5,3505,0,6,8,forest_8,2,memory-2step-stake-s,705,4361491,0.0-19.0-0.1-0.216,A2WPKP73S4MBLK,30UZJB2PPKSSO21QHKUJ0S8JS3B35M,3TXD01ZLD8XXDW8381CC7TOSZWZ4UM,3,4
217,4,object_10,object_02,769.0,8,1,238.79999999702,0.4444444444444444,2,object_01,1,3509,0,8,4,restaurant_4,2,memory-2step-stake-s,706,4369408,0.0-19.0-0.1-0.217,A2WPKP73S4MBLK,30UZJB2PPKSSO21QHKUJ0S8JS3B35M,3TXD01ZLD8XXDW8381CC7TOSZWZ4UM,8,7
218,4,object_10,object_02,924.39999999106,7,2,269.79999999702,1.0,1,object_04,5,3554,0,9,8,restaurant_3,2,memory-2step-stake-s,707,4377863,0.0-19.0-0.1-0.218,A2WPKP73S4MBLK,30UZJB2PPKSSO21QHKUJ0S8JS3B35M,3TXD01ZLD8XXDW8381CC7TOSZWZ4UM,8,7
219,4,object_10,object_02,865.70000000298,7,2,315.10000000894,0.8888888888888888,1,object_04,1,3562,0,8,9,restaurant_2,2,memory-2step-stake-s,708,4386289,0.0-19.0-0.1-0.219,A2WPKP73S4MBLK,30UZJB2PPKSSO21QHKUJ0S8JS3B35M,3TXD01ZLD8XXDW8381CC7TOSZWZ4UM,8,7
220,1,object_08,object_09,603.09999999404,1,1,59.29999999702,0.7777777777777778,1,object_04,5,3597,0,7,6,desert_3,2,memory-2step-stake-s,709,4394332,0.0-19.0-0.1-0.220,A2WPKP73S4MBLK,30UZJB2PPKSSO21QHKUJ0S8JS3B35M,3TXD01ZLD8XXDW8381CC7TOSZWZ4UM,1,2
221,1,object_08,object_09,669.5,1,1,0.19999998807907,1.0,1,object_04,5,3642,0,9,5,desert_5,2,memory-2step-stake-s,710,4402521,0.0-19.0-0.1-0.221,A2WPKP73S4MBLK,30UZJB2PPKSSO21QHKUJ0S8JS3B35M,3TXD01ZLD8XXDW8381CC7TOSZWZ4UM,1,2
222,4,object_02,object_10,849.20000000298,7,1,294.79999999702,0.8888888888888888,1,object_04,5,3682,0,8,7,restaurant_4,2,memory-2step-stake-s,711,4410886,0.0-19.0-0.1-0.222,A2WPKP73S4MBLK,30UZJB2PPKSSO21QHKUJ0S8JS3B35M,3TXD01ZLD8XXDW8381CC7TOSZWZ4UM,7,8
223,2,object_05,object_07,797.29999999702,3,1,186.5,0.5555555555555556,1,object_04,5,3707,0,5,6,forest_6,2,memory-2step-stake-s,712,4418838,0.0-19.0-0.1-0.223,A2WPKP73S4MBLK,30UZJB2PPKSSO21QHKUJ0S8JS3B35M,3TXD01ZLD8XXDW8381CC7TOSZWZ4UM,3,4
224,3,object_06,object_03,573.5,6,2,273.60000000894,0.7777777777777778,2,object_01,1,3714,0,3,7,library_1,2,memory-2step-stake-s,713,4427104,0.0-19.0-0.1-0.224,A2WPKP73S4MBLK,30UZJB2PPKSSO21QHKUJ0S8JS3B35M,3TXD01ZLD8XXDW8381CC7TOSZWZ4UM,5,6
225,2,object_07,object_05,730.5,4,1,327.90000000596,0.7777777777777778,2,object_01,1,3721,0,3,7,forest_7,2,memory-2step-stake-s,714,4435410,0.0-19.0-0.1-0.225,A2WPKP73S4MBLK,30UZJB2PPKSSO21QHKUJ0S8JS3B35M,3TXD01ZLD8XXDW8381CC7TOSZWZ4UM,4,3
226,1,object_09,object_08,618.0,2,1,252.90000000596,0.5555555555555556,2,object_01,1,3726,0,1,5,desert_3,2,memory-2step-stake-s,715,4443432,0.0-19.0-0.1-0.226,A2WPKP73S4MBLK,30UZJB2PPKSSO21QHKUJ0S8JS3B35M,3TXD01ZLD8XXDW8381CC7TOSZWZ4UM,2,1
227,2,object_05,object_07,616.0,3,1,259.09999999404,0.0,1,object_04,5,3726,0,0,5,forest_6,2,memory-2step-stake-s,716,4450950,0.0-19.0-0.1-0.227,A2WPKP73S4MBLK,30UZJB2PPKSSO21QHKUJ0S8JS3B35M,3TXD01ZLD8XXDW8381CC7TOSZWZ4UM,3,4
228,1,object_09,object_08,549.09999999404,2,1,63.79999999702,0.6666666666666666,2,object_01,5,3756,0,0,6,desert_1,2,memory-2step-stake-s,717,4458886,0.0-19.0-0.1-0.228,A2WPKP73S4MBLK,30UZJB2PPKSSO21QHKUJ0S8JS3B35M,3TXD01ZLD8XXDW8381CC7TOSZWZ4UM,2,1
229,1,object_08,object_09,521.20000000298,2,2,262.70000000298,0.7777777777777778,2,object_01,1,3763,0,1,7,desert_3,2,memory-2step-stake-s,718,4467149,0.0-19.0-0.1-0.229,A2WPKP73S4MBLK,30UZJB2PPKSSO21QHKUJ0S8JS3B35M,3TXD01ZLD8XXDW8381CC7TOSZWZ4UM,1,2
230,3,object_03,object_06,693.90000000596,6,1,226.79999999702,0.6666666666666666,2,object_01,5,3793,0,1,6,library_7,2,memory-2step-stake-s,719,4475270,0.0-19.0-0.1-0.230,A2WPKP73S4MBLK,30UZJB2PPKSSO21QHKUJ0S8JS3B35M,3TXD01ZLD8XXDW8381CC7TOSZWZ4UM,6,5
231,2,object_07,object_05,739.5,4,1,252.20000000298,0.8888888888888888,2,object_01,5,3833,0,1,8,forest_6,2,memory-2step-stake-s,720,4483623,0.0-19.0-0.1-0.231,A2WPKP73S4MBLK,30UZJB2PPKSSO21QHKUJ0S8JS3B35M,3TXD01ZLD8XXDW8381CC7TOSZWZ4UM,4,3
232,4,object_02,object_10,914.70000000298,8,2,328.0,0.5555555555555556,2,object_01,1,3838,0,2,5,restaurant_4,2,memory-2step-stake-s,721,4491715,0.0-19.0-0.1-0.232,A2WPKP73S4MBLK,30UZJB2PPKSSO21QHKUJ0S8JS3B35M,3TXD01ZLD8XXDW8381CC7TOSZWZ4UM,7,8
233,3,object_06,object_03,815.10000000894,5,1,355.0,0.1111111111111111,1,object_04,1,3839,0,1,5,library_1,2,memory-2step-stake-s,722,4499446,0.0-19.0-0.1-0.233,A2WPKP73S4MBLK,30UZJB2PPKSSO21QHKUJ0S8JS3B35M,3TXD01ZLD8XXDW8381CC7TOSZWZ4UM,5,6
234,4,object_10,object_02,914.0,8,1,226.29999999702,0.4444444444444444,2,object_01,1,3843,0,3,4,restaurant_4,2,memory-2step-stake-s,723,4507358,0.0-19.0-0.1-0.234,A2WPKP73S4MBLK,30UZJB2PPKSSO21QHKUJ0S8JS3B35M,3TXD01ZLD8XXDW8381CC7TOSZWZ4UM,8,7
235,3,object_03,object_06,639.29999999702,5,2,216.10000000894,0.6666666666666666,1,object_04,1,3849,0,6,4,library_1,2,memory-2step-stake-s,724,4515447,0.0-19.0-0.1-0.235,A2WPKP73S4MBLK,30UZJB2PPKSSO21QHKUJ0S8JS3B35M,3TXD01ZLD8XXDW8381CC7TOSZWZ4UM,6,5
236,3,object_03,object_06,741.20000000298,5,2,212.20000000298,0.6666666666666666,1,object_04,5,3879,0,6,5,library_6,2,memory-2step-stake-s,725,4523553,0.0-19.0-0.1-0.236,A2WPKP73S4MBLK,30UZJB2PPKSSO21QHKUJ0S8JS3B35M,3TXD01ZLD8XXDW8381CC7TOSZWZ4UM,6,5
237,2,object_07,object_05,940.70000000298,3,2,234.0,0.2222222222222222,1,object_04,5,3889,0,2,5,forest_7,2,memory-2step-stake-s,726,4531264,0.0-19.0-0.1-0.237,A2WPKP73S4MBLK,30UZJB2PPKSSO21QHKUJ0S8JS3B35M,3TXD01ZLD8XXDW8381CC7TOSZWZ4UM,4,3
238,3,object_06,object_03,1087.1999999881,5,1,335.09999999404,0.1111111111111111,1,object_04,1,3890,0,1,5,library_8,2,memory-2step-stake-s,727,4538970,0.0-19.0-0.1-0.238,A2WPKP73S4MBLK,30UZJB2PPKSSO21QHKUJ0S8JS3B35M,3TXD01ZLD8XXDW8381CC7TOSZWZ4UM,5,6
239,1,object_08,object_09,549.5,2,2,454.69999998808,0.2222222222222222,2,object_01,1,3892,0,2,2,desert_1,2,memory-2step-stake-s,728,4546903,0.0-19.0-0.1-0.239,A2WPKP73S4MBLK,30UZJB2PPKSSO21QHKUJ0S8JS3B35M,3TXD01ZLD8XXDW8381CC7TOSZWZ4UM,1,2
240,4,object_02,object_10,679.69999998808,8,2,259.19999998808,0.5555555555555556,2,object_01,5,3917,0,1,5,restaurant_5,2,memory-2step-stake-s,729,4554934,0.0-19.0-0.1-0.240,A2WPKP73S4MBLK,30UZJB2PPKSSO21QHKUJ0S8JS3B35M,3TXD01ZLD8XXDW8381CC7TOSZWZ4UM,7,8
241,3,object_03,object_06,1130.3000000119,6,1,349.90000000596,0.3333333333333333,2,object_01,1,3920,0,2,3,library_6,2,memory-2step-stake-s,730,4562856,0.0-19.0-0.1-0.241,A2WPKP73S4MBLK,30UZJB2PPKSSO21QHKUJ0S8JS3B35M,3TXD01ZLD8XXDW8381CC7TOSZWZ4UM,6,5
242,3,object_06,object_03,1064.6999999881,5,1,491.20000001788,0.2222222222222222,1,object_04,1,3922,0,2,2,library_6,2,memory-2step-stake-s,731,4570816,0.0-19.0-0.1-0.242,A2WPKP73S4MBLK,30UZJB2PPKSSO21QHKUJ0S8JS3B35M,3TXD01ZLD8XXDW8381CC7TOSZWZ4UM,5,6
243,4,object_02,object_10,836.39999997616,7,1,300.69999998808,0.3333333333333333,1,object_04,1,3925,0,3,3,restaurant_3,2,memory-2step-stake-s,732,4578676,0.0-19.0-0.1-0.243,A2WPKP73S4MBLK,30UZJB2PPKSSO21QHKUJ0S8JS3B35M,3TXD01ZLD8XXDW8381CC7TOSZWZ4UM,7,8
244,2,object_05,object_07,969.80000001192,3,1,279.0,0.5555555555555556,1,object_04,5,3950,0,5,2,forest_3,2,memory-2step-stake-s,733,4586730,0.0-19.0-0.1-0.244,A2WPKP73S4MBLK,30UZJB2PPKSSO21QHKUJ0S8JS3B35M,3TXD01ZLD8XXDW8381CC7TOSZWZ4UM,3,4
245,1,object_09,object_08,649.80000001192,1,2,193.5,0.5555555555555556,1,object_04,5,3975,0,5,2,desert_1,2,memory-2step-stake-s,734,4594691,0.0-19.0-0.1-0.245,A2WPKP73S4MBLK,30UZJB2PPKSSO21QHKUJ0S8JS3B35M,3TXD01ZLD8XXDW8381CC7TOSZWZ4UM,2,1
246,4,object_10,object_02,1051.8000000119,7,2,296.60000002384,0.2222222222222222,1,object_04,1,3977,0,2,9,restaurant_3,2,memory-2step-stake-s,735,4602487,0.0-19.0-0.1-0.246,A2WPKP73S4MBLK,30UZJB2PPKSSO21QHKUJ0S8JS3B35M,3TXD01ZLD8XXDW8381CC7TOSZWZ4UM,8,7
247,1,object_09,object_08,597.69999998808,2,1,223.19999998808,1.0,2,object_01,5,4022,0,0,9,desert_1,2,memory-2step-stake-s,736,4610893,0.0-19.0-0.1-0.247,A2WPKP73S4MBLK,30UZJB2PPKSSO21QHKUJ0S8JS3B35M,3TXD01ZLD8XXDW8381CC7TOSZWZ4UM,2,1
248,2,object_05,object_07,789.39999997616,4,2,303.70000001788,0.5555555555555556,2,object_01,5,4047,0,2,5,forest_3,2,memory-2step-stake-s,737,4618986,0.0-19.0-0.1-0.248,A2WPKP73S4MBLK,30UZJB2PPKSSO21QHKUJ0S8JS3B35M,3TXD01ZLD8XXDW8381CC7TOSZWZ4UM,3,4
249,4,object_02,object_10,749.5,8,2,200.10000002384,0.4444444444444444,2,object_01,1,4051,0,2,4,restaurant_4,2,memory-2step-stake-s,738,4626863,0.0-19.0-0.1-0.249,A2WPKP73S4MBLK,30UZJB2PPKSSO21QHKUJ0S8JS3B35M,3TXD01ZLD8XXDW8381CC7TOSZWZ4UM,7,8
250,3,object_06,object_03,1058.099999994,5,1,283.5,0.2222222222222222,1,object_04,1,4053,0,2,8,library_8,2,memory-2step-stake-s,739,4634627,0.0-19.0-0.1-0.250,A2WPKP73S4MBLK,30UZJB2PPKSSO21QHKUJ0S8JS3B35M,3TXD01ZLD8XXDW8381CC7TOSZWZ4UM,5,6
251,1,object_08,object_09,415.90000000596,2,2,84.0,0.7777777777777778,2,object_01,5,4088,0,3,7,desert_5,2,memory-2step-stake-s,740,4642733,0.0-19.0-0.1-0.251,A2WPKP73S4MBLK,30UZJB2PPKSSO21QHKUJ0S8JS3B35M,3TXD01ZLD8XXDW8381CC7TOSZWZ4UM,1,2
252,1,object_08,object_09,551.70000001788,2,2,306.09999999404,0.6666666666666666,2,object_01,5,4118,0,4,6,desert_3,2,memory-2step-stake-s,741,4650917,0.0-19.0-0.1-0.252,A2WPKP73S4MBLK,30UZJB2PPKSSO21QHKUJ0S8JS3B35M,3TXD01ZLD8XXDW8381CC7TOSZWZ4UM,1,2
253,1,object_09,object_08,536.09999999404,2,1,288.09999999404,1.0,2,object_01,5,4163,0,6,9,desert_5,2,memory-2step-stake-s,742,4659427,0.0-19.0-0.1-0.253,A2WPKP73S4MBLK,30UZJB2PPKSSO21QHKUJ0S8JS3B35M,3TXD01ZLD8XXDW8381CC7TOSZWZ4UM,2,1
254,1,object_08,object_09,535.09999999404,2,2,336.29999998212,0.8888888888888888,2,object_01,5,4203,0,6,8,desert_1,2,memory-2step-stake-s,743,4667846,0.0-19.0-0.1-0.254,A2WPKP73S4MBLK,30UZJB2PPKSSO21QHKUJ0S8JS3B35M,3TXD01ZLD8XXDW8381CC7TOSZWZ4UM,1,2
255,4,object_10,object_02,729.89999997616,8,1,355.0,0.7777777777777778,2,object_01,5,4238,0,6,7,restaurant_4,2,memory-2step-stake-s,744,4676204,0.0-19.0-0.1-0.255,A2WPKP73S4MBLK,30UZJB2PPKSSO21QHKUJ0S8JS3B35M,3TXD01ZLD8XXDW8381CC7TOSZWZ4UM,8,7
