,state1,stim_left,stim_right,rt_1,choice1,response1,rt_2,points,state2,stim_state2,stake,score,practice,rews1,rews2,background,high_arm,trial_type,trial_index,time_elapsed,internal_node_id,subid,hitid,assignmentid,stim_left_num,stim_right_num
0,3,object_08,object_01,-1.0,-1,-1,-1.0,0.0,-,0,1,0,0,2,4,library_4,2,memory-2step-stake-s,488,950810,0.0-19.0-0.0-0.0,AQ0YWEW29GSIJ,3YO4AH2FQG0L0WLRIP03W553LNE0Q1,352YTHGROZTS8A2J825DOEZ25OXH4Y,5,6
1,2,object_06,object_02,576.10000038147,3,1,-1.0,0.0,1,object_03,5,0,0,3,3,forest_2,2,memory-2step-stake-s,489,959323,0.0-19.0-0.0-0.1,AQ0YWEW29GSIJ,3YO4AH2FQG0L0WLRIP03W553LNE0Q1,352YTHGROZTS8A2J825DOEZ25OXH4Y,3,4
2,1,object_07,object_09,390.5999994278,2,1,410.30000019073,0.1111111111111111,2,object_10,5,5,0,2,1,desert_4,2,memory-2step-stake-s,490,967063,0.0-19.0-0.0-0.2,AQ0YWEW29GSIJ,3YO4AH2FQG0L0WLRIP03W553LNE0Q1,352YTHGROZTS8A2J825DOEZ25OXH4Y,2,1
3,3,object_08,object_01,506.60000038147,5,1,469.5,0.0,1,object_03,5,5,0,0,1,library_4,2,memory-2step-stake-s,491,974746,0.0-19.0-0.0-0.3,AQ0YWEW29GSIJ,3YO4AH2FQG0L0WLRIP03W553LNE0Q1,352YTHGROZTS8A2J825DOEZ25OXH4Y,5,6
4,1,object_09,object_07,519.4000005722,2,2,548.30000019073,0.3333333333333333,2,object_10,5,20,0,2,3,desert_6,2,memory-2step-stake-s,492,982814,0.0-19.0-0.0-0.4,AQ0YWEW29GSIJ,3YO4AH2FQG0L0WLRIP03W553LNE0Q1,352YTHGROZTS8A2J825DOEZ25OXH4Y,1,2
5,4,object_05,object_04,595.10000038147,7,2,708.70000076294,0.5555555555555556,1,object_03,1,25,0,5,2,restaurant_2,2,memory-2step-stake-s,493,991244,0.0-19.0-0.0-0.5,AQ0YWEW29GSIJ,3YO4AH2FQG0L0WLRIP03W553LNE0Q1,352YTHGROZTS8A2J825DOEZ25OXH4Y,8,7
6,3,object_01,object_08,589.5,6,1,521.29999923706,0.1111111111111111,2,object_10,1,26,0,5,1,library_7,2,memory-2step-stake-s,494,999082,0.0-19.0-0.0-0.6,AQ0YWEW29GSIJ,3YO4AH2FQG0L0WLRIP03W553LNE0Q1,352YTHGROZTS8A2J825DOEZ25OXH4Y,6,5
7,3,object_01,object_08,584.0,6,1,570.9000005722,0.2222222222222222,2,object_10,1,28,0,6,2,library_6,2,memory-2step-stake-s,495,1007069,0.0-19.0-0.0-0.7,AQ0YWEW29GSIJ,3YO4AH2FQG0L0WLRIP03W553LNE0Q1,352YTHGROZTS8A2J825DOEZ25OXH4Y,6,5
8,3,object_01,object_08,700.60000038147,5,2,536.10000038147,0.6666666666666666,1,object_03,5,58,0,6,4,library_8,2,memory-2step-stake-s,496,1015432,0.0-19.0-0.0-0.8,AQ0YWEW29GSIJ,3YO4AH2FQG0L0WLRIP03W553LNE0Q1,352YTHGROZTS8A2J825DOEZ25OXH4Y,6,5
9,1,object_09,object_07,609.69999980927,2,2,444.30000019073,0.6666666666666666,2,object_10,5,88,0,8,6,desert_4,2,memory-2step-stake-s,497,1023697,0.0-19.0-0.0-0.9,AQ0YWEW29GSIJ,3YO4AH2FQG0L0WLRIP03W553LNE0Q1,352YTHGROZTS8A2J825DOEZ25OXH4Y,1,2
10,3,object_01,object_08,576.69999980927,5,2,471.5,0.7777777777777778,1,object_03,1,95,0,7,7,library_8,2,memory-2step-stake-s,498,1032096,0.0-19.0-0.0-0.10,AQ0YWEW29GSIJ,3YO4AH2FQG0L0WLRIP03W553LNE0Q1,352YTHGROZTS8A2J825DOEZ25OXH4Y,6,5
11,4,object_04,object_05,568.10000038147,8,2,523.5999994278,1.0,2,object_10,1,104,0,4,9,restaurant_2,2,memory-2step-stake-s,499,1040758,0.0-19.0-0.0-0.11,AQ0YWEW29GSIJ,3YO4AH2FQG0L0WLRIP03W553LNE0Q1,352YTHGROZTS8A2J825DOEZ25OXH4Y,7,8
12,2,object_02,object_06,685.39999961853,4,1,425.5999994278,1.0,2,object_10,5,149,0,5,9,forest_2,2,memory-2step-stake-s,500,1049318,0.0-19.0-0.0-0.12,AQ0YWEW29GSIJ,3YO4AH2FQG0L0WLRIP03W553LNE0Q1,352YTHGROZTS8A2J825DOEZ25OXH4Y,4,3
13,1,object_07,object_09,588.19999980927,1,2,552.30000019073,0.5555555555555556,1,object_03,5,174,0,5,4,desert_8,2,memory-2step-stake-s,501,1057595,0.0-19.0-0.0-0.13,AQ0YWEW29GSIJ,3YO4AH2FQG0L0WLRIP03W553LNE0Q1,352YTHGROZTS8A2J825DOEZ25OXH4Y,2,1
14,4,object_05,object_04,768.0,8,1,440.19999980927,0.6666666666666666,2,object_10,5,204,0,6,6,restaurant_7,2,memory-2step-stake-s,502,1065870,0.0-19.0-0.0-0.14,AQ0YWEW29GSIJ,3YO4AH2FQG0L0WLRIP03W553LNE0Q1,352YTHGROZTS8A2J825DOEZ25OXH4Y,8,7
15,1,object_09,object_07,667.69999980927,1,1,406.9000005722,1.0,1,object_03,5,249,0,9,7,desert_6,2,memory-2step-stake-s,503,1074413,0.0-19.0-0.0-0.15,AQ0YWEW29GSIJ,3YO4AH2FQG0L0WLRIP03W553LNE0Q1,352YTHGROZTS8A2J825DOEZ25OXH4Y,1,2
16,3,object_01,object_08,615.0999994278,5,2,481.69999980927,0.8888888888888888,1,object_03,1,257,0,8,5,library_6,2,memory-2step-stake-s,504,1082920,0.0-19.0-0.0-0.16,AQ0YWEW29GSIJ,3YO4AH2FQG0L0WLRIP03W553LNE0Q1,352YTHGROZTS8A2J825DOEZ25OXH4Y,6,5
17,4,object_04,object_05,1009.6000003815,7,1,458.89999961853,1.0,1,object_03,5,302,0,9,7,restaurant_7,2,memory-2step-stake-s,505,1091507,0.0-19.0-0.0-0.17,AQ0YWEW29GSIJ,3YO4AH2FQG0L0WLRIP03W553LNE0Q1,352YTHGROZTS8A2J825DOEZ25OXH4Y,7,8
18,3,object_01,object_08,815.39999961853,5,2,477.0,0.8888888888888888,1,object_03,1,310,0,8,5,library_4,2,memory-2step-stake-s,506,1100024,0.0-19.0-0.0-0.18,AQ0YWEW29GSIJ,3YO4AH2FQG0L0WLRIP03W553LNE0Q1,352YTHGROZTS8A2J825DOEZ25OXH4Y,6,5
19,2,object_06,object_02,667.10000038147,4,2,462.19999980927,0.5555555555555556,2,object_10,5,335,0,7,5,forest_7,2,memory-2step-stake-s,507,1108209,0.0-19.0-0.0-0.19,AQ0YWEW29GSIJ,3YO4AH2FQG0L0WLRIP03W553LNE0Q1,352YTHGROZTS8A2J825DOEZ25OXH4Y,3,4
20,4,object_05,object_04,643.30000019073,8,1,476.80000019073,0.2222222222222222,2,object_10,5,345,0,5,2,restaurant_3,2,memory-2step-stake-s,508,1116117,0.0-19.0-0.0-0.20,AQ0YWEW29GSIJ,3YO4AH2FQG0L0WLRIP03W553LNE0Q1,352YTHGROZTS8A2J825DOEZ25OXH4Y,8,7
21,4,object_05,object_04,629.0,8,1,494.10000038147,0.4444444444444444,2,object_10,1,349,0,6,4,restaurant_7,2,memory-2step-stake-s,509,1124239,0.0-19.0-0.0-0.21,AQ0YWEW29GSIJ,3YO4AH2FQG0L0WLRIP03W553LNE0Q1,352YTHGROZTS8A2J825DOEZ25OXH4Y,8,7
22,3,object_01,object_08,842.0,6,1,546.0,0.6666666666666666,2,object_10,1,355,0,7,6,library_6,2,memory-2step-stake-s,510,1132624,0.0-19.0-0.0-0.22,AQ0YWEW29GSIJ,3YO4AH2FQG0L0WLRIP03W553LNE0Q1,352YTHGROZTS8A2J825DOEZ25OXH4Y,6,5
23,2,object_06,object_02,594.69999980927,4,2,429.0,0.5555555555555556,2,object_10,1,360,0,7,5,forest_7,2,memory-2step-stake-s,511,1140802,0.0-19.0-0.0-0.23,AQ0YWEW29GSIJ,3YO4AH2FQG0L0WLRIP03W553LNE0Q1,352YTHGROZTS8A2J825DOEZ25OXH4Y,3,4
24,4,object_04,object_05,753.5,8,2,481.39999961853,0.6666666666666666,2,object_10,1,366,0,7,6,restaurant_2,2,memory-2step-stake-s,512,1149109,0.0-19.0-0.0-0.24,AQ0YWEW29GSIJ,3YO4AH2FQG0L0WLRIP03W553LNE0Q1,352YTHGROZTS8A2J825DOEZ25OXH4Y,7,8
25,3,object_08,object_01,709.5,5,1,448.4000005722,1.0,1,object_03,1,375,0,9,8,library_6,2,memory-2step-stake-s,513,1157695,0.0-19.0-0.0-0.25,AQ0YWEW29GSIJ,3YO4AH2FQG0L0WLRIP03W553LNE0Q1,352YTHGROZTS8A2J825DOEZ25OXH4Y,5,6
26,2,object_06,object_02,642.5999994278,4,2,443.30000019073,0.6666666666666666,2,object_10,5,405,0,7,6,forest_8,2,memory-2step-stake-s,514,1165979,0.0-19.0-0.0-0.26,AQ0YWEW29GSIJ,3YO4AH2FQG0L0WLRIP03W553LNE0Q1,352YTHGROZTS8A2J825DOEZ25OXH4Y,3,4
27,2,object_06,object_02,568.39999961853,4,2,434.4000005722,0.5555555555555556,2,object_10,1,410,0,6,5,forest_8,2,memory-2step-stake-s,515,1174138,0.0-19.0-0.0-0.27,AQ0YWEW29GSIJ,3YO4AH2FQG0L0WLRIP03W553LNE0Q1,352YTHGROZTS8A2J825DOEZ25OXH4Y,3,4
28,3,object_01,object_08,768.0,6,1,408.39999961853,0.5555555555555556,2,object_10,1,415,0,3,5,library_7,2,memory-2step-stake-s,516,1182291,0.0-19.0-0.0-0.28,AQ0YWEW29GSIJ,3YO4AH2FQG0L0WLRIP03W553LNE0Q1,352YTHGROZTS8A2J825DOEZ25OXH4Y,6,5
29,3,object_08,object_01,696.0999994278,6,2,433.80000019073,0.5555555555555556,2,object_10,1,420,0,2,5,library_7,2,memory-2step-stake-s,517,1190453,0.0-19.0-0.0-0.29,AQ0YWEW29GSIJ,3YO4AH2FQG0L0WLRIP03W553LNE0Q1,352YTHGROZTS8A2J825DOEZ25OXH4Y,5,6
30,1,object_07,object_09,868.19999980927,1,2,508.0,0.2222222222222222,1,object_03,5,430,0,2,4,desert_8,2,memory-2step-stake-s,518,1198397,0.0-19.0-0.0-0.30,AQ0YWEW29GSIJ,3YO4AH2FQG0L0WLRIP03W553LNE0Q1,352YTHGROZTS8A2J825DOEZ25OXH4Y,2,1
31,1,object_09,object_07,544.10000038147,1,1,467.69999980927,0.4444444444444444,1,object_03,5,450,0,4,6,desert_6,2,memory-2step-stake-s,519,1206505,0.0-19.0-0.0-0.31,AQ0YWEW29GSIJ,3YO4AH2FQG0L0WLRIP03W553LNE0Q1,352YTHGROZTS8A2J825DOEZ25OXH4Y,1,2
32,1,object_09,object_07,935.39999961853,2,2,481.70000076294,0.8888888888888888,2,object_10,1,458,0,3,8,desert_3,2,memory-2step-stake-s,520,1215024,0.0-19.0-0.0-0.32,AQ0YWEW29GSIJ,3YO4AH2FQG0L0WLRIP03W553LNE0Q1,352YTHGROZTS8A2J825DOEZ25OXH4Y,1,2
33,3,object_01,object_08,786.29999923706,6,1,461.0,0.6666666666666666,2,object_10,1,464,0,4,6,library_4,2,memory-2step-stake-s,521,1223309,0.0-19.0-0.0-0.33,AQ0YWEW29GSIJ,3YO4AH2FQG0L0WLRIP03W553LNE0Q1,352YTHGROZTS8A2J825DOEZ25OXH4Y,6,5
34,2,object_02,object_06,612.0999994278,4,1,470.5999994278,0.6666666666666666,2,object_10,5,494,0,4,6,forest_7,2,memory-2step-stake-s,522,1231603,0.0-19.0-0.0-0.34,AQ0YWEW29GSIJ,3YO4AH2FQG0L0WLRIP03W553LNE0Q1,352YTHGROZTS8A2J825DOEZ25OXH4Y,4,3
35,3,object_01,object_08,806.0999994278,5,2,513.5,0.0,1,object_03,1,494,0,0,7,library_4,2,memory-2step-stake-s,523,1239345,0.0-19.0-0.0-0.35,AQ0YWEW29GSIJ,3YO4AH2FQG0L0WLRIP03W553LNE0Q1,352YTHGROZTS8A2J825DOEZ25OXH4Y,6,5
36,4,object_05,object_04,671.4000005722,8,1,464.0,0.8888888888888888,2,object_10,5,534,0,0,8,restaurant_3,2,memory-2step-stake-s,524,1247851,0.0-19.0-0.0-0.36,AQ0YWEW29GSIJ,3YO4AH2FQG0L0WLRIP03W553LNE0Q1,352YTHGROZTS8A2J825DOEZ25OXH4Y,8,7
37,4,object_04,object_05,814.5,7,1,552.19999980927,0.0,1,object_03,1,534,0,0,9,restaurant_2,2,memory-2step-stake-s,525,1255619,0.0-19.0-0.0-0.37,AQ0YWEW29GSIJ,3YO4AH2FQG0L0WLRIP03W553LNE0Q1,352YTHGROZTS8A2J825DOEZ25OXH4Y,7,8
38,1,object_07,object_09,741.19999980927,2,1,479.10000038147,0.6666666666666666,2,object_10,5,564,0,3,6,desert_3,2,memory-2step-stake-s,526,1263924,0.0-19.0-0.0-0.38,AQ0YWEW29GSIJ,3YO4AH2FQG0L0WLRIP03W553LNE0Q1,352YTHGROZTS8A2J825DOEZ25OXH4Y,2,1
39,4,object_05,object_04,574.60000038147,8,1,569.39999961853,0.3333333333333333,2,object_10,1,567,0,3,3,restaurant_3,2,memory-2step-stake-s,527,1272021,0.0-19.0-0.0-0.39,AQ0YWEW29GSIJ,3YO4AH2FQG0L0WLRIP03W553LNE0Q1,352YTHGROZTS8A2J825DOEZ25OXH4Y,8,7
40,4,object_05,object_04,970.0,7,2,483.30000019073,0.3333333333333333,1,object_03,1,570,0,3,3,restaurant_3,2,memory-2step-stake-s,528,1280027,0.0-19.0-0.0-0.40,AQ0YWEW29GSIJ,3YO4AH2FQG0L0WLRIP03W553LNE0Q1,352YTHGROZTS8A2J825DOEZ25OXH4Y,8,7
41,2,object_06,object_02,821.89999961853,4,2,430.5,0.2222222222222222,2,object_10,5,580,0,4,2,forest_2,2,memory-2step-stake-s,529,1287888,0.0-19.0-0.0-0.41,AQ0YWEW29GSIJ,3YO4AH2FQG0L0WLRIP03W553LNE0Q1,352YTHGROZTS8A2J825DOEZ25OXH4Y,3,4
42,3,object_01,object_08,793.30000019073,5,2,458.5,0.3333333333333333,1,object_03,1,583,0,3,6,library_6,2,memory-2step-stake-s,530,1295875,0.0-19.0-0.0-0.42,AQ0YWEW29GSIJ,3YO4AH2FQG0L0WLRIP03W553LNE0Q1,352YTHGROZTS8A2J825DOEZ25OXH4Y,6,5
43,2,object_02,object_06,599.30000019073,4,1,490.19999980927,0.6666666666666666,2,object_10,5,613,0,1,6,forest_7,2,memory-2step-stake-s,531,1304188,0.0-19.0-0.0-0.43,AQ0YWEW29GSIJ,3YO4AH2FQG0L0WLRIP03W553LNE0Q1,352YTHGROZTS8A2J825DOEZ25OXH4Y,4,3
44,3,object_01,object_08,775.30000019073,6,1,702.69999980927,0.5555555555555556,2,object_10,1,618,0,0,5,library_6,2,memory-2step-stake-s,532,1312624,0.0-19.0-0.0-0.44,AQ0YWEW29GSIJ,3YO4AH2FQG0L0WLRIP03W553LNE0Q1,352YTHGROZTS8A2J825DOEZ25OXH4Y,6,5
45,1,object_07,object_09,987.70000076294,2,1,438.69999980927,0.6666666666666666,2,object_10,1,624,0,2,6,desert_4,2,memory-2step-stake-s,533,1320894,0.0-19.0-0.0-0.45,AQ0YWEW29GSIJ,3YO4AH2FQG0L0WLRIP03W553LNE0Q1,352YTHGROZTS8A2J825DOEZ25OXH4Y,2,1
46,3,object_01,object_08,700.79999923706,5,2,505.0999994278,0.4444444444444444,1,object_03,5,644,0,4,4,library_4,2,memory-2step-stake-s,534,1329016,0.0-19.0-0.0-0.46,AQ0YWEW29GSIJ,3YO4AH2FQG0L0WLRIP03W553LNE0Q1,352YTHGROZTS8A2J825DOEZ25OXH4Y,6,5
47,3,object_08,object_01,724.10000038147,5,1,935.4000005722,0.7777777777777778,1,object_03,1,651,0,7,1,library_4,2,memory-2step-stake-s,535,1337867,0.0-19.0-0.0-0.47,AQ0YWEW29GSIJ,3YO4AH2FQG0L0WLRIP03W553LNE0Q1,352YTHGROZTS8A2J825DOEZ25OXH4Y,5,6
48,3,object_08,object_01,1056.6000003815,6,2,507.60000038147,0.1111111111111111,2,object_10,1,652,0,8,1,library_8,2,memory-2step-stake-s,536,1345693,0.0-19.0-0.0-0.48,AQ0YWEW29GSIJ,3YO4AH2FQG0L0WLRIP03W553LNE0Q1,352YTHGROZTS8A2J825DOEZ25OXH4Y,5,6
49,3,object_08,object_01,646.30000019073,5,1,505.89999961853,0.6666666666666666,1,object_03,5,682,0,6,2,library_7,2,memory-2step-stake-s,537,1354018,0.0-19.0-0.0-0.49,AQ0YWEW29GSIJ,3YO4AH2FQG0L0WLRIP03W553LNE0Q1,352YTHGROZTS8A2J825DOEZ25OXH4Y,5,6
50,2,object_06,object_02,651.0999994278,4,2,487.4000005722,0.0,2,object_10,1,682,0,5,0,forest_5,2,memory-2step-stake-s,538,1361715,0.0-19.0-0.0-0.50,AQ0YWEW29GSIJ,3YO4AH2FQG0L0WLRIP03W553LNE0Q1,352YTHGROZTS8A2J825DOEZ25OXH4Y,3,4
51,2,object_06,object_02,593.4000005722,3,1,484.29999923706,0.2222222222222222,1,object_03,5,692,0,2,4,forest_8,2,memory-2step-stake-s,539,1369611,0.0-19.0-0.0-0.51,AQ0YWEW29GSIJ,3YO4AH2FQG0L0WLRIP03W553LNE0Q1,352YTHGROZTS8A2J825DOEZ25OXH4Y,3,4
52,3,object_08,object_01,705.69999980927,6,2,508.5999994278,0.0,2,object_10,1,692,0,2,0,library_6,2,memory-2step-stake-s,540,1377337,0.0-19.0-0.0-0.52,AQ0YWEW29GSIJ,3YO4AH2FQG0L0WLRIP03W553LNE0Q1,352YTHGROZTS8A2J825DOEZ25OXH4Y,5,6
53,2,object_02,object_06,521.30000019073,4,1,413.30000019073,0.2222222222222222,2,object_10,5,702,0,4,2,forest_8,2,memory-2step-stake-s,541,1385164,0.0-19.0-0.0-0.53,AQ0YWEW29GSIJ,3YO4AH2FQG0L0WLRIP03W553LNE0Q1,352YTHGROZTS8A2J825DOEZ25OXH4Y,4,3
54,3,object_01,object_08,709.69999980927,6,1,-1.0,0.0,2,object_10,1,702,0,2,1,library_8,2,memory-2step-stake-s,542,1393679,0.0-19.0-0.0-0.54,AQ0YWEW29GSIJ,3YO4AH2FQG0L0WLRIP03W553LNE0Q1,352YTHGROZTS8A2J825DOEZ25OXH4Y,6,5
55,3,object_01,object_08,461.29999923706,5,2,487.5,0.0,1,object_03,1,702,0,0,2,library_8,2,memory-2step-stake-s,543,1401382,0.0-19.0-0.0-0.55,AQ0YWEW29GSIJ,3YO4AH2FQG0L0WLRIP03W553LNE0Q1,352YTHGROZTS8A2J825DOEZ25OXH4Y,6,5
56,2,object_06,object_02,429.60000038147,3,1,543.5,0.3333333333333333,1,object_03,1,705,0,3,0,forest_5,2,memory-2step-stake-s,544,1409451,0.0-19.0-0.0-0.56,AQ0YWEW29GSIJ,3YO4AH2FQG0L0WLRIP03W553LNE0Q1,352YTHGROZTS8A2J825DOEZ25OXH4Y,3,4
57,2,object_06,object_02,625.89999961853,3,1,364.5999994278,0.2222222222222222,1,object_03,5,715,0,2,1,forest_8,2,memory-2step-stake-s,545,1417234,0.0-19.0-0.0-0.57,AQ0YWEW29GSIJ,3YO4AH2FQG0L0WLRIP03W553LNE0Q1,352YTHGROZTS8A2J825DOEZ25OXH4Y,3,4
58,3,object_08,object_01,634.79999923706,6,2,550.5,0.3333333333333333,2,object_10,1,718,0,1,3,library_7,2,memory-2step-stake-s,546,1425317,0.0-19.0-0.0-0.58,AQ0YWEW29GSIJ,3YO4AH2FQG0L0WLRIP03W553LNE0Q1,352YTHGROZTS8A2J825DOEZ25OXH4Y,5,6
59,4,object_05,object_04,694.69999980927,8,1,466.60000038147,0.4444444444444444,2,object_10,1,722,0,0,4,restaurant_3,2,memory-2step-stake-s,547,1433401,0.0-19.0-0.0-0.59,AQ0YWEW29GSIJ,3YO4AH2FQG0L0WLRIP03W553LNE0Q1,352YTHGROZTS8A2J825DOEZ25OXH4Y,8,7
60,4,object_05,object_04,594.89999961853,8,1,495.69999980927,0.5555555555555556,2,object_10,1,727,0,1,5,restaurant_7,2,memory-2step-stake-s,548,1441612,0.0-19.0-0.0-0.60,AQ0YWEW29GSIJ,3YO4AH2FQG0L0WLRIP03W553LNE0Q1,352YTHGROZTS8A2J825DOEZ25OXH4Y,8,7
61,1,object_09,object_07,751.10000038147,2,2,420.10000038147,0.6666666666666666,2,object_10,1,733,0,2,6,desert_8,2,memory-2step-stake-s,549,1449851,0.0-19.0-0.0-0.61,AQ0YWEW29GSIJ,3YO4AH2FQG0L0WLRIP03W553LNE0Q1,352YTHGROZTS8A2J825DOEZ25OXH4Y,1,2
62,2,object_02,object_06,615.79999923706,4,1,450.5,0.8888888888888888,2,object_10,5,773,0,2,8,forest_5,2,memory-2step-stake-s,550,1458324,0.0-19.0-0.0-0.62,AQ0YWEW29GSIJ,3YO4AH2FQG0L0WLRIP03W553LNE0Q1,352YTHGROZTS8A2J825DOEZ25OXH4Y,4,3
63,1,object_07,object_09,671.5,2,1,434.30000019073,0.7777777777777778,2,object_10,5,808,0,1,7,desert_8,2,memory-2step-stake-s,551,1466678,0.0-19.0-0.0-0.63,AQ0YWEW29GSIJ,3YO4AH2FQG0L0WLRIP03W553LNE0Q1,352YTHGROZTS8A2J825DOEZ25OXH4Y,2,1
64,1,object_09,object_07,836.9000005722,1,1,608.30000019073,0.0,1,object_03,5,808,0,0,3,desert_3,2,memory-2step-stake-s,552,1474498,0.0-19.0-0.0-0.64,AQ0YWEW29GSIJ,3YO4AH2FQG0L0WLRIP03W553LNE0Q1,352YTHGROZTS8A2J825DOEZ25OXH4Y,1,2
65,4,object_05,object_04,634.5999994278,7,2,503.10000038147,0.1111111111111111,1,object_03,1,809,0,1,2,restaurant_6,2,memory-2step-stake-s,553,1482328,0.0-19.0-0.0-0.65,AQ0YWEW29GSIJ,3YO4AH2FQG0L0WLRIP03W553LNE0Q1,352YTHGROZTS8A2J825DOEZ25OXH4Y,8,7
66,2,object_02,object_06,707.60000038147,3,2,574.89999961853,0.6666666666666666,1,object_03,5,839,0,6,1,forest_8,2,memory-2step-stake-s,554,1490723,0.0-19.0-0.0-0.66,AQ0YWEW29GSIJ,3YO4AH2FQG0L0WLRIP03W553LNE0Q1,352YTHGROZTS8A2J825DOEZ25OXH4Y,4,3
67,2,object_06,object_02,553.19999980927,4,2,514.89999961853,0.0,2,object_10,5,839,0,6,0,forest_2,2,memory-2step-stake-s,555,1498450,0.0-19.0-0.0-0.67,AQ0YWEW29GSIJ,3YO4AH2FQG0L0WLRIP03W553LNE0Q1,352YTHGROZTS8A2J825DOEZ25OXH4Y,3,4
68,3,object_08,object_01,745.80000019073,6,2,515.19999980927,0.3333333333333333,2,object_10,1,842,0,5,3,library_8,2,memory-2step-stake-s,556,1506484,0.0-19.0-0.0-0.68,AQ0YWEW29GSIJ,3YO4AH2FQG0L0WLRIP03W553LNE0Q1,352YTHGROZTS8A2J825DOEZ25OXH4Y,5,6
69,1,object_07,object_09,918.60000038147,2,1,563.20000076294,0.3333333333333333,2,object_10,1,845,0,6,3,desert_4,2,memory-2step-stake-s,557,1514566,0.0-19.0-0.0-0.69,AQ0YWEW29GSIJ,3YO4AH2FQG0L0WLRIP03W553LNE0Q1,352YTHGROZTS8A2J825DOEZ25OXH4Y,2,1
70,2,object_02,object_06,692.69999980927,4,1,462.0999994278,0.5555555555555556,2,object_10,5,870,0,7,5,forest_5,2,memory-2step-stake-s,558,1522749,0.0-19.0-0.0-0.70,AQ0YWEW29GSIJ,3YO4AH2FQG0L0WLRIP03W553LNE0Q1,352YTHGROZTS8A2J825DOEZ25OXH4Y,4,3
71,4,object_04,object_05,708.89999961853,8,2,478.19999980927,0.4444444444444444,2,object_10,1,874,0,9,4,restaurant_7,2,memory-2step-stake-s,559,1530871,0.0-19.0-0.0-0.71,AQ0YWEW29GSIJ,3YO4AH2FQG0L0WLRIP03W553LNE0Q1,352YTHGROZTS8A2J825DOEZ25OXH4Y,7,8
72,4,object_04,object_05,571.5,7,1,438.0999994278,0.8888888888888888,1,object_03,1,882,0,8,4,restaurant_3,2,memory-2step-stake-s,560,1539343,0.0-19.0-0.0-0.72,AQ0YWEW29GSIJ,3YO4AH2FQG0L0WLRIP03W553LNE0Q1,352YTHGROZTS8A2J825DOEZ25OXH4Y,7,8
73,3,object_08,object_01,468.10000038147,5,1,519.5,0.7777777777777778,1,object_03,1,889,0,7,7,library_4,2,memory-2step-stake-s,561,1547785,0.0-19.0-0.0-0.73,AQ0YWEW29GSIJ,3YO4AH2FQG0L0WLRIP03W553LNE0Q1,352YTHGROZTS8A2J825DOEZ25OXH4Y,5,6
74,1,object_09,object_07,737.60000038147,1,1,469.0,0.5555555555555556,1,object_03,1,894,0,5,6,desert_6,2,memory-2step-stake-s,562,1555974,0.0-19.0-0.0-0.74,AQ0YWEW29GSIJ,3YO4AH2FQG0L0WLRIP03W553LNE0Q1,352YTHGROZTS8A2J825DOEZ25OXH4Y,1,2
75,4,object_04,object_05,620.69999980927,8,2,486.89999961853,0.0,2,object_10,1,894,0,5,0,restaurant_2,2,memory-2step-stake-s,563,1563688,0.0-19.0-0.0-0.75,AQ0YWEW29GSIJ,3YO4AH2FQG0L0WLRIP03W553LNE0Q1,352YTHGROZTS8A2J825DOEZ25OXH4Y,7,8
76,1,object_07,object_09,1049.6000003815,2,1,534.19999980927,0.2222222222222222,2,object_10,5,904,0,3,2,desert_3,2,memory-2step-stake-s,564,1571638,0.0-19.0-0.0-0.76,AQ0YWEW29GSIJ,3YO4AH2FQG0L0WLRIP03W553LNE0Q1,352YTHGROZTS8A2J825DOEZ25OXH4Y,2,1
77,2,object_06,object_02,638.0,4,2,496.9000005722,0.6666666666666666,2,object_10,1,910,0,3,6,forest_8,2,memory-2step-stake-s,565,1579964,0.0-19.0-0.0-0.77,AQ0YWEW29GSIJ,3YO4AH2FQG0L0WLRIP03W553LNE0Q1,352YTHGROZTS8A2J825DOEZ25OXH4Y,3,4
78,1,object_09,object_07,647.5,1,1,492.19999980927,0.4444444444444444,1,object_03,5,930,0,4,9,desert_4,2,memory-2step-stake-s,566,1588089,0.0-19.0-0.0-0.78,AQ0YWEW29GSIJ,3YO4AH2FQG0L0WLRIP03W553LNE0Q1,352YTHGROZTS8A2J825DOEZ25OXH4Y,1,2
79,4,object_05,object_04,434.0,8,1,683.69999980927,0.6666666666666666,2,object_10,1,936,0,3,6,restaurant_3,2,memory-2step-stake-s,567,1596594,0.0-19.0-0.0-0.79,AQ0YWEW29GSIJ,3YO4AH2FQG0L0WLRIP03W553LNE0Q1,352YTHGROZTS8A2J825DOEZ25OXH4Y,8,7
80,4,object_04,object_05,448.0,8,2,667.4000005722,0.4444444444444444,2,object_10,1,940,0,3,4,restaurant_2,2,memory-2step-stake-s,568,1604880,0.0-19.0-0.0-0.80,AQ0YWEW29GSIJ,3YO4AH2FQG0L0WLRIP03W553LNE0Q1,352YTHGROZTS8A2J825DOEZ25OXH4Y,7,8
81,1,object_07,object_09,371.89999961853,2,1,422.10000038147,0.7777777777777778,2,object_10,5,975,0,5,7,desert_8,2,memory-2step-stake-s,569,1613222,0.0-19.0-0.0-0.81,AQ0YWEW29GSIJ,3YO4AH2FQG0L0WLRIP03W553LNE0Q1,352YTHGROZTS8A2J825DOEZ25OXH4Y,2,1
82,1,object_07,object_09,613.5,2,1,438.5999994278,0.4444444444444444,2,object_10,5,995,0,2,4,desert_8,2,memory-2step-stake-s,570,1621281,0.0-19.0-0.0-0.82,AQ0YWEW29GSIJ,3YO4AH2FQG0L0WLRIP03W553LNE0Q1,352YTHGROZTS8A2J825DOEZ25OXH4Y,2,1
83,1,object_07,object_09,561.0999994278,2,1,396.5,0.4444444444444444,2,object_10,5,1015,0,3,4,desert_4,2,memory-2step-stake-s,571,1629296,0.0-19.0-0.0-0.83,AQ0YWEW29GSIJ,3YO4AH2FQG0L0WLRIP03W553LNE0Q1,352YTHGROZTS8A2J825DOEZ25OXH4Y,2,1
84,2,object_06,object_02,689.89999961853,4,2,461.10000038147,0.6666666666666666,2,object_10,5,1045,0,3,6,forest_8,2,memory-2step-stake-s,572,1637578,0.0-19.0-0.0-0.84,AQ0YWEW29GSIJ,3YO4AH2FQG0L0WLRIP03W553LNE0Q1,352YTHGROZTS8A2J825DOEZ25OXH4Y,3,4
85,1,object_07,object_09,465.89999961853,2,1,450.30000019073,0.8888888888888888,2,object_10,1,1053,0,4,8,desert_6,2,memory-2step-stake-s,573,1646086,0.0-19.0-0.0-0.85,AQ0YWEW29GSIJ,3YO4AH2FQG0L0WLRIP03W553LNE0Q1,352YTHGROZTS8A2J825DOEZ25OXH4Y,2,1
86,1,object_07,object_09,595.80000019073,2,1,487.39999961853,0.7777777777777778,2,object_10,5,1088,0,5,7,desert_4,2,memory-2step-stake-s,574,1654504,0.0-19.0-0.0-0.86,AQ0YWEW29GSIJ,3YO4AH2FQG0L0WLRIP03W553LNE0Q1,352YTHGROZTS8A2J825DOEZ25OXH4Y,2,1
87,2,object_06,object_02,633.60000038147,3,1,525.5999994278,0.4444444444444444,1,object_03,5,1108,0,4,7,forest_7,2,memory-2step-stake-s,575,1662655,0.0-19.0-0.0-0.87,AQ0YWEW29GSIJ,3YO4AH2FQG0L0WLRIP03W553LNE0Q1,352YTHGROZTS8A2J825DOEZ25OXH4Y,3,4
88,4,object_05,object_04,434.9000005722,8,1,485.0999994278,0.5555555555555556,2,object_10,1,1113,0,1,5,restaurant_2,2,memory-2step-stake-s,576,1670863,0.0-19.0-0.0-0.88,AQ0YWEW29GSIJ,3YO4AH2FQG0L0WLRIP03W553LNE0Q1,352YTHGROZTS8A2J825DOEZ25OXH4Y,8,7
89,2,object_02,object_06,524.10000038147,4,1,455.19999980927,0.6666666666666666,2,object_10,1,1119,0,6,6,forest_2,2,memory-2step-stake-s,577,1679149,0.0-19.0-0.0-0.89,AQ0YWEW29GSIJ,3YO4AH2FQG0L0WLRIP03W553LNE0Q1,352YTHGROZTS8A2J825DOEZ25OXH4Y,4,3
90,1,object_07,object_09,533.5,2,1,457.4000005722,0.7777777777777778,2,object_10,5,1154,0,8,7,desert_4,2,memory-2step-stake-s,578,1687542,0.0-19.0-0.0-0.90,AQ0YWEW29GSIJ,3YO4AH2FQG0L0WLRIP03W553LNE0Q1,352YTHGROZTS8A2J825DOEZ25OXH4Y,2,1
91,2,object_06,object_02,700.0,4,2,461.80000019073,1.0,2,object_10,1,1163,0,7,9,forest_2,2,memory-2step-stake-s,579,1696143,0.0-19.0-0.0-0.91,AQ0YWEW29GSIJ,3YO4AH2FQG0L0WLRIP03W553LNE0Q1,352YTHGROZTS8A2J825DOEZ25OXH4Y,3,4
92,3,object_01,object_08,491.10000038147,6,1,452.80000019073,0.8888888888888888,2,object_10,5,1203,0,7,8,library_8,2,memory-2step-stake-s,580,1704623,0.0-19.0-0.0-0.92,AQ0YWEW29GSIJ,3YO4AH2FQG0L0WLRIP03W553LNE0Q1,352YTHGROZTS8A2J825DOEZ25OXH4Y,6,5
93,3,object_08,object_01,497.80000019073,5,1,525.39999961853,0.6666666666666666,1,object_03,1,1209,0,6,6,library_6,2,memory-2step-stake-s,581,1712986,0.0-19.0-0.0-0.93,AQ0YWEW29GSIJ,3YO4AH2FQG0L0WLRIP03W553LNE0Q1,352YTHGROZTS8A2J825DOEZ25OXH4Y,5,6
94,4,object_05,object_04,496.19999980927,8,1,459.30000019073,0.4444444444444444,2,object_10,1,1213,0,6,4,restaurant_2,2,memory-2step-stake-s,582,1721071,0.0-19.0-0.0-0.94,AQ0YWEW29GSIJ,3YO4AH2FQG0L0WLRIP03W553LNE0Q1,352YTHGROZTS8A2J825DOEZ25OXH4Y,8,7
95,2,object_02,object_06,524.0999994278,4,1,509.19999980927,0.1111111111111111,2,object_10,5,1218,0,7,1,forest_5,2,memory-2step-stake-s,583,1728897,0.0-19.0-0.0-0.95,AQ0YWEW29GSIJ,3YO4AH2FQG0L0WLRIP03W553LNE0Q1,352YTHGROZTS8A2J825DOEZ25OXH4Y,4,3
96,2,object_02,object_06,961.0999994278,3,2,477.0999994278,1.0,1,object_03,1,1227,0,9,1,forest_5,2,memory-2step-stake-s,584,1737504,0.0-19.0-0.0-0.96,AQ0YWEW29GSIJ,3YO4AH2FQG0L0WLRIP03W553LNE0Q1,352YTHGROZTS8A2J825DOEZ25OXH4Y,4,3
97,1,object_09,object_07,466.80000019073,1,1,429.30000019073,0.6666666666666666,1,object_03,5,1257,0,6,2,desert_6,2,memory-2step-stake-s,585,1745768,0.0-19.0-0.0-0.97,AQ0YWEW29GSIJ,3YO4AH2FQG0L0WLRIP03W553LNE0Q1,352YTHGROZTS8A2J825DOEZ25OXH4Y,1,2
98,1,object_07,object_09,523.69999980927,2,1,446.5,0.3333333333333333,2,object_10,5,1272,0,6,3,desert_8,2,memory-2step-stake-s,586,1753748,0.0-19.0-0.0-0.98,AQ0YWEW29GSIJ,3YO4AH2FQG0L0WLRIP03W553LNE0Q1,352YTHGROZTS8A2J825DOEZ25OXH4Y,2,1
99,3,object_08,object_01,567.39999961853,5,1,397.60000038147,1.0,1,object_03,1,1281,0,9,1,library_8,2,memory-2step-stake-s,587,1762284,0.0-19.0-0.0-0.99,AQ0YWEW29GSIJ,3YO4AH2FQG0L0WLRIP03W553LNE0Q1,352YTHGROZTS8A2J825DOEZ25OXH4Y,5,6
100,4,object_04,object_05,526.5,7,1,386.5999994278,0.8888888888888888,1,object_03,1,1289,0,8,1,restaurant_3,2,memory-2step-stake-s,588,1770701,0.0-19.0-0.0-0.100,AQ0YWEW29GSIJ,3YO4AH2FQG0L0WLRIP03W553LNE0Q1,352YTHGROZTS8A2J825DOEZ25OXH4Y,7,8
101,2,object_02,object_06,531.69999980927,4,1,430.4000005722,0.1111111111111111,2,object_10,5,1294,0,4,1,forest_2,2,memory-2step-stake-s,589,1778447,0.0-19.0-0.0-0.101,AQ0YWEW29GSIJ,3YO4AH2FQG0L0WLRIP03W553LNE0Q1,352YTHGROZTS8A2J825DOEZ25OXH4Y,4,3
102,4,object_05,object_04,523.89999961853,7,2,447.5,0.0,1,object_03,1,1294,0,0,0,restaurant_7,2,memory-2step-stake-s,590,1786106,0.0-19.0-0.0-0.102,AQ0YWEW29GSIJ,3YO4AH2FQG0L0WLRIP03W553LNE0Q1,352YTHGROZTS8A2J825DOEZ25OXH4Y,8,7
103,4,object_04,object_05,463.9000005722,7,1,427.4000005722,0.2222222222222222,1,object_03,1,1296,0,2,3,restaurant_3,2,memory-2step-stake-s,591,1793950,0.0-19.0-0.0-0.103,AQ0YWEW29GSIJ,3YO4AH2FQG0L0WLRIP03W553LNE0Q1,352YTHGROZTS8A2J825DOEZ25OXH4Y,7,8
104,2,object_06,object_02,761.80000019073,3,1,501.0,0.2222222222222222,1,object_03,5,1306,0,2,3,forest_2,2,memory-2step-stake-s,592,1801868,0.0-19.0-0.0-0.104,AQ0YWEW29GSIJ,3YO4AH2FQG0L0WLRIP03W553LNE0Q1,352YTHGROZTS8A2J825DOEZ25OXH4Y,3,4
105,3,object_08,object_01,666.80000019073,6,2,501.9000005722,0.4444444444444444,2,object_10,5,1326,0,1,4,library_6,2,memory-2step-stake-s,593,1809992,0.0-19.0-0.0-0.105,AQ0YWEW29GSIJ,3YO4AH2FQG0L0WLRIP03W553LNE0Q1,352YTHGROZTS8A2J825DOEZ25OXH4Y,5,6
106,2,object_02,object_06,498.0,4,1,483.80000019073,0.5555555555555556,2,object_10,5,1351,0,2,5,forest_2,2,memory-2step-stake-s,594,1818200,0.0-19.0-0.0-0.106,AQ0YWEW29GSIJ,3YO4AH2FQG0L0WLRIP03W553LNE0Q1,352YTHGROZTS8A2J825DOEZ25OXH4Y,4,3
107,1,object_07,object_09,529.60000038147,2,1,418.60000038147,0.6666666666666666,2,object_10,5,1381,0,4,6,desert_4,2,memory-2step-stake-s,595,1826455,0.0-19.0-0.0-0.107,AQ0YWEW29GSIJ,3YO4AH2FQG0L0WLRIP03W553LNE0Q1,352YTHGROZTS8A2J825DOEZ25OXH4Y,2,1
108,2,object_06,object_02,666.10000038147,3,1,565.29999923706,0.5555555555555556,1,object_03,5,1406,0,5,6,forest_5,2,memory-2step-stake-s,596,1834742,0.0-19.0-0.0-0.108,AQ0YWEW29GSIJ,3YO4AH2FQG0L0WLRIP03W553LNE0Q1,352YTHGROZTS8A2J825DOEZ25OXH4Y,3,4
109,1,object_07,object_09,739.70000076294,1,2,638.39999961853,0.5555555555555556,1,object_03,5,1431,0,5,7,desert_6,2,memory-2step-stake-s,597,1843103,0.0-19.0-0.0-0.109,AQ0YWEW29GSIJ,3YO4AH2FQG0L0WLRIP03W553LNE0Q1,352YTHGROZTS8A2J825DOEZ25OXH4Y,2,1
110,1,object_09,object_07,521.5,1,1,354.70000076294,0.8888888888888888,1,object_03,5,1471,0,8,6,desert_4,2,memory-2step-stake-s,598,1851484,0.0-19.0-0.0-0.110,AQ0YWEW29GSIJ,3YO4AH2FQG0L0WLRIP03W553LNE0Q1,352YTHGROZTS8A2J825DOEZ25OXH4Y,1,2
111,4,object_04,object_05,444.60000038147,7,1,397.5,0.4444444444444444,1,object_03,5,1491,0,4,3,restaurant_3,2,memory-2step-stake-s,599,1859510,0.0-19.0-0.0-0.111,AQ0YWEW29GSIJ,3YO4AH2FQG0L0WLRIP03W553LNE0Q1,352YTHGROZTS8A2J825DOEZ25OXH4Y,7,8
112,1,object_07,object_09,626.39999961853,2,1,484.69999980927,0.1111111111111111,2,object_10,5,1496,0,6,1,desert_3,2,memory-2step-stake-s,600,1867312,0.0-19.0-0.0-0.112,AQ0YWEW29GSIJ,3YO4AH2FQG0L0WLRIP03W553LNE0Q1,352YTHGROZTS8A2J825DOEZ25OXH4Y,2,1
113,4,object_04,object_05,554.0,8,2,635.89999961853,0.1111111111111111,2,object_10,5,1501,0,7,1,restaurant_7,2,memory-2step-stake-s,601,1875270,0.0-19.0-0.0-0.113,AQ0YWEW29GSIJ,3YO4AH2FQG0L0WLRIP03W553LNE0Q1,352YTHGROZTS8A2J825DOEZ25OXH4Y,7,8
114,4,object_05,object_04,515.89999961853,8,1,411.39999961853,0.0,2,object_10,5,1501,0,8,0,restaurant_2,2,memory-2step-stake-s,602,1882904,0.0-19.0-0.0-0.114,AQ0YWEW29GSIJ,3YO4AH2FQG0L0WLRIP03W553LNE0Q1,352YTHGROZTS8A2J825DOEZ25OXH4Y,8,7
115,4,object_04,object_05,610.5,7,1,474.39999961853,0.7777777777777778,1,object_03,1,1508,0,7,1,restaurant_3,2,memory-2step-stake-s,603,1891310,0.0-19.0-0.0-0.115,AQ0YWEW29GSIJ,3YO4AH2FQG0L0WLRIP03W553LNE0Q1,352YTHGROZTS8A2J825DOEZ25OXH4Y,7,8
116,2,object_02,object_06,605.69999980927,4,1,465.80000019073,0.2222222222222222,2,object_10,5,1518,0,5,2,forest_8,2,memory-2step-stake-s,604,1899197,0.0-19.0-0.0-0.116,AQ0YWEW29GSIJ,3YO4AH2FQG0L0WLRIP03W553LNE0Q1,352YTHGROZTS8A2J825DOEZ25OXH4Y,4,3
117,1,object_09,object_07,702.9000005722,1,1,719.4000005722,0.7777777777777778,1,object_03,5,1553,0,7,1,desert_4,2,memory-2step-stake-s,605,1907838,0.0-19.0-0.0-0.117,AQ0YWEW29GSIJ,3YO4AH2FQG0L0WLRIP03W553LNE0Q1,352YTHGROZTS8A2J825DOEZ25OXH4Y,1,2
118,3,object_01,object_08,580.5999994278,6,1,375.5,0.3333333333333333,2,object_10,1,1556,0,8,3,library_7,2,memory-2step-stake-s,606,1915743,0.0-19.0-0.0-0.118,AQ0YWEW29GSIJ,3YO4AH2FQG0L0WLRIP03W553LNE0Q1,352YTHGROZTS8A2J825DOEZ25OXH4Y,6,5
119,1,object_09,object_07,779.80000019073,1,1,390.19999980927,0.8888888888888888,1,object_03,5,1596,0,8,2,desert_3,2,memory-2step-stake-s,607,1924155,0.0-19.0-0.0-0.119,AQ0YWEW29GSIJ,3YO4AH2FQG0L0WLRIP03W553LNE0Q1,352YTHGROZTS8A2J825DOEZ25OXH4Y,1,2
120,1,object_07,object_09,607.19999980927,2,1,474.0999994278,0.1111111111111111,2,object_10,5,1601,0,6,1,desert_3,2,memory-2step-stake-s,608,1931945,0.0-19.0-0.0-0.120,AQ0YWEW29GSIJ,3YO4AH2FQG0L0WLRIP03W553LNE0Q1,352YTHGROZTS8A2J825DOEZ25OXH4Y,2,1
121,1,object_07,object_09,610.5,2,1,413.29999923706,0.3333333333333333,2,object_10,5,1616,0,7,3,desert_8,2,memory-2step-stake-s,609,1939879,0.0-19.0-0.0-0.121,AQ0YWEW29GSIJ,3YO4AH2FQG0L0WLRIP03W553LNE0Q1,352YTHGROZTS8A2J825DOEZ25OXH4Y,2,1
122,2,object_02,object_06,851.5,3,2,529.0,0.8888888888888888,1,object_03,5,1656,0,8,0,forest_5,2,memory-2step-stake-s,610,1948430,0.0-19.0-0.0-0.122,AQ0YWEW29GSIJ,3YO4AH2FQG0L0WLRIP03W553LNE0Q1,352YTHGROZTS8A2J825DOEZ25OXH4Y,4,3
123,2,object_02,object_06,542.0999994278,3,2,465.30000019073,0.6666666666666666,1,object_03,5,1686,0,6,3,forest_2,2,memory-2step-stake-s,611,1956712,0.0-19.0-0.0-0.123,AQ0YWEW29GSIJ,3YO4AH2FQG0L0WLRIP03W553LNE0Q1,352YTHGROZTS8A2J825DOEZ25OXH4Y,4,3
124,3,object_08,object_01,586.60000038147,5,1,484.89999961853,0.7777777777777778,1,object_03,1,1693,0,7,4,library_8,2,memory-2step-stake-s,612,1965134,0.0-19.0-0.0-0.124,AQ0YWEW29GSIJ,3YO4AH2FQG0L0WLRIP03W553LNE0Q1,352YTHGROZTS8A2J825DOEZ25OXH4Y,5,6
125,1,object_07,object_09,526.5,2,1,362.0999994278,0.3333333333333333,2,object_10,5,1708,0,6,3,desert_6,2,memory-2step-stake-s,613,1973010,0.0-19.0-0.0-0.125,AQ0YWEW29GSIJ,3YO4AH2FQG0L0WLRIP03W553LNE0Q1,352YTHGROZTS8A2J825DOEZ25OXH4Y,2,1
126,4,object_04,object_05,633.30000019073,7,1,434.69999980927,0.6666666666666666,1,object_03,5,1738,0,6,1,restaurant_6,2,memory-2step-stake-s,614,1981267,0.0-19.0-0.0-0.126,AQ0YWEW29GSIJ,3YO4AH2FQG0L0WLRIP03W553LNE0Q1,352YTHGROZTS8A2J825DOEZ25OXH4Y,7,8
127,2,object_06,object_02,456.39999961853,3,1,355.5999994278,0.5555555555555556,1,object_03,5,1763,0,5,3,forest_8,2,memory-2step-stake-s,615,1989343,0.0-19.0-0.0-0.127,AQ0YWEW29GSIJ,3YO4AH2FQG0L0WLRIP03W553LNE0Q1,352YTHGROZTS8A2J825DOEZ25OXH4Y,3,4
128,1,object_09,object_07,613.4000005722,1,1,702.5,0.7777777777777778,1,object_03,5,1798,0,7,3,desert_6,2,memory-2step-stake-s,617,2602793,0.0-19.0-0.1-0.128,AQ0YWEW29GSIJ,3YO4AH2FQG0L0WLRIP03W553LNE0Q1,352YTHGROZTS8A2J825DOEZ25OXH4Y,1,2
129,1,object_09,object_07,480.20000076294,1,1,431.80000019073,0.6666666666666666,1,object_03,5,1828,0,6,1,desert_3,2,memory-2step-stake-s,618,2611049,0.0-19.0-0.1-0.129,AQ0YWEW29GSIJ,3YO4AH2FQG0L0WLRIP03W553LNE0Q1,352YTHGROZTS8A2J825DOEZ25OXH4Y,1,2
130,2,object_06,object_02,647.5999994278,3,1,353.19999980927,0.6666666666666666,1,object_03,5,1858,0,6,1,forest_8,2,memory-2step-stake-s,619,2619246,0.0-19.0-0.1-0.130,AQ0YWEW29GSIJ,3YO4AH2FQG0L0WLRIP03W553LNE0Q1,352YTHGROZTS8A2J825DOEZ25OXH4Y,3,4
131,4,object_05,object_04,651.80000019073,8,1,390.69999980927,0.4444444444444444,2,object_10,1,1862,0,7,4,restaurant_7,2,memory-2step-stake-s,620,2627254,0.0-19.0-0.1-0.131,AQ0YWEW29GSIJ,3YO4AH2FQG0L0WLRIP03W553LNE0Q1,352YTHGROZTS8A2J825DOEZ25OXH4Y,8,7
132,2,object_02,object_06,1228.8000001907,3,2,334.19999980927,0.3333333333333333,1,object_03,5,1877,0,3,6,forest_8,2,memory-2step-stake-s,621,2635106,0.0-19.0-0.1-0.132,AQ0YWEW29GSIJ,3YO4AH2FQG0L0WLRIP03W553LNE0Q1,352YTHGROZTS8A2J825DOEZ25OXH4Y,4,3
133,1,object_09,object_07,626.5,1,1,612.69999980927,0.1111111111111111,1,object_03,5,1882,0,1,3,desert_3,2,memory-2step-stake-s,622,2643040,0.0-19.0-0.1-0.133,AQ0YWEW29GSIJ,3YO4AH2FQG0L0WLRIP03W553LNE0Q1,352YTHGROZTS8A2J825DOEZ25OXH4Y,1,2
134,3,object_08,object_01,748.30000019073,6,2,668.19999980927,0.5555555555555556,2,object_10,1,1887,0,1,5,library_8,2,memory-2step-stake-s,623,2651428,0.0-19.0-0.1-0.134,AQ0YWEW29GSIJ,3YO4AH2FQG0L0WLRIP03W553LNE0Q1,352YTHGROZTS8A2J825DOEZ25OXH4Y,5,6
135,2,object_02,object_06,462.9000005722,4,1,608.10000038147,0.4444444444444444,2,object_10,5,1907,0,2,4,forest_7,2,memory-2step-stake-s,624,2659677,0.0-19.0-0.1-0.135,AQ0YWEW29GSIJ,3YO4AH2FQG0L0WLRIP03W553LNE0Q1,352YTHGROZTS8A2J825DOEZ25OXH4Y,4,3
136,1,object_09,object_07,669.80000019073,2,2,408.0,0.2222222222222222,2,object_10,1,1909,0,0,2,desert_4,2,memory-2step-stake-s,625,2667504,0.0-19.0-0.1-0.136,AQ0YWEW29GSIJ,3YO4AH2FQG0L0WLRIP03W553LNE0Q1,352YTHGROZTS8A2J825DOEZ25OXH4Y,1,2
137,1,object_09,object_07,443.80000019073,1,1,406.89999961853,0.2222222222222222,1,object_03,5,1919,0,2,2,desert_8,2,memory-2step-stake-s,626,2675325,0.0-19.0-0.1-0.137,AQ0YWEW29GSIJ,3YO4AH2FQG0L0WLRIP03W553LNE0Q1,352YTHGROZTS8A2J825DOEZ25OXH4Y,1,2
138,4,object_04,object_05,543.10000038147,7,1,438.5,0.3333333333333333,1,object_03,1,1922,0,3,3,restaurant_7,2,memory-2step-stake-s,627,2683294,0.0-19.0-0.1-0.138,AQ0YWEW29GSIJ,3YO4AH2FQG0L0WLRIP03W553LNE0Q1,352YTHGROZTS8A2J825DOEZ25OXH4Y,7,8
139,1,object_07,object_09,-1.0,-1,-1,-1.0,0.0,-,0,5,1922,0,5,3,desert_4,2,memory-2step-stake-s,628,2689801,0.0-19.0-0.1-0.139,AQ0YWEW29GSIJ,3YO4AH2FQG0L0WLRIP03W553LNE0Q1,352YTHGROZTS8A2J825DOEZ25OXH4Y,2,1
140,3,object_08,object_01,417.4000005722,5,1,405.30000019073,0.5555555555555556,1,object_03,5,1947,0,5,1,library_7,2,memory-2step-stake-s,629,2697934,0.0-19.0-0.1-0.140,AQ0YWEW29GSIJ,3YO4AH2FQG0L0WLRIP03W553LNE0Q1,352YTHGROZTS8A2J825DOEZ25OXH4Y,5,6
141,2,object_02,object_06,452.70000076294,4,1,416.0999994278,0.0,2,object_10,5,1947,0,6,0,forest_2,2,memory-2step-stake-s,630,2705563,0.0-19.0-0.1-0.141,AQ0YWEW29GSIJ,3YO4AH2FQG0L0WLRIP03W553LNE0Q1,352YTHGROZTS8A2J825DOEZ25OXH4Y,4,3
142,2,object_02,object_06,744.5,3,2,610.0,0.6666666666666666,1,object_03,1,1953,0,6,2,forest_5,2,memory-2step-stake-s,631,2714010,0.0-19.0-0.1-0.142,AQ0YWEW29GSIJ,3YO4AH2FQG0L0WLRIP03W553LNE0Q1,352YTHGROZTS8A2J825DOEZ25OXH4Y,4,3
143,1,object_09,object_07,658.30000019073,2,2,653.9000005722,0.1111111111111111,2,object_10,5,1958,0,5,1,desert_3,2,memory-2step-stake-s,632,2721975,0.0-19.0-0.1-0.143,AQ0YWEW29GSIJ,3YO4AH2FQG0L0WLRIP03W553LNE0Q1,352YTHGROZTS8A2J825DOEZ25OXH4Y,1,2
144,1,object_09,object_07,611.9000005722,1,1,572.60000038147,0.7777777777777778,1,object_03,5,1993,0,7,1,desert_8,2,memory-2step-stake-s,633,2730485,0.0-19.0-0.1-0.144,AQ0YWEW29GSIJ,3YO4AH2FQG0L0WLRIP03W553LNE0Q1,352YTHGROZTS8A2J825DOEZ25OXH4Y,1,2
145,4,object_05,object_04,718.5,7,2,672.60000038147,0.8888888888888888,1,object_03,5,2033,0,8,1,restaurant_6,2,memory-2step-stake-s,634,2739188,0.0-19.0-0.1-0.145,AQ0YWEW29GSIJ,3YO4AH2FQG0L0WLRIP03W553LNE0Q1,352YTHGROZTS8A2J825DOEZ25OXH4Y,8,7
146,2,object_02,object_06,678.20000076294,3,2,514.80000019073,0.5555555555555556,1,object_03,5,2058,0,5,1,forest_7,2,memory-2step-stake-s,635,2747443,0.0-19.0-0.1-0.146,AQ0YWEW29GSIJ,3YO4AH2FQG0L0WLRIP03W553LNE0Q1,352YTHGROZTS8A2J825DOEZ25OXH4Y,4,3
147,2,object_02,object_06,679.80000019073,3,2,419.10000038147,0.5555555555555556,1,object_03,5,2083,0,5,0,forest_2,2,memory-2step-stake-s,636,2755592,0.0-19.0-0.1-0.147,AQ0YWEW29GSIJ,3YO4AH2FQG0L0WLRIP03W553LNE0Q1,352YTHGROZTS8A2J825DOEZ25OXH4Y,4,3
148,3,object_08,object_01,602.60000038147,6,2,468.60000038147,0.1111111111111111,2,object_10,1,2084,0,7,1,library_7,2,memory-2step-stake-s,637,2763377,0.0-19.0-0.1-0.148,AQ0YWEW29GSIJ,3YO4AH2FQG0L0WLRIP03W553LNE0Q1,352YTHGROZTS8A2J825DOEZ25OXH4Y,5,6
149,3,object_01,object_08,647.80000019073,5,2,377.5,0.8888888888888888,1,object_03,1,2092,0,8,1,library_8,2,memory-2step-stake-s,638,2771791,0.0-19.0-0.1-0.149,AQ0YWEW29GSIJ,3YO4AH2FQG0L0WLRIP03W553LNE0Q1,352YTHGROZTS8A2J825DOEZ25OXH4Y,6,5
150,3,object_08,object_01,563.5,6,2,461.5,0.1111111111111111,2,object_10,1,2093,0,9,1,library_4,2,memory-2step-stake-s,639,2779568,0.0-19.0-0.1-0.150,AQ0YWEW29GSIJ,3YO4AH2FQG0L0WLRIP03W553LNE0Q1,352YTHGROZTS8A2J825DOEZ25OXH4Y,5,6
151,1,object_07,object_09,994.0,1,2,628.30000019073,0.8888888888888888,1,object_03,5,2133,0,8,4,desert_8,2,memory-2step-stake-s,640,2788234,0.0-19.0-0.1-0.151,AQ0YWEW29GSIJ,3YO4AH2FQG0L0WLRIP03W553LNE0Q1,352YTHGROZTS8A2J825DOEZ25OXH4Y,2,1
152,3,object_01,object_08,849.70000076294,5,2,676.5999994278,0.4444444444444444,1,object_03,1,2137,0,4,3,library_7,2,memory-2step-stake-s,641,2796543,0.0-19.0-0.1-0.152,AQ0YWEW29GSIJ,3YO4AH2FQG0L0WLRIP03W553LNE0Q1,352YTHGROZTS8A2J825DOEZ25OXH4Y,6,5
153,4,object_05,object_04,772.20000076294,7,2,478.0,0.3333333333333333,1,object_03,1,2140,0,3,2,restaurant_3,2,memory-2step-stake-s,642,2804549,0.0-19.0-0.1-0.153,AQ0YWEW29GSIJ,3YO4AH2FQG0L0WLRIP03W553LNE0Q1,352YTHGROZTS8A2J825DOEZ25OXH4Y,8,7
154,4,object_04,object_05,685.80000019073,7,1,326.19999980927,0.3333333333333333,1,object_03,1,2143,0,3,7,restaurant_6,2,memory-2step-stake-s,643,2812398,0.0-19.0-0.1-0.154,AQ0YWEW29GSIJ,3YO4AH2FQG0L0WLRIP03W553LNE0Q1,352YTHGROZTS8A2J825DOEZ25OXH4Y,7,8
155,1,object_09,object_07,595.5,1,1,363.89999961853,0.3333333333333333,1,object_03,5,2158,0,3,7,desert_6,2,memory-2step-stake-s,644,2820285,0.0-19.0-0.1-0.155,AQ0YWEW29GSIJ,3YO4AH2FQG0L0WLRIP03W553LNE0Q1,352YTHGROZTS8A2J825DOEZ25OXH4Y,1,2
156,3,object_08,object_01,725.9000005722,6,2,399.29999923706,0.7777777777777778,2,object_10,1,2165,0,4,7,library_6,2,memory-2step-stake-s,645,2828606,0.0-19.0-0.1-0.156,AQ0YWEW29GSIJ,3YO4AH2FQG0L0WLRIP03W553LNE0Q1,352YTHGROZTS8A2J825DOEZ25OXH4Y,5,6
157,2,object_02,object_06,708.0,3,2,464.19999980927,0.4444444444444444,1,object_03,5,2185,0,4,7,forest_7,2,memory-2step-stake-s,646,2836711,0.0-19.0-0.1-0.157,AQ0YWEW29GSIJ,3YO4AH2FQG0L0WLRIP03W553LNE0Q1,352YTHGROZTS8A2J825DOEZ25OXH4Y,4,3
158,2,object_06,object_02,673.89999961853,3,1,412.5999994278,0.2222222222222222,1,object_03,5,2195,0,2,5,forest_5,2,memory-2step-stake-s,647,2844542,0.0-19.0-0.1-0.158,AQ0YWEW29GSIJ,3YO4AH2FQG0L0WLRIP03W553LNE0Q1,352YTHGROZTS8A2J825DOEZ25OXH4Y,3,4
159,3,object_08,object_01,678.69999980927,6,2,408.0,0.5555555555555556,2,object_10,1,2200,0,1,5,library_8,2,memory-2step-stake-s,648,2852671,0.0-19.0-0.1-0.159,AQ0YWEW29GSIJ,3YO4AH2FQG0L0WLRIP03W553LNE0Q1,352YTHGROZTS8A2J825DOEZ25OXH4Y,5,6
160,3,object_08,object_01,715.19999980927,6,2,518.89999961853,0.6666666666666666,2,object_10,1,2206,0,1,6,library_6,2,memory-2step-stake-s,649,2861009,0.0-19.0-0.1-0.160,AQ0YWEW29GSIJ,3YO4AH2FQG0L0WLRIP03W553LNE0Q1,352YTHGROZTS8A2J825DOEZ25OXH4Y,5,6
161,3,object_01,object_08,893.0999994278,5,2,407.20000076294,0.3333333333333333,1,object_03,1,2209,0,3,8,library_4,2,memory-2step-stake-s,650,2868944,0.0-19.0-0.1-0.161,AQ0YWEW29GSIJ,3YO4AH2FQG0L0WLRIP03W553LNE0Q1,352YTHGROZTS8A2J825DOEZ25OXH4Y,6,5
162,1,object_07,object_09,665.4000005722,1,2,652.39999961853,0.2222222222222222,1,object_03,5,2219,0,2,5,desert_4,2,memory-2step-stake-s,651,2877026,0.0-19.0-0.1-0.162,AQ0YWEW29GSIJ,3YO4AH2FQG0L0WLRIP03W553LNE0Q1,352YTHGROZTS8A2J825DOEZ25OXH4Y,2,1
163,2,object_02,object_06,654.80000019073,3,2,521.20000076294,0.3333333333333333,1,object_03,5,2234,0,3,2,forest_5,2,memory-2step-stake-s,652,2885073,0.0-19.0-0.1-0.163,AQ0YWEW29GSIJ,3YO4AH2FQG0L0WLRIP03W553LNE0Q1,352YTHGROZTS8A2J825DOEZ25OXH4Y,4,3
164,3,object_01,object_08,622.89999961853,5,2,681.5,0.2222222222222222,1,object_03,1,2236,0,2,4,library_8,2,memory-2step-stake-s,653,2893176,0.0-19.0-0.1-0.164,AQ0YWEW29GSIJ,3YO4AH2FQG0L0WLRIP03W553LNE0Q1,352YTHGROZTS8A2J825DOEZ25OXH4Y,6,5
165,3,object_01,object_08,633.69999980927,5,2,685.19999980927,0.2222222222222222,1,object_03,1,2238,0,2,6,library_6,2,memory-2step-stake-s,654,2901286,0.0-19.0-0.1-0.165,AQ0YWEW29GSIJ,3YO4AH2FQG0L0WLRIP03W553LNE0Q1,352YTHGROZTS8A2J825DOEZ25OXH4Y,6,5
166,1,object_09,object_07,686.5,1,1,673.30000019073,0.3333333333333333,1,object_03,5,2253,0,3,5,desert_6,2,memory-2step-stake-s,655,2909502,0.0-19.0-0.1-0.166,AQ0YWEW29GSIJ,3YO4AH2FQG0L0WLRIP03W553LNE0Q1,352YTHGROZTS8A2J825DOEZ25OXH4Y,1,2
167,1,object_09,object_07,685.30000019073,1,1,647.80000019073,0.1111111111111111,1,object_03,5,2258,0,1,4,desert_6,2,memory-2step-stake-s,656,2917465,0.0-19.0-0.1-0.167,AQ0YWEW29GSIJ,3YO4AH2FQG0L0WLRIP03W553LNE0Q1,352YTHGROZTS8A2J825DOEZ25OXH4Y,1,2
168,4,object_05,object_04,672.69999980927,7,2,411.89999961853,0.0,1,object_03,1,2258,0,0,1,restaurant_6,2,memory-2step-stake-s,657,2925092,0.0-19.0-0.1-0.168,AQ0YWEW29GSIJ,3YO4AH2FQG0L0WLRIP03W553LNE0Q1,352YTHGROZTS8A2J825DOEZ25OXH4Y,8,7
169,3,object_08,object_01,686.10000038147,6,2,481.5,0.0,2,object_10,5,2258,0,3,0,library_4,2,memory-2step-stake-s,658,2932787,0.0-19.0-0.1-0.169,AQ0YWEW29GSIJ,3YO4AH2FQG0L0WLRIP03W553LNE0Q1,352YTHGROZTS8A2J825DOEZ25OXH4Y,5,6
170,4,object_04,object_05,592.0999994278,7,1,394.4000005722,0.4444444444444444,1,object_03,1,2262,0,4,1,restaurant_2,2,memory-2step-stake-s,659,2940799,0.0-19.0-0.1-0.170,AQ0YWEW29GSIJ,3YO4AH2FQG0L0WLRIP03W553LNE0Q1,352YTHGROZTS8A2J825DOEZ25OXH4Y,7,8
171,4,object_05,object_04,660.0999994278,8,1,1310.8999996185,0.2222222222222222,2,object_10,1,2264,0,4,2,restaurant_6,2,memory-2step-stake-s,660,2949531,0.0-19.0-0.1-0.171,AQ0YWEW29GSIJ,3YO4AH2FQG0L0WLRIP03W553LNE0Q1,352YTHGROZTS8A2J825DOEZ25OXH4Y,8,7
172,1,object_09,object_07,863.30000019073,1,1,473.30000019073,0.5555555555555556,1,object_03,5,2289,0,5,1,desert_3,2,memory-2step-stake-s,661,2957723,0.0-19.0-0.1-0.172,AQ0YWEW29GSIJ,3YO4AH2FQG0L0WLRIP03W553LNE0Q1,352YTHGROZTS8A2J825DOEZ25OXH4Y,1,2
173,1,object_09,object_07,590.89999961853,1,1,417.60000038147,0.5555555555555556,1,object_03,5,2314,0,5,0,desert_3,2,memory-2step-stake-s,662,2965874,0.0-19.0-0.1-0.173,AQ0YWEW29GSIJ,3YO4AH2FQG0L0WLRIP03W553LNE0Q1,352YTHGROZTS8A2J825DOEZ25OXH4Y,1,2
174,3,object_01,object_08,702.5,6,1,407.89999961853,0.0,2,object_10,1,2314,0,5,0,library_6,2,memory-2step-stake-s,663,2973502,0.0-19.0-0.1-0.174,AQ0YWEW29GSIJ,3YO4AH2FQG0L0WLRIP03W553LNE0Q1,352YTHGROZTS8A2J825DOEZ25OXH4Y,6,5
175,2,object_02,object_06,585.4000005722,4,1,355.0,0.1111111111111111,2,object_10,5,2319,0,6,1,forest_2,2,memory-2step-stake-s,664,2981177,0.0-19.0-0.1-0.175,AQ0YWEW29GSIJ,3YO4AH2FQG0L0WLRIP03W553LNE0Q1,352YTHGROZTS8A2J825DOEZ25OXH4Y,4,3
176,3,object_01,object_08,736.29999923706,6,1,473.5999994278,0.4444444444444444,2,object_10,1,2323,0,5,4,library_7,2,memory-2step-stake-s,665,2989283,0.0-19.0-0.1-0.176,AQ0YWEW29GSIJ,3YO4AH2FQG0L0WLRIP03W553LNE0Q1,352YTHGROZTS8A2J825DOEZ25OXH4Y,6,5
177,1,object_09,object_07,582.5,1,1,381.79999923706,0.8888888888888888,1,object_03,5,2363,0,8,6,desert_8,2,memory-2step-stake-s,666,2997703,0.0-19.0-0.1-0.177,AQ0YWEW29GSIJ,3YO4AH2FQG0L0WLRIP03W553LNE0Q1,352YTHGROZTS8A2J825DOEZ25OXH4Y,1,2
178,2,object_06,object_02,660.0,3,1,484.4000005722,0.7777777777777778,1,object_03,5,2398,0,7,8,forest_7,2,memory-2step-stake-s,667,3006117,0.0-19.0-0.1-0.178,AQ0YWEW29GSIJ,3YO4AH2FQG0L0WLRIP03W553LNE0Q1,352YTHGROZTS8A2J825DOEZ25OXH4Y,3,4
179,4,object_04,object_05,764.10000038147,8,2,374.39999961853,0.7777777777777778,2,object_10,1,2405,0,7,7,restaurant_7,2,memory-2step-stake-s,668,3014414,0.0-19.0-0.1-0.179,AQ0YWEW29GSIJ,3YO4AH2FQG0L0WLRIP03W553LNE0Q1,352YTHGROZTS8A2J825DOEZ25OXH4Y,7,8
180,4,object_05,object_04,545.19999980927,8,1,412.5999994278,0.5555555555555556,2,object_10,1,2410,0,7,5,restaurant_6,2,memory-2step-stake-s,669,3022560,0.0-19.0-0.1-0.180,AQ0YWEW29GSIJ,3YO4AH2FQG0L0WLRIP03W553LNE0Q1,352YTHGROZTS8A2J825DOEZ25OXH4Y,8,7
181,3,object_08,object_01,643.10000038147,5,1,905.4000005722,0.7777777777777778,1,object_03,1,2417,0,7,6,library_7,2,memory-2step-stake-s,670,3031407,0.0-19.0-0.1-0.181,AQ0YWEW29GSIJ,3YO4AH2FQG0L0WLRIP03W553LNE0Q1,352YTHGROZTS8A2J825DOEZ25OXH4Y,5,6
182,1,object_07,object_09,442.5,2,1,524.30000019073,0.6666666666666666,2,object_10,1,2423,0,4,6,desert_4,2,memory-2step-stake-s,671,3039766,0.0-19.0-0.1-0.182,AQ0YWEW29GSIJ,3YO4AH2FQG0L0WLRIP03W553LNE0Q1,352YTHGROZTS8A2J825DOEZ25OXH4Y,2,1
183,3,object_08,object_01,635.30000019073,6,2,493.80000019073,0.6666666666666666,2,object_10,1,2429,0,2,6,library_8,2,memory-2step-stake-s,672,3048088,0.0-19.0-0.1-0.183,AQ0YWEW29GSIJ,3YO4AH2FQG0L0WLRIP03W553LNE0Q1,352YTHGROZTS8A2J825DOEZ25OXH4Y,5,6
184,4,object_04,object_05,641.19999980927,7,1,476.30000019073,0.2222222222222222,1,object_03,1,2431,0,2,9,restaurant_6,2,memory-2step-stake-s,673,3055979,0.0-19.0-0.1-0.184,AQ0YWEW29GSIJ,3YO4AH2FQG0L0WLRIP03W553LNE0Q1,352YTHGROZTS8A2J825DOEZ25OXH4Y,7,8
185,4,object_04,object_05,543.0999994278,7,1,444.5,0.6666666666666666,1,object_03,1,2437,0,6,8,restaurant_3,2,memory-2step-stake-s,674,3064241,0.0-19.0-0.1-0.185,AQ0YWEW29GSIJ,3YO4AH2FQG0L0WLRIP03W553LNE0Q1,352YTHGROZTS8A2J825DOEZ25OXH4Y,7,8
186,3,object_01,object_08,521.80000019073,5,2,611.0999994278,0.5555555555555556,1,object_03,1,2442,0,5,5,library_4,2,memory-2step-stake-s,675,3072583,0.0-19.0-0.1-0.186,AQ0YWEW29GSIJ,3YO4AH2FQG0L0WLRIP03W553LNE0Q1,352YTHGROZTS8A2J825DOEZ25OXH4Y,6,5
187,1,object_07,object_09,675.5,2,1,374.60000038147,0.4444444444444444,2,object_10,1,2446,0,8,4,desert_8,2,memory-2step-stake-s,676,3080576,0.0-19.0-0.1-0.187,AQ0YWEW29GSIJ,3YO4AH2FQG0L0WLRIP03W553LNE0Q1,352YTHGROZTS8A2J825DOEZ25OXH4Y,2,1
188,3,object_01,object_08,762.60000038147,5,2,460.80000019073,0.5555555555555556,1,object_03,1,2451,0,5,6,library_4,2,memory-2step-stake-s,677,3088763,0.0-19.0-0.1-0.188,AQ0YWEW29GSIJ,3YO4AH2FQG0L0WLRIP03W553LNE0Q1,352YTHGROZTS8A2J825DOEZ25OXH4Y,6,5
189,3,object_08,object_01,776.5,5,1,452.89999961853,0.6666666666666666,1,object_03,1,2457,0,6,5,library_4,2,memory-2step-stake-s,678,3097049,0.0-19.0-0.1-0.189,AQ0YWEW29GSIJ,3YO4AH2FQG0L0WLRIP03W553LNE0Q1,352YTHGROZTS8A2J825DOEZ25OXH4Y,5,6
190,4,object_04,object_05,528.30000019073,8,2,523.60000038147,0.5555555555555556,2,object_10,1,2462,0,9,5,restaurant_2,2,memory-2step-stake-s,679,3105316,0.0-19.0-0.1-0.190,AQ0YWEW29GSIJ,3YO4AH2FQG0L0WLRIP03W553LNE0Q1,352YTHGROZTS8A2J825DOEZ25OXH4Y,7,8
191,3,object_01,object_08,576.4000005722,5,2,434.89999961853,0.5555555555555556,1,object_03,1,2467,0,5,4,library_4,2,memory-2step-stake-s,680,3113469,0.0-19.0-0.1-0.191,AQ0YWEW29GSIJ,3YO4AH2FQG0L0WLRIP03W553LNE0Q1,352YTHGROZTS8A2J825DOEZ25OXH4Y,6,5
192,1,object_09,object_07,470.19999980927,1,1,711.80000019073,0.1111111111111111,1,object_03,5,2472,0,1,2,desert_6,2,memory-2step-stake-s,681,3121496,0.0-19.0-0.1-0.192,AQ0YWEW29GSIJ,3YO4AH2FQG0L0WLRIP03W553LNE0Q1,352YTHGROZTS8A2J825DOEZ25OXH4Y,1,2
193,4,object_05,object_04,610.0,8,1,476.0,0.1111111111111111,2,object_10,1,2473,0,3,1,restaurant_2,2,memory-2step-stake-s,682,3129288,0.0-19.0-0.1-0.193,AQ0YWEW29GSIJ,3YO4AH2FQG0L0WLRIP03W553LNE0Q1,352YTHGROZTS8A2J825DOEZ25OXH4Y,8,7
194,1,object_09,object_07,707.0999994278,1,1,415.19999980927,0.1111111111111111,1,object_03,5,2478,0,1,2,desert_8,2,memory-2step-stake-s,683,3137027,0.0-19.0-0.1-0.194,AQ0YWEW29GSIJ,3YO4AH2FQG0L0WLRIP03W553LNE0Q1,352YTHGROZTS8A2J825DOEZ25OXH4Y,1,2
195,4,object_04,object_05,704.19999980927,7,1,410.0999994278,0.4444444444444444,1,object_03,1,2482,0,4,5,restaurant_6,2,memory-2step-stake-s,684,3145070,0.0-19.0-0.1-0.195,AQ0YWEW29GSIJ,3YO4AH2FQG0L0WLRIP03W553LNE0Q1,352YTHGROZTS8A2J825DOEZ25OXH4Y,7,8
196,2,object_02,object_06,676.80000019073,3,2,407.0,0.3333333333333333,1,object_03,5,2497,0,3,2,forest_8,2,memory-2step-stake-s,685,3152994,0.0-19.0-0.1-0.196,AQ0YWEW29GSIJ,3YO4AH2FQG0L0WLRIP03W553LNE0Q1,352YTHGROZTS8A2J825DOEZ25OXH4Y,4,3
197,3,object_08,object_01,768.9000005722,5,1,467.0999994278,0.1111111111111111,1,object_03,1,2498,0,1,0,library_8,2,memory-2step-stake-s,686,3160775,0.0-19.0-0.1-0.197,AQ0YWEW29GSIJ,3YO4AH2FQG0L0WLRIP03W553LNE0Q1,352YTHGROZTS8A2J825DOEZ25OXH4Y,5,6
198,4,object_05,object_04,779.80000019073,7,2,422.5,0.1111111111111111,1,object_03,1,2499,0,1,0,restaurant_6,2,memory-2step-stake-s,687,3168512,0.0-19.0-0.1-0.198,AQ0YWEW29GSIJ,3YO4AH2FQG0L0WLRIP03W553LNE0Q1,352YTHGROZTS8A2J825DOEZ25OXH4Y,8,7
199,2,object_02,object_06,674.30000019073,3,2,379.30000019073,0.1111111111111111,1,object_03,5,2504,0,1,2,forest_8,2,memory-2step-stake-s,688,3176207,0.0-19.0-0.1-0.199,AQ0YWEW29GSIJ,3YO4AH2FQG0L0WLRIP03W553LNE0Q1,352YTHGROZTS8A2J825DOEZ25OXH4Y,4,3
200,2,object_06,object_02,682.19999980927,4,2,509.10000038147,0.1111111111111111,2,object_10,5,2509,0,2,1,forest_7,2,memory-2step-stake-s,689,3184041,0.0-19.0-0.1-0.200,AQ0YWEW29GSIJ,3YO4AH2FQG0L0WLRIP03W553LNE0Q1,352YTHGROZTS8A2J825DOEZ25OXH4Y,3,4
201,3,object_01,object_08,610.29999923706,6,1,469.69999980927,0.2222222222222222,2,object_10,1,2511,0,3,2,library_6,2,memory-2step-stake-s,690,3191934,0.0-19.0-0.1-0.201,AQ0YWEW29GSIJ,3YO4AH2FQG0L0WLRIP03W553LNE0Q1,352YTHGROZTS8A2J825DOEZ25OXH4Y,6,5
202,3,object_08,object_01,604.4000005722,5,1,621.79999923706,0.1111111111111111,1,object_03,5,2516,0,1,5,library_6,2,memory-2step-stake-s,691,3199873,0.0-19.0-0.1-0.202,AQ0YWEW29GSIJ,3YO4AH2FQG0L0WLRIP03W553LNE0Q1,352YTHGROZTS8A2J825DOEZ25OXH4Y,5,6
203,4,object_04,object_05,682.4000005722,7,1,391.19999980927,0.2222222222222222,1,object_03,1,2518,0,2,8,restaurant_7,2,memory-2step-stake-s,692,3207678,0.0-19.0-0.1-0.203,AQ0YWEW29GSIJ,3YO4AH2FQG0L0WLRIP03W553LNE0Q1,352YTHGROZTS8A2J825DOEZ25OXH4Y,7,8
204,3,object_08,object_01,539.9000005722,5,1,438.5999994278,0.2222222222222222,1,object_03,1,2520,0,2,4,library_4,2,memory-2step-stake-s,693,3215534,0.0-19.0-0.1-0.204,AQ0YWEW29GSIJ,3YO4AH2FQG0L0WLRIP03W553LNE0Q1,352YTHGROZTS8A2J825DOEZ25OXH4Y,5,6
205,1,object_09,object_07,444.4000005722,1,1,470.80000019073,0.2222222222222222,1,object_03,5,2530,0,2,5,desert_6,2,memory-2step-stake-s,694,3223421,0.0-19.0-0.1-0.205,AQ0YWEW29GSIJ,3YO4AH2FQG0L0WLRIP03W553LNE0Q1,352YTHGROZTS8A2J825DOEZ25OXH4Y,1,2
206,4,object_04,object_05,414.89999961853,7,1,624.5,0.3333333333333333,1,object_03,1,2533,0,3,2,restaurant_2,2,memory-2step-stake-s,695,3231563,0.0-19.0-0.1-0.206,AQ0YWEW29GSIJ,3YO4AH2FQG0L0WLRIP03W553LNE0Q1,352YTHGROZTS8A2J825DOEZ25OXH4Y,7,8
207,4,object_05,object_04,703.60000038147,7,2,403.0,0.7777777777777778,1,object_03,1,2540,0,7,3,restaurant_6,2,memory-2step-stake-s,696,3239914,0.0-19.0-0.1-0.207,AQ0YWEW29GSIJ,3YO4AH2FQG0L0WLRIP03W553LNE0Q1,352YTHGROZTS8A2J825DOEZ25OXH4Y,8,7
208,2,object_02,object_06,618.10000038147,4,1,389.5,0.4444444444444444,2,object_10,5,2560,0,7,4,forest_5,2,memory-2step-stake-s,697,3247919,0.0-19.0-0.1-0.208,AQ0YWEW29GSIJ,3YO4AH2FQG0L0WLRIP03W553LNE0Q1,352YTHGROZTS8A2J825DOEZ25OXH4Y,4,3
209,4,object_04,object_05,659.19999980927,8,2,454.29999923706,0.4444444444444444,2,object_10,1,2564,0,5,4,restaurant_7,2,memory-2step-stake-s,698,3255991,0.0-19.0-0.1-0.209,AQ0YWEW29GSIJ,3YO4AH2FQG0L0WLRIP03W553LNE0Q1,352YTHGROZTS8A2J825DOEZ25OXH4Y,7,8
210,2,object_02,object_06,635.5,3,2,396.5,0.6666666666666666,1,object_03,5,2594,0,6,2,forest_2,2,memory-2step-stake-s,699,3264230,0.0-19.0-0.1-0.210,AQ0YWEW29GSIJ,3YO4AH2FQG0L0WLRIP03W553LNE0Q1,352YTHGROZTS8A2J825DOEZ25OXH4Y,4,3
211,4,object_04,object_05,563.5,8,2,462.69999980927,0.0,2,object_10,5,2594,0,5,0,restaurant_6,2,memory-2step-stake-s,700,3271906,0.0-19.0-0.1-0.211,AQ0YWEW29GSIJ,3YO4AH2FQG0L0WLRIP03W553LNE0Q1,352YTHGROZTS8A2J825DOEZ25OXH4Y,7,8
212,1,object_09,object_07,688.4000005722,2,2,437.19999980927,0.3333333333333333,2,object_10,5,2609,0,4,3,desert_8,2,memory-2step-stake-s,701,3279878,0.0-19.0-0.1-0.212,AQ0YWEW29GSIJ,3YO4AH2FQG0L0WLRIP03W553LNE0Q1,352YTHGROZTS8A2J825DOEZ25OXH4Y,1,2
213,1,object_09,object_07,693.30000019073,2,2,368.69999980927,0.1111111111111111,2,object_10,1,2610,0,6,1,desert_6,2,memory-2step-stake-s,702,3287562,0.0-19.0-0.1-0.213,AQ0YWEW29GSIJ,3YO4AH2FQG0L0WLRIP03W553LNE0Q1,352YTHGROZTS8A2J825DOEZ25OXH4Y,1,2
214,3,object_08,object_01,791.9000005722,5,1,403.10000038147,0.6666666666666666,1,object_03,1,2616,0,6,1,library_7,2,memory-2step-stake-s,703,3295817,0.0-19.0-0.1-0.214,AQ0YWEW29GSIJ,3YO4AH2FQG0L0WLRIP03W553LNE0Q1,352YTHGROZTS8A2J825DOEZ25OXH4Y,5,6
215,3,object_08,object_01,625.19999980927,5,1,428.89999961853,0.7777777777777778,1,object_03,5,2651,0,7,1,library_7,2,memory-2step-stake-s,704,3304168,0.0-19.0-0.1-0.215,AQ0YWEW29GSIJ,3YO4AH2FQG0L0WLRIP03W553LNE0Q1,352YTHGROZTS8A2J825DOEZ25OXH4Y,5,6
216,2,object_02,object_06,688.29999923706,3,2,365.30000019073,0.6666666666666666,1,object_03,5,2681,0,6,1,forest_2,2,memory-2step-stake-s,705,3312364,0.0-19.0-0.1-0.216,AQ0YWEW29GSIJ,3YO4AH2FQG0L0WLRIP03W553LNE0Q1,352YTHGROZTS8A2J825DOEZ25OXH4Y,4,3
217,1,object_09,object_07,774.5,2,2,415.60000038147,0.0,2,object_10,5,2681,0,5,0,desert_8,2,memory-2step-stake-s,706,3319993,0.0-19.0-0.1-0.217,AQ0YWEW29GSIJ,3YO4AH2FQG0L0WLRIP03W553LNE0Q1,352YTHGROZTS8A2J825DOEZ25OXH4Y,1,2
218,2,object_02,object_06,744.5,3,2,450.60000038147,0.3333333333333333,1,object_03,5,2696,0,3,4,forest_2,2,memory-2step-stake-s,707,3327975,0.0-19.0-0.1-0.218,AQ0YWEW29GSIJ,3YO4AH2FQG0L0WLRIP03W553LNE0Q1,352YTHGROZTS8A2J825DOEZ25OXH4Y,4,3
219,1,object_07,object_09,811.69999980927,2,1,453.0,0.5555555555555556,2,object_10,1,2701,0,3,5,desert_3,2,memory-2step-stake-s,708,3336160,0.0-19.0-0.1-0.219,AQ0YWEW29GSIJ,3YO4AH2FQG0L0WLRIP03W553LNE0Q1,352YTHGROZTS8A2J825DOEZ25OXH4Y,2,1
220,2,object_06,object_02,772.0,3,1,445.20000076294,0.2222222222222222,1,object_03,5,2711,0,2,6,forest_8,2,memory-2step-stake-s,709,3344021,0.0-19.0-0.1-0.220,AQ0YWEW29GSIJ,3YO4AH2FQG0L0WLRIP03W553LNE0Q1,352YTHGROZTS8A2J825DOEZ25OXH4Y,3,4
221,4,object_05,object_04,671.39999961853,7,2,440.89999961853,0.2222222222222222,1,object_03,5,2721,0,2,4,restaurant_3,2,memory-2step-stake-s,710,3351877,0.0-19.0-0.1-0.221,AQ0YWEW29GSIJ,3YO4AH2FQG0L0WLRIP03W553LNE0Q1,352YTHGROZTS8A2J825DOEZ25OXH4Y,8,7
222,3,object_01,object_08,733.69999980927,5,2,471.80000019073,0.4444444444444444,1,object_03,1,2725,0,4,3,library_7,2,memory-2step-stake-s,711,3359967,0.0-19.0-0.1-0.222,AQ0YWEW29GSIJ,3YO4AH2FQG0L0WLRIP03W553LNE0Q1,352YTHGROZTS8A2J825DOEZ25OXH4Y,6,5
223,4,object_04,object_05,724.0,8,2,423.29999923706,0.5555555555555556,2,object_10,1,2730,0,3,5,restaurant_3,2,memory-2step-stake-s,712,3368110,0.0-19.0-0.1-0.223,AQ0YWEW29GSIJ,3YO4AH2FQG0L0WLRIP03W553LNE0Q1,352YTHGROZTS8A2J825DOEZ25OXH4Y,7,8
224,4,object_05,object_04,714.80000019073,8,1,357.10000038147,0.7777777777777778,2,object_10,5,2765,0,4,7,restaurant_2,2,memory-2step-stake-s,713,3376390,0.0-19.0-0.1-0.224,AQ0YWEW29GSIJ,3YO4AH2FQG0L0WLRIP03W553LNE0Q1,352YTHGROZTS8A2J825DOEZ25OXH4Y,8,7
225,1,object_09,object_07,675.30000019073,2,2,381.5999994278,0.5555555555555556,2,object_10,5,2790,0,4,5,desert_3,2,memory-2step-stake-s,714,3384497,0.0-19.0-0.1-0.225,AQ0YWEW29GSIJ,3YO4AH2FQG0L0WLRIP03W553LNE0Q1,352YTHGROZTS8A2J825DOEZ25OXH4Y,1,2
226,1,object_09,object_07,865.80000019073,1,1,369.9000005722,0.5555555555555556,1,object_03,5,2815,0,5,5,desert_3,2,memory-2step-stake-s,715,3392601,0.0-19.0-0.1-0.226,AQ0YWEW29GSIJ,3YO4AH2FQG0L0WLRIP03W553LNE0Q1,352YTHGROZTS8A2J825DOEZ25OXH4Y,1,2
227,2,object_06,object_02,650.30000019073,4,2,601.0,0.6666666666666666,2,object_10,5,2845,0,3,6,forest_7,2,memory-2step-stake-s,716,3401046,0.0-19.0-0.1-0.227,AQ0YWEW29GSIJ,3YO4AH2FQG0L0WLRIP03W553LNE0Q1,352YTHGROZTS8A2J825DOEZ25OXH4Y,3,4
228,4,object_05,object_04,627.10000038147,7,2,397.30000019073,0.4444444444444444,1,object_03,5,2865,0,4,9,restaurant_7,2,memory-2step-stake-s,717,3409074,0.0-19.0-0.1-0.228,AQ0YWEW29GSIJ,3YO4AH2FQG0L0WLRIP03W553LNE0Q1,352YTHGROZTS8A2J825DOEZ25OXH4Y,8,7
229,2,object_02,object_06,679.5999994278,4,1,321.69999980927,0.7777777777777778,2,object_10,5,2900,0,6,7,forest_7,2,memory-2step-stake-s,718,3417320,0.0-19.0-0.1-0.229,AQ0YWEW29GSIJ,3YO4AH2FQG0L0WLRIP03W553LNE0Q1,352YTHGROZTS8A2J825DOEZ25OXH4Y,4,3
230,4,object_05,object_04,769.19999980927,7,2,370.80000019073,0.5555555555555556,1,object_03,1,2905,0,5,8,restaurant_6,2,memory-2step-stake-s,719,3425413,0.0-19.0-0.1-0.230,AQ0YWEW29GSIJ,3YO4AH2FQG0L0WLRIP03W553LNE0Q1,352YTHGROZTS8A2J825DOEZ25OXH4Y,8,7
231,1,object_09,object_07,774.5,2,2,416.60000038147,0.5555555555555556,2,object_10,5,2930,0,2,5,desert_3,2,memory-2step-stake-s,720,3433575,0.0-19.0-0.1-0.231,AQ0YWEW29GSIJ,3YO4AH2FQG0L0WLRIP03W553LNE0Q1,352YTHGROZTS8A2J825DOEZ25OXH4Y,1,2
232,2,object_02,object_06,629.69999980927,3,2,366.30000019073,0.1111111111111111,1,object_03,5,2935,0,1,5,forest_5,2,memory-2step-stake-s,721,3441263,0.0-19.0-0.1-0.232,AQ0YWEW29GSIJ,3YO4AH2FQG0L0WLRIP03W553LNE0Q1,352YTHGROZTS8A2J825DOEZ25OXH4Y,4,3
233,1,object_07,object_09,615.69999980927,2,1,408.5,0.4444444444444444,2,object_10,1,2939,0,1,4,desert_6,2,memory-2step-stake-s,722,3449296,0.0-19.0-0.1-0.233,AQ0YWEW29GSIJ,3YO4AH2FQG0L0WLRIP03W553LNE0Q1,352YTHGROZTS8A2J825DOEZ25OXH4Y,2,1
234,4,object_05,object_04,662.80000019073,8,1,426.0,0.3333333333333333,2,object_10,1,2942,0,2,3,restaurant_7,2,memory-2step-stake-s,723,3457239,0.0-19.0-0.1-0.234,AQ0YWEW29GSIJ,3YO4AH2FQG0L0WLRIP03W553LNE0Q1,352YTHGROZTS8A2J825DOEZ25OXH4Y,8,7
235,2,object_02,object_06,578.5,3,2,469.0999994278,0.2222222222222222,1,object_03,5,2952,0,2,2,forest_5,2,memory-2step-stake-s,724,3465131,0.0-19.0-0.1-0.235,AQ0YWEW29GSIJ,3YO4AH2FQG0L0WLRIP03W553LNE0Q1,352YTHGROZTS8A2J825DOEZ25OXH4Y,4,3
236,2,object_02,object_06,574.89999961853,4,1,624.30000019073,0.1111111111111111,2,object_10,1,2953,0,3,1,forest_7,2,memory-2step-stake-s,725,3473079,0.0-19.0-0.1-0.236,AQ0YWEW29GSIJ,3YO4AH2FQG0L0WLRIP03W553LNE0Q1,352YTHGROZTS8A2J825DOEZ25OXH4Y,4,3
237,2,object_02,object_06,482.5,3,2,446.4000005722,0.1111111111111111,1,object_03,5,2958,0,1,2,forest_7,2,memory-2step-stake-s,726,3480841,0.0-19.0-0.1-0.237,AQ0YWEW29GSIJ,3YO4AH2FQG0L0WLRIP03W553LNE0Q1,352YTHGROZTS8A2J825DOEZ25OXH4Y,4,3
238,3,object_01,object_08,480.5,6,1,472.5,0.2222222222222222,2,object_10,1,2960,0,0,2,library_7,2,memory-2step-stake-s,727,3488766,0.0-19.0-0.1-0.238,AQ0YWEW29GSIJ,3YO4AH2FQG0L0WLRIP03W553LNE0Q1,352YTHGROZTS8A2J825DOEZ25OXH4Y,6,5
239,4,object_05,object_04,603.69999980927,8,1,853.19999980927,0.2222222222222222,2,object_10,5,2970,0,2,2,restaurant_6,2,memory-2step-stake-s,728,3497037,0.0-19.0-0.1-0.239,AQ0YWEW29GSIJ,3YO4AH2FQG0L0WLRIP03W553LNE0Q1,352YTHGROZTS8A2J825DOEZ25OXH4Y,8,7
240,4,object_04,object_05,733.60000038147,7,1,342.80000019073,0.3333333333333333,1,object_03,1,2973,0,3,1,restaurant_6,2,memory-2step-stake-s,729,3504900,0.0-19.0-0.1-0.240,AQ0YWEW29GSIJ,3YO4AH2FQG0L0WLRIP03W553LNE0Q1,352YTHGROZTS8A2J825DOEZ25OXH4Y,7,8
241,4,object_05,object_04,597.5,8,1,401.5999994278,0.1111111111111111,2,object_10,1,2974,0,3,1,restaurant_2,2,memory-2step-stake-s,730,3512618,0.0-19.0-0.1-0.241,AQ0YWEW29GSIJ,3YO4AH2FQG0L0WLRIP03W553LNE0Q1,352YTHGROZTS8A2J825DOEZ25OXH4Y,8,7
242,2,object_06,object_02,698.4000005722,3,1,372.80000019073,0.5555555555555556,1,object_03,5,2999,0,5,3,forest_7,2,memory-2step-stake-s,731,3520726,0.0-19.0-0.1-0.242,AQ0YWEW29GSIJ,3YO4AH2FQG0L0WLRIP03W553LNE0Q1,352YTHGROZTS8A2J825DOEZ25OXH4Y,3,4
243,3,object_01,object_08,675.89999961853,5,2,412.9000005722,0.3333333333333333,1,object_03,1,3002,0,3,0,library_8,2,memory-2step-stake-s,732,3528665,0.0-19.0-0.1-0.243,AQ0YWEW29GSIJ,3YO4AH2FQG0L0WLRIP03W553LNE0Q1,352YTHGROZTS8A2J825DOEZ25OXH4Y,6,5
244,3,object_01,object_08,688.30000019073,6,1,458.4000005722,0.2222222222222222,2,object_10,1,3004,0,1,2,library_6,2,memory-2step-stake-s,733,3536543,0.0-19.0-0.1-0.244,AQ0YWEW29GSIJ,3YO4AH2FQG0L0WLRIP03W553LNE0Q1,352YTHGROZTS8A2J825DOEZ25OXH4Y,6,5
245,2,object_02,object_06,674.80000019073,4,1,436.0,0.5555555555555556,2,object_10,5,3029,0,0,5,forest_5,2,memory-2step-stake-s,734,3544708,0.0-19.0-0.1-0.245,AQ0YWEW29GSIJ,3YO4AH2FQG0L0WLRIP03W553LNE0Q1,352YTHGROZTS8A2J825DOEZ25OXH4Y,4,3
246,2,object_06,object_02,557.5,3,1,416.69999980927,0.3333333333333333,1,object_03,5,3044,0,3,5,forest_5,2,memory-2step-stake-s,735,3552643,0.0-19.0-0.1-0.246,AQ0YWEW29GSIJ,3YO4AH2FQG0L0WLRIP03W553LNE0Q1,352YTHGROZTS8A2J825DOEZ25OXH4Y,3,4
247,4,object_04,object_05,478.39999961853,7,1,465.0,0.0,1,object_03,5,3044,0,0,4,restaurant_3,2,memory-2step-stake-s,736,3560322,0.0-19.0-0.1-0.247,AQ0YWEW29GSIJ,3YO4AH2FQG0L0WLRIP03W553LNE0Q1,352YTHGROZTS8A2J825DOEZ25OXH4Y,7,8
248,2,object_02,object_06,784.5,4,1,396.0,0.2222222222222222,2,object_10,5,3054,0,2,2,forest_7,2,memory-2step-stake-s,737,3568134,0.0-19.0-0.1-0.248,AQ0YWEW29GSIJ,3YO4AH2FQG0L0WLRIP03W553LNE0Q1,352YTHGROZTS8A2J825DOEZ25OXH4Y,4,3
249,1,object_09,object_07,1018.6999998093,1,1,501.9000005722,0.2222222222222222,1,object_03,5,3064,0,2,3,desert_4,2,memory-2step-stake-s,738,3576052,0.0-19.0-0.1-0.249,AQ0YWEW29GSIJ,3YO4AH2FQG0L0WLRIP03W553LNE0Q1,352YTHGROZTS8A2J825DOEZ25OXH4Y,1,2
250,4,object_04,object_05,732.79999923706,8,2,473.10000038147,0.2222222222222222,2,object_10,1,3066,0,2,2,restaurant_7,2,memory-2step-stake-s,739,3583940,0.0-19.0-0.1-0.250,AQ0YWEW29GSIJ,3YO4AH2FQG0L0WLRIP03W553LNE0Q1,352YTHGROZTS8A2J825DOEZ25OXH4Y,7,8
251,4,object_04,object_05,676.9000005722,8,2,403.0999994278,0.2222222222222222,2,object_10,1,3068,0,1,2,restaurant_7,2,memory-2step-stake-s,740,3591763,0.0-19.0-0.1-0.251,AQ0YWEW29GSIJ,3YO4AH2FQG0L0WLRIP03W553LNE0Q1,352YTHGROZTS8A2J825DOEZ25OXH4Y,7,8
252,2,object_06,object_02,989.5999994278,4,2,375.10000038147,0.1111111111111111,2,object_10,5,3073,0,3,1,forest_8,2,memory-2step-stake-s,741,3599456,0.0-19.0-0.1-0.252,AQ0YWEW29GSIJ,3YO4AH2FQG0L0WLRIP03W553LNE0Q1,352YTHGROZTS8A2J825DOEZ25OXH4Y,3,4
253,3,object_08,object_01,874.19999980927,6,2,386.39999961853,0.4444444444444444,2,object_10,1,3077,0,0,4,library_7,2,memory-2step-stake-s,742,3607470,0.0-19.0-0.1-0.253,AQ0YWEW29GSIJ,3YO4AH2FQG0L0WLRIP03W553LNE0Q1,352YTHGROZTS8A2J825DOEZ25OXH4Y,5,6
254,4,object_05,object_04,588.5999994278,8,1,893.30000019073,0.3333333333333333,2,object_10,1,3080,0,5,3,restaurant_6,2,memory-2step-stake-s,743,3615890,0.0-19.0-0.1-0.254,AQ0YWEW29GSIJ,3YO4AH2FQG0L0WLRIP03W553LNE0Q1,352YTHGROZTS8A2J825DOEZ25OXH4Y,8,7
255,4,object_05,object_04,662.29999923706,7,2,393.60000038147,0.5555555555555556,1,object_03,1,3085,0,5,8,restaurant_2,2,memory-2step-stake-s,744,3624012,0.0-19.0-0.1-0.255,AQ0YWEW29GSIJ,3YO4AH2FQG0L0WLRIP03W553LNE0Q1,352YTHGROZTS8A2J825DOEZ25OXH4Y,8,7
