,state1,stim_left,stim_right,rt_1,choice1,response1,rt_2,points,state2,stim_state2,stake,score,practice,rews1,rews2,background,high_arm,trial_type,trial_index,time_elapsed,internal_node_id,subid,hitid,assignmentid,stim_left_num,stim_right_num
0,1,object_05,object_03,1078.9050000021,2,1,1293.2850000216,0.1111111111111111,2,object_07,5,5,0,9,1,desert_4,2,memory-2step-stake-s,488,1020590,0.0-19.0-0.0-0.0,A1NKBIJQGT0712,3A3KKYU7Q6XNN7OKJ3M7MRU2CR5MWB,3M1CVSFP64LKNSH30T2YAVD3ONPAQ2,2,1
1,2,object_08,object_02,1273.749999993,3,2,993.4999999823,1.0,1,object_10,5,50,0,9,2,forest_7,2,memory-2step-stake-s,489,1029740,0.0-19.0-0.0-0.1,A1NKBIJQGT0712,3A3KKYU7Q6XNN7OKJ3M7MRU2CR5MWB,3M1CVSFP64LKNSH30T2YAVD3ONPAQ2,4,3
2,4,object_06,object_09,-1.0,-1,-1,-1.0,0.0,-,0,1,50,0,7,0,restaurant_1,2,memory-2step-stake-s,490,1036288,0.0-19.0-0.0-0.2,A1NKBIJQGT0712,3A3KKYU7Q6XNN7OKJ3M7MRU2CR5MWB,3M1CVSFP64LKNSH30T2YAVD3ONPAQ2,7,8
3,3,object_04,object_01,699.62000002852,6,2,602.68000001088,0.2222222222222222,2,object_07,5,60,0,5,2,library_1,2,memory-2step-stake-s,491,1044353,0.0-19.0-0.0-0.3,A1NKBIJQGT0712,3A3KKYU7Q6XNN7OKJ3M7MRU2CR5MWB,3M1CVSFP64LKNSH30T2YAVD3ONPAQ2,5,6
4,1,object_03,object_05,713.19000003859,2,2,451.66999998037,0.4444444444444444,2,object_07,1,64,0,7,4,desert_8,2,memory-2step-stake-s,492,1052434,0.0-19.0-0.0-0.4,A1NKBIJQGT0712,3A3KKYU7Q6XNN7OKJ3M7MRU2CR5MWB,3M1CVSFP64LKNSH30T2YAVD3ONPAQ2,1,2
5,1,object_05,object_03,1090.0700000348,2,1,358.16999996314,0.5555555555555556,2,object_07,5,89,0,5,5,desert_4,2,memory-2step-stake-s,493,1060529,0.0-19.0-0.0-0.5,A1NKBIJQGT0712,3A3KKYU7Q6XNN7OKJ3M7MRU2CR5MWB,3M1CVSFP64LKNSH30T2YAVD3ONPAQ2,2,1
6,1,object_03,object_05,809.02000004426,2,2,337.41500001634,0.4444444444444444,2,object_07,1,93,0,6,4,desert_2,2,memory-2step-stake-s,494,1068509,0.0-19.0-0.0-0.6,A1NKBIJQGT0712,3A3KKYU7Q6XNN7OKJ3M7MRU2CR5MWB,3M1CVSFP64LKNSH30T2YAVD3ONPAQ2,1,2
7,3,object_01,object_04,1012.7000000211,5,2,399.09000002081,0.7777777777777778,1,object_10,1,100,0,7,6,library_1,2,memory-2step-stake-s,495,1076859,0.0-19.0-0.0-0.7,A1NKBIJQGT0712,3A3KKYU7Q6XNN7OKJ3M7MRU2CR5MWB,3M1CVSFP64LKNSH30T2YAVD3ONPAQ2,6,5
8,2,object_02,object_08,1162.3099999852,4,2,737.67499998212,0.5555555555555556,2,object_07,1,105,0,4,5,forest_5,2,memory-2step-stake-s,496,1085349,0.0-19.0-0.0-0.8,A1NKBIJQGT0712,3A3KKYU7Q6XNN7OKJ3M7MRU2CR5MWB,3M1CVSFP64LKNSH30T2YAVD3ONPAQ2,3,4
9,2,object_08,object_02,949.9599999981,3,2,442.1250000014,0.3333333333333333,1,object_10,5,120,0,3,4,forest_2,2,memory-2step-stake-s,497,1093321,0.0-19.0-0.0-0.9,A1NKBIJQGT0712,3A3KKYU7Q6XNN7OKJ3M7MRU2CR5MWB,3M1CVSFP64LKNSH30T2YAVD3ONPAQ2,4,3
10,3,object_04,object_01,913.53499999968,5,1,536.83500003535,0.3333333333333333,1,object_10,5,135,0,3,5,library_5,2,memory-2step-stake-s,498,1101387,0.0-19.0-0.0-0.10,A1NKBIJQGT0712,3A3KKYU7Q6XNN7OKJ3M7MRU2CR5MWB,3M1CVSFP64LKNSH30T2YAVD3ONPAQ2,5,6
11,1,object_05,object_03,1149.9549999717,2,1,283.45000004629,0.5555555555555556,2,object_07,5,160,0,2,5,desert_2,2,memory-2step-stake-s,499,1109411,0.0-19.0-0.0-0.11,A1NKBIJQGT0712,3A3KKYU7Q6XNN7OKJ3M7MRU2CR5MWB,3M1CVSFP64LKNSH30T2YAVD3ONPAQ2,2,1
12,2,object_08,object_02,926.48999998346,4,1,474.86999997636,0.3333333333333333,2,object_07,5,175,0,1,3,forest_5,2,memory-2step-stake-s,500,1117425,0.0-19.0-0.0-0.12,A1NKBIJQGT0712,3A3KKYU7Q6XNN7OKJ3M7MRU2CR5MWB,3M1CVSFP64LKNSH30T2YAVD3ONPAQ2,4,3
13,1,object_03,object_05,544.08500000136,2,2,357.6699999976,0.2222222222222222,2,object_07,5,185,0,0,2,desert_4,2,memory-2step-stake-s,501,1125217,0.0-19.0-0.0-0.13,A1NKBIJQGT0712,3A3KKYU7Q6XNN7OKJ3M7MRU2CR5MWB,3M1CVSFP64LKNSH30T2YAVD3ONPAQ2,1,2
14,1,object_03,object_05,550.99499999778,1,1,294.38500001561,0.2222222222222222,1,object_10,1,187,0,2,4,desert_4,2,memory-2step-stake-s,502,1132940,0.0-19.0-0.0-0.14,A1NKBIJQGT0712,3A3KKYU7Q6XNN7OKJ3M7MRU2CR5MWB,3M1CVSFP64LKNSH30T2YAVD3ONPAQ2,1,2
15,4,object_09,object_06,1112.5400000019,7,2,719.40499998163,0.3333333333333333,1,object_10,1,190,0,3,4,restaurant_2,2,memory-2step-stake-s,503,1141194,0.0-19.0-0.0-0.15,A1NKBIJQGT0712,3A3KKYU7Q6XNN7OKJ3M7MRU2CR5MWB,3M1CVSFP64LKNSH30T2YAVD3ONPAQ2,8,7
16,4,object_06,object_09,933.85000003036,8,2,547.91500000283,0.8888888888888888,2,object_07,1,198,0,2,8,restaurant_6,2,memory-2step-stake-s,504,1149778,0.0-19.0-0.0-0.16,A1NKBIJQGT0712,3A3KKYU7Q6XNN7OKJ3M7MRU2CR5MWB,3M1CVSFP64LKNSH30T2YAVD3ONPAQ2,7,8
17,2,object_08,object_02,-1.0,-1,-1,-1.0,0.0,-,0,1,198,0,1,8,forest_5,2,memory-2step-stake-s,505,1156307,0.0-19.0-0.0-0.17,A1NKBIJQGT0712,3A3KKYU7Q6XNN7OKJ3M7MRU2CR5MWB,3M1CVSFP64LKNSH30T2YAVD3ONPAQ2,4,3
18,4,object_06,object_09,666.05500003789,8,2,407.04999997979,0.5555555555555556,2,object_07,1,203,0,2,5,restaurant_2,2,memory-2step-stake-s,506,1164452,0.0-19.0-0.0-0.18,A1NKBIJQGT0712,3A3KKYU7Q6XNN7OKJ3M7MRU2CR5MWB,3M1CVSFP64LKNSH30T2YAVD3ONPAQ2,7,8
19,4,object_06,object_09,728.54999999981,8,2,625.33999996958,0.5555555555555556,2,object_07,1,208,0,0,5,restaurant_1,2,memory-2step-stake-s,507,1172828,0.0-19.0-0.0-0.19,A1NKBIJQGT0712,3A3KKYU7Q6XNN7OKJ3M7MRU2CR5MWB,3M1CVSFP64LKNSH30T2YAVD3ONPAQ2,7,8
20,4,object_06,object_09,647.93500001542,8,2,319.02500003343,0.4444444444444444,2,object_07,1,212,0,1,4,restaurant_4,2,memory-2step-stake-s,508,1180785,0.0-19.0-0.0-0.20,A1NKBIJQGT0712,3A3KKYU7Q6XNN7OKJ3M7MRU2CR5MWB,3M1CVSFP64LKNSH30T2YAVD3ONPAQ2,7,8
21,2,object_08,object_02,889.3800000078,4,1,495.99500000477,0.4444444444444444,2,object_07,1,216,0,0,4,forest_6,2,memory-2step-stake-s,509,1188937,0.0-19.0-0.0-0.21,A1NKBIJQGT0712,3A3KKYU7Q6XNN7OKJ3M7MRU2CR5MWB,3M1CVSFP64LKNSH30T2YAVD3ONPAQ2,4,3
22,3,object_01,object_04,1225.139999995,6,1,632.66000000294,0.4444444444444444,2,object_07,1,220,0,1,4,library_3,2,memory-2step-stake-s,510,1197208,0.0-19.0-0.0-0.22,A1NKBIJQGT0712,3A3KKYU7Q6XNN7OKJ3M7MRU2CR5MWB,3M1CVSFP64LKNSH30T2YAVD3ONPAQ2,6,5
23,2,object_08,object_02,861.83999996865,4,1,268.34999996936,0.4444444444444444,2,object_07,5,240,0,2,4,forest_6,2,memory-2step-stake-s,511,1205120,0.0-19.0-0.0-0.23,A1NKBIJQGT0712,3A3KKYU7Q6XNN7OKJ3M7MRU2CR5MWB,3M1CVSFP64LKNSH30T2YAVD3ONPAQ2,4,3
24,3,object_04,object_01,1116.3400000078,6,2,571.63500000024,0.7777777777777778,2,object_07,1,247,0,2,7,library_2,2,memory-2step-stake-s,512,1213641,0.0-19.0-0.0-0.24,A1NKBIJQGT0712,3A3KKYU7Q6XNN7OKJ3M7MRU2CR5MWB,3M1CVSFP64LKNSH30T2YAVD3ONPAQ2,5,6
25,4,object_09,object_06,763.05999996839,8,1,352.67500003101,0.6666666666666666,2,object_07,1,253,0,4,6,restaurant_6,2,memory-2step-stake-s,513,1221844,0.0-19.0-0.0-0.25,A1NKBIJQGT0712,3A3KKYU7Q6XNN7OKJ3M7MRU2CR5MWB,3M1CVSFP64LKNSH30T2YAVD3ONPAQ2,8,7
26,2,object_02,object_08,764.06000001589,4,2,468.33000000333,0.5555555555555556,2,object_07,5,278,0,2,5,forest_2,2,memory-2step-stake-s,514,1230053,0.0-19.0-0.0-0.26,A1NKBIJQGT0712,3A3KKYU7Q6XNN7OKJ3M7MRU2CR5MWB,3M1CVSFP64LKNSH30T2YAVD3ONPAQ2,3,4
27,3,object_01,object_04,1055.800000031,6,1,528.5149999545,0.3333333333333333,2,object_07,1,281,0,1,3,library_2,2,memory-2step-stake-s,515,1238124,0.0-19.0-0.0-0.27,A1NKBIJQGT0712,3A3KKYU7Q6XNN7OKJ3M7MRU2CR5MWB,3M1CVSFP64LKNSH30T2YAVD3ONPAQ2,6,5
28,2,object_08,object_02,771.98999997927,4,1,34.615000011399,0.4444444444444444,2,object_07,5,301,0,1,4,forest_6,2,memory-2step-stake-s,516,1245799,0.0-19.0-0.0-0.28,A1NKBIJQGT0712,3A3KKYU7Q6XNN7OKJ3M7MRU2CR5MWB,3M1CVSFP64LKNSH30T2YAVD3ONPAQ2,4,3
29,1,object_05,object_03,1049.9049999635,2,1,641.41999999993,0.2222222222222222,2,object_07,5,311,0,1,2,desert_8,2,memory-2step-stake-s,517,1253867,0.0-19.0-0.0-0.29,A1NKBIJQGT0712,3A3KKYU7Q6XNN7OKJ3M7MRU2CR5MWB,3M1CVSFP64LKNSH30T2YAVD3ONPAQ2,2,1
30,1,object_03,object_05,719.5800000336,2,2,115.0599999819,0.2222222222222222,2,object_07,5,321,0,2,2,desert_4,2,memory-2step-stake-s,518,1261422,0.0-19.0-0.0-0.30,A1NKBIJQGT0712,3A3KKYU7Q6XNN7OKJ3M7MRU2CR5MWB,3M1CVSFP64LKNSH30T2YAVD3ONPAQ2,1,2
31,4,object_09,object_06,685.8099999954,8,1,249.84000000404,0.4444444444444444,2,object_07,5,341,0,3,4,restaurant_6,2,memory-2step-stake-s,519,1269321,0.0-19.0-0.0-0.31,A1NKBIJQGT0712,3A3KKYU7Q6XNN7OKJ3M7MRU2CR5MWB,3M1CVSFP64LKNSH30T2YAVD3ONPAQ2,8,7
32,2,object_02,object_08,820.29499998316,4,2,611.0800000024,0.3333333333333333,2,object_07,5,356,0,3,3,forest_5,2,memory-2step-stake-s,520,1277479,0.0-19.0-0.0-0.32,A1NKBIJQGT0712,3A3KKYU7Q6XNN7OKJ3M7MRU2CR5MWB,3M1CVSFP64LKNSH30T2YAVD3ONPAQ2,3,4
33,2,object_02,object_08,653.95499998704,4,2,756.5300000133,0.2222222222222222,2,object_07,5,366,0,3,2,forest_5,2,memory-2step-stake-s,521,1285678,0.0-19.0-0.0-0.33,A1NKBIJQGT0712,3A3KKYU7Q6XNN7OKJ3M7MRU2CR5MWB,3M1CVSFP64LKNSH30T2YAVD3ONPAQ2,3,4
34,2,object_02,object_08,687.03500000993,4,2,525.35499999067,0.1111111111111111,2,object_07,5,371,0,3,1,forest_2,2,memory-2step-stake-s,522,1293534,0.0-19.0-0.0-0.34,A1NKBIJQGT0712,3A3KKYU7Q6XNN7OKJ3M7MRU2CR5MWB,3M1CVSFP64LKNSH30T2YAVD3ONPAQ2,3,4
35,2,object_02,object_08,704.04499996221,3,1,263.02499999292,0.2222222222222222,1,object_10,5,381,0,2,2,forest_6,2,memory-2step-stake-s,523,1301257,0.0-19.0-0.0-0.35,A1NKBIJQGT0712,3A3KKYU7Q6XNN7OKJ3M7MRU2CR5MWB,3M1CVSFP64LKNSH30T2YAVD3ONPAQ2,3,4
36,3,object_01,object_04,964.14999995613,5,2,525.36999998847,0.6666666666666666,1,object_10,1,387,0,6,1,library_2,2,memory-2step-stake-s,524,1309628,0.0-19.0-0.0-0.36,A1NKBIJQGT0712,3A3KKYU7Q6XNN7OKJ3M7MRU2CR5MWB,3M1CVSFP64LKNSH30T2YAVD3ONPAQ2,6,5
37,3,object_01,object_04,961.87999995891,5,2,424.10499998368,0.4444444444444444,1,object_10,1,391,0,4,1,library_3,2,memory-2step-stake-s,525,1317683,0.0-19.0-0.0-0.37,A1NKBIJQGT0712,3A3KKYU7Q6XNN7OKJ3M7MRU2CR5MWB,3M1CVSFP64LKNSH30T2YAVD3ONPAQ2,6,5
38,4,object_06,object_09,699.34999995166,7,1,504.33999998495,0.3333333333333333,1,object_10,1,394,0,3,3,restaurant_1,2,memory-2step-stake-s,526,1325722,0.0-19.0-0.0-0.38,A1NKBIJQGT0712,3A3KKYU7Q6XNN7OKJ3M7MRU2CR5MWB,3M1CVSFP64LKNSH30T2YAVD3ONPAQ2,7,8
39,2,object_02,object_08,899.89999996033,4,2,516.18999999482,0.2222222222222222,2,object_07,5,404,0,4,2,forest_7,2,memory-2step-stake-s,527,1333666,0.0-19.0-0.0-0.39,A1NKBIJQGT0712,3A3KKYU7Q6XNN7OKJ3M7MRU2CR5MWB,3M1CVSFP64LKNSH30T2YAVD3ONPAQ2,3,4
40,3,object_04,object_01,1111.6550000152,5,1,641.55499998014,0.8888888888888888,1,object_10,5,444,0,8,1,library_5,2,memory-2step-stake-s,528,1342349,0.0-19.0-0.0-0.40,A1NKBIJQGT0712,3A3KKYU7Q6XNN7OKJ3M7MRU2CR5MWB,3M1CVSFP64LKNSH30T2YAVD3ONPAQ2,5,6
41,2,object_08,object_02,896.43500000238,3,2,303.38499997742,0.8888888888888888,1,object_10,5,484,0,8,2,forest_2,2,memory-2step-stake-s,529,1350689,0.0-19.0-0.0-0.41,A1NKBIJQGT0712,3A3KKYU7Q6XNN7OKJ3M7MRU2CR5MWB,3M1CVSFP64LKNSH30T2YAVD3ONPAQ2,4,3
42,2,object_02,object_08,785.19500000402,3,1,299.53499999829,0.6666666666666666,1,object_10,5,514,0,6,1,forest_5,2,memory-2step-stake-s,530,1358822,0.0-19.0-0.0-0.42,A1NKBIJQGT0712,3A3KKYU7Q6XNN7OKJ3M7MRU2CR5MWB,3M1CVSFP64LKNSH30T2YAVD3ONPAQ2,3,4
43,3,object_01,object_04,788.81500003627,5,2,297.71499999333,0.5555555555555556,1,object_10,1,519,0,5,1,library_2,2,memory-2step-stake-s,531,1366858,0.0-19.0-0.0-0.43,A1NKBIJQGT0712,3A3KKYU7Q6XNN7OKJ3M7MRU2CR5MWB,3M1CVSFP64LKNSH30T2YAVD3ONPAQ2,6,5
44,4,object_09,object_06,1169.8850000394,7,2,526.33999998216,0.2222222222222222,1,object_10,1,521,0,2,2,restaurant_6,2,memory-2step-stake-s,532,1374826,0.0-19.0-0.0-0.44,A1NKBIJQGT0712,3A3KKYU7Q6XNN7OKJ3M7MRU2CR5MWB,3M1CVSFP64LKNSH30T2YAVD3ONPAQ2,8,7
45,1,object_05,object_03,1052.6449999888,1,2,297.38999996334,0.2222222222222222,1,object_10,5,531,0,2,0,desert_3,2,memory-2step-stake-s,533,1382558,0.0-19.0-0.0-0.45,A1NKBIJQGT0712,3A3KKYU7Q6XNN7OKJ3M7MRU2CR5MWB,3M1CVSFP64LKNSH30T2YAVD3ONPAQ2,2,1
46,4,object_09,object_06,1402.4850000278,8,1,402.39000000292,0.3333333333333333,2,object_07,1,534,0,4,3,restaurant_2,2,memory-2step-stake-s,534,1390495,0.0-19.0-0.0-0.46,A1NKBIJQGT0712,3A3KKYU7Q6XNN7OKJ3M7MRU2CR5MWB,3M1CVSFP64LKNSH30T2YAVD3ONPAQ2,8,7
47,2,object_08,object_02,967.5050000078,4,1,695.19499997841,0.5555555555555556,2,object_07,5,559,0,4,5,forest_6,2,memory-2step-stake-s,535,1398939,0.0-19.0-0.0-0.47,A1NKBIJQGT0712,3A3KKYU7Q6XNN7OKJ3M7MRU2CR5MWB,3M1CVSFP64LKNSH30T2YAVD3ONPAQ2,4,3
48,1,object_05,object_03,657.83500001999,2,1,515.98500000546,0.7777777777777778,2,object_07,1,566,0,3,7,desert_8,2,memory-2step-stake-s,536,1407397,0.0-19.0-0.0-0.48,A1NKBIJQGT0712,3A3KKYU7Q6XNN7OKJ3M7MRU2CR5MWB,3M1CVSFP64LKNSH30T2YAVD3ONPAQ2,2,1
49,4,object_09,object_06,682.67000000924,8,1,542.88500000257,0.6666666666666666,2,object_07,5,596,0,1,6,restaurant_1,2,memory-2step-stake-s,537,1415794,0.0-19.0-0.0-0.49,A1NKBIJQGT0712,3A3KKYU7Q6XNN7OKJ3M7MRU2CR5MWB,3M1CVSFP64LKNSH30T2YAVD3ONPAQ2,8,7
50,4,object_09,object_06,613.49499999778,8,1,132.76000000769,0.3333333333333333,2,object_07,1,599,0,1,3,restaurant_1,2,memory-2step-stake-s,538,1423457,0.0-19.0-0.0-0.50,A1NKBIJQGT0712,3A3KKYU7Q6XNN7OKJ3M7MRU2CR5MWB,3M1CVSFP64LKNSH30T2YAVD3ONPAQ2,8,7
51,1,object_03,object_05,772.25999999791,1,1,413.84499997366,0.0,1,object_10,5,599,0,0,6,desert_3,2,memory-2step-stake-s,539,1431104,0.0-19.0-0.0-0.51,A1NKBIJQGT0712,3A3KKYU7Q6XNN7OKJ3M7MRU2CR5MWB,3M1CVSFP64LKNSH30T2YAVD3ONPAQ2,1,2
52,3,object_01,object_04,1037.5150000327,6,1,254.0249999729,0.6666666666666666,2,object_07,1,605,0,1,6,library_2,2,memory-2step-stake-s,540,1439214,0.0-19.0-0.0-0.52,A1NKBIJQGT0712,3A3KKYU7Q6XNN7OKJ3M7MRU2CR5MWB,3M1CVSFP64LKNSH30T2YAVD3ONPAQ2,6,5
53,3,object_01,object_04,705.91999997851,6,1,463.50000001257,0.8888888888888888,2,object_07,5,645,0,1,8,library_1,2,memory-2step-stake-s,541,1447720,0.0-19.0-0.0-0.53,A1NKBIJQGT0712,3A3KKYU7Q6XNN7OKJ3M7MRU2CR5MWB,3M1CVSFP64LKNSH30T2YAVD3ONPAQ2,6,5
54,3,object_04,object_01,703.39999999851,6,2,696.42999995267,0.8888888888888888,2,object_07,1,653,0,1,8,library_1,2,memory-2step-stake-s,542,1456464,0.0-19.0-0.0-0.54,A1NKBIJQGT0712,3A3KKYU7Q6XNN7OKJ3M7MRU2CR5MWB,3M1CVSFP64LKNSH30T2YAVD3ONPAQ2,5,6
55,3,object_01,object_04,662.21000003861,6,1,492.55999998422,1.0,2,object_07,1,662,0,0,9,library_5,2,memory-2step-stake-s,543,1465098,0.0-19.0-0.0-0.55,A1NKBIJQGT0712,3A3KKYU7Q6XNN7OKJ3M7MRU2CR5MWB,3M1CVSFP64LKNSH30T2YAVD3ONPAQ2,6,5
56,2,object_02,object_08,1166.3550000521,4,2,333.76499998849,1.0,2,object_07,1,671,0,1,9,forest_2,2,memory-2step-stake-s,544,1473586,0.0-19.0-0.0-0.56,A1NKBIJQGT0712,3A3KKYU7Q6XNN7OKJ3M7MRU2CR5MWB,3M1CVSFP64LKNSH30T2YAVD3ONPAQ2,3,4
57,4,object_09,object_06,881.58499996644,8,1,111.71000002651,0.6666666666666666,2,object_07,1,677,0,1,6,restaurant_2,2,memory-2step-stake-s,545,1481540,0.0-19.0-0.0-0.57,A1NKBIJQGT0712,3A3KKYU7Q6XNN7OKJ3M7MRU2CR5MWB,3M1CVSFP64LKNSH30T2YAVD3ONPAQ2,8,7
58,3,object_04,object_01,783.51999999722,6,2,271.50500001153,0.5555555555555556,2,object_07,1,682,0,9,5,library_3,2,memory-2step-stake-s,546,1489546,0.0-19.0-0.0-0.58,A1NKBIJQGT0712,3A3KKYU7Q6XNN7OKJ3M7MRU2CR5MWB,3M1CVSFP64LKNSH30T2YAVD3ONPAQ2,5,6
59,2,object_08,object_02,803.2050000038,4,1,246.00000004284,0.3333333333333333,2,object_07,5,697,0,8,3,forest_6,2,memory-2step-stake-s,547,1497343,0.0-19.0-0.0-0.59,A1NKBIJQGT0712,3A3KKYU7Q6XNN7OKJ3M7MRU2CR5MWB,3M1CVSFP64LKNSH30T2YAVD3ONPAQ2,4,3
60,3,object_01,object_04,679.74499997217,6,1,349.53000000678,0.3333333333333333,2,object_07,5,712,0,6,3,library_5,2,memory-2step-stake-s,548,1505228,0.0-19.0-0.0-0.60,A1NKBIJQGT0712,3A3KKYU7Q6XNN7OKJ3M7MRU2CR5MWB,3M1CVSFP64LKNSH30T2YAVD3ONPAQ2,6,5
61,2,object_02,object_08,679.42999996012,4,2,566.85999996262,0.5555555555555556,2,object_07,5,737,0,5,5,forest_7,2,memory-2step-stake-s,549,1513534,0.0-19.0-0.0-0.61,A1NKBIJQGT0712,3A3KKYU7Q6XNN7OKJ3M7MRU2CR5MWB,3M1CVSFP64LKNSH30T2YAVD3ONPAQ2,3,4
62,4,object_06,object_09,1108.8849999942,8,2,315.4799999902,0.5555555555555556,2,object_07,1,742,0,4,5,restaurant_2,2,memory-2step-stake-s,550,1521592,0.0-19.0-0.0-0.62,A1NKBIJQGT0712,3A3KKYU7Q6XNN7OKJ3M7MRU2CR5MWB,3M1CVSFP64LKNSH30T2YAVD3ONPAQ2,7,8
63,1,object_03,object_05,992.01500002528,2,2,623.04999999469,0.1111111111111111,2,object_07,5,747,0,1,1,desert_3,2,memory-2step-stake-s,551,1529554,0.0-19.0-0.0-0.63,A1NKBIJQGT0712,3A3KKYU7Q6XNN7OKJ3M7MRU2CR5MWB,3M1CVSFP64LKNSH30T2YAVD3ONPAQ2,1,2
64,1,object_05,object_03,750.53999997908,2,1,692.47500004712,0.1111111111111111,2,object_07,1,748,0,2,1,desert_4,2,memory-2step-stake-s,552,1537575,0.0-19.0-0.0-0.64,A1NKBIJQGT0712,3A3KKYU7Q6XNN7OKJ3M7MRU2CR5MWB,3M1CVSFP64LKNSH30T2YAVD3ONPAQ2,2,1
65,2,object_02,object_08,632.56499997806,3,1,253.84999997914,0.2222222222222222,1,object_10,5,758,0,2,2,forest_7,2,memory-2step-stake-s,553,1545260,0.0-19.0-0.0-0.65,A1NKBIJQGT0712,3A3KKYU7Q6XNN7OKJ3M7MRU2CR5MWB,3M1CVSFP64LKNSH30T2YAVD3ONPAQ2,3,4
66,3,object_04,object_01,778.29499996733,6,2,308.17500001285,0.0,2,object_07,1,758,0,2,0,library_3,2,memory-2step-stake-s,554,1552820,0.0-19.0-0.0-0.66,A1NKBIJQGT0712,3A3KKYU7Q6XNN7OKJ3M7MRU2CR5MWB,3M1CVSFP64LKNSH30T2YAVD3ONPAQ2,5,6
67,4,object_09,object_06,747.13000003248,7,2,361.61000002176,0.0,1,object_10,5,758,0,0,5,restaurant_4,2,memory-2step-stake-s,555,1560420,0.0-19.0-0.0-0.67,A1NKBIJQGT0712,3A3KKYU7Q6XNN7OKJ3M7MRU2CR5MWB,3M1CVSFP64LKNSH30T2YAVD3ONPAQ2,8,7
68,3,object_04,object_01,795.32000003383,6,2,554.21999999089,0.5555555555555556,2,object_07,1,763,0,2,5,library_1,2,memory-2step-stake-s,556,1568718,0.0-19.0-0.0-0.68,A1NKBIJQGT0712,3A3KKYU7Q6XNN7OKJ3M7MRU2CR5MWB,3M1CVSFP64LKNSH30T2YAVD3ONPAQ2,5,6
69,2,object_02,object_08,706.36000001105,4,2,584.73999996204,0.4444444444444444,2,object_07,5,783,0,4,4,forest_7,2,memory-2step-stake-s,557,1576945,0.0-19.0-0.0-0.69,A1NKBIJQGT0712,3A3KKYU7Q6XNN7OKJ3M7MRU2CR5MWB,3M1CVSFP64LKNSH30T2YAVD3ONPAQ2,3,4
70,2,object_08,object_02,1166.269999987,4,1,637.27000000654,0.2222222222222222,2,object_07,5,793,0,4,2,forest_7,2,memory-2step-stake-s,558,1585018,0.0-19.0-0.0-0.70,A1NKBIJQGT0712,3A3KKYU7Q6XNN7OKJ3M7MRU2CR5MWB,3M1CVSFP64LKNSH30T2YAVD3ONPAQ2,4,3
71,2,object_02,object_08,673.45999996178,4,2,558.82000003476,0.2222222222222222,2,object_07,1,795,0,5,2,forest_7,2,memory-2step-stake-s,559,1593032,0.0-19.0-0.0-0.71,A1NKBIJQGT0712,3A3KKYU7Q6XNN7OKJ3M7MRU2CR5MWB,3M1CVSFP64LKNSH30T2YAVD3ONPAQ2,3,4
72,3,object_04,object_01,701.53999998001,6,2,549.99500000849,0.1111111111111111,2,object_07,5,800,0,3,1,library_2,2,memory-2step-stake-s,560,1600909,0.0-19.0-0.0-0.72,A1NKBIJQGT0712,3A3KKYU7Q6XNN7OKJ3M7MRU2CR5MWB,3M1CVSFP64LKNSH30T2YAVD3ONPAQ2,5,6
73,1,object_05,object_03,1007.9400000395,2,1,590.66000004532,0.3333333333333333,2,object_07,5,815,0,3,3,desert_8,2,memory-2step-stake-s,561,1609040,0.0-19.0-0.0-0.73,A1NKBIJQGT0712,3A3KKYU7Q6XNN7OKJ3M7MRU2CR5MWB,3M1CVSFP64LKNSH30T2YAVD3ONPAQ2,2,1
74,1,object_03,object_05,763.71000002837,2,2,330.06999996724,0.2222222222222222,2,object_07,5,825,0,3,2,desert_3,2,memory-2step-stake-s,562,1616801,0.0-19.0-0.0-0.74,A1NKBIJQGT0712,3A3KKYU7Q6XNN7OKJ3M7MRU2CR5MWB,3M1CVSFP64LKNSH30T2YAVD3ONPAQ2,1,2
75,4,object_09,object_06,825.03499998711,8,1,303.65999997593,0.2222222222222222,2,object_07,1,827,0,2,2,restaurant_2,2,memory-2step-stake-s,563,1624545,0.0-19.0-0.0-0.75,A1NKBIJQGT0712,3A3KKYU7Q6XNN7OKJ3M7MRU2CR5MWB,3M1CVSFP64LKNSH30T2YAVD3ONPAQ2,8,7
76,2,object_02,object_08,735.69499998121,4,2,521.59000001848,0.6666666666666666,2,object_07,1,833,0,1,6,forest_6,2,memory-2step-stake-s,564,1632910,0.0-19.0-0.0-0.76,A1NKBIJQGT0712,3A3KKYU7Q6XNN7OKJ3M7MRU2CR5MWB,3M1CVSFP64LKNSH30T2YAVD3ONPAQ2,3,4
77,3,object_01,object_04,1189.1100000357,5,2,309.29499998456,0.1111111111111111,1,object_10,1,834,0,1,4,library_5,2,memory-2step-stake-s,565,1640553,0.0-19.0-0.0-0.77,A1NKBIJQGT0712,3A3KKYU7Q6XNN7OKJ3M7MRU2CR5MWB,3M1CVSFP64LKNSH30T2YAVD3ONPAQ2,6,5
78,3,object_01,object_04,790.9750000108,6,1,285.32500000438,0.4444444444444444,2,object_07,1,838,0,3,4,library_3,2,memory-2step-stake-s,566,1648478,0.0-19.0-0.0-0.78,A1NKBIJQGT0712,3A3KKYU7Q6XNN7OKJ3M7MRU2CR5MWB,3M1CVSFP64LKNSH30T2YAVD3ONPAQ2,6,5
79,3,object_04,object_01,614.79000002146,6,2,15.52499999525,0.4444444444444444,2,object_07,5,858,0,1,4,library_2,2,memory-2step-stake-s,567,1656141,0.0-19.0-0.0-0.79,A1NKBIJQGT0712,3A3KKYU7Q6XNN7OKJ3M7MRU2CR5MWB,3M1CVSFP64LKNSH30T2YAVD3ONPAQ2,5,6
80,2,object_08,object_02,793.34500001278,4,1,396.38999995077,0.2222222222222222,2,object_07,5,868,0,0,2,forest_7,2,memory-2step-stake-s,568,1663970,0.0-19.0-0.0-0.80,A1NKBIJQGT0712,3A3KKYU7Q6XNN7OKJ3M7MRU2CR5MWB,3M1CVSFP64LKNSH30T2YAVD3ONPAQ2,4,3
81,3,object_01,object_04,648.27000000514,6,1,503.97999997949,0.1111111111111111,2,object_07,5,873,0,1,1,library_5,2,memory-2step-stake-s,569,1671812,0.0-19.0-0.0-0.81,A1NKBIJQGT0712,3A3KKYU7Q6XNN7OKJ3M7MRU2CR5MWB,3M1CVSFP64LKNSH30T2YAVD3ONPAQ2,6,5
82,4,object_06,object_09,942.37499998417,8,2,267.63499999652,0.0,2,object_07,5,873,0,2,0,restaurant_2,2,memory-2step-stake-s,570,1679315,0.0-19.0-0.0-0.82,A1NKBIJQGT0712,3A3KKYU7Q6XNN7OKJ3M7MRU2CR5MWB,3M1CVSFP64LKNSH30T2YAVD3ONPAQ2,7,8
83,1,object_05,object_03,1022.6149999653,1,2,588.60000001732,0.1111111111111111,1,object_10,5,878,0,1,2,desert_3,2,memory-2step-stake-s,571,1687239,0.0-19.0-0.0-0.83,A1NKBIJQGT0712,3A3KKYU7Q6XNN7OKJ3M7MRU2CR5MWB,3M1CVSFP64LKNSH30T2YAVD3ONPAQ2,2,1
84,2,object_02,object_08,785.34499998204,3,1,535.96499998821,0.2222222222222222,1,object_10,5,888,0,2,3,forest_5,2,memory-2step-stake-s,572,1695212,0.0-19.0-0.0-0.84,A1NKBIJQGT0712,3A3KKYU7Q6XNN7OKJ3M7MRU2CR5MWB,3M1CVSFP64LKNSH30T2YAVD3ONPAQ2,3,4
85,4,object_09,object_06,971.83500003302,8,1,192.92500003939,0.2222222222222222,2,object_07,5,898,0,3,2,restaurant_4,2,memory-2step-stake-s,573,1702843,0.0-19.0-0.0-0.85,A1NKBIJQGT0712,3A3KKYU7Q6XNN7OKJ3M7MRU2CR5MWB,3M1CVSFP64LKNSH30T2YAVD3ONPAQ2,8,7
86,3,object_04,object_01,765.35499998135,6,2,260.80499996897,0.0,2,object_07,5,898,0,3,0,library_1,2,memory-2step-stake-s,574,1710329,0.0-19.0-0.0-0.86,A1NKBIJQGT0712,3A3KKYU7Q6XNN7OKJ3M7MRU2CR5MWB,3M1CVSFP64LKNSH30T2YAVD3ONPAQ2,5,6
87,2,object_08,object_02,1132.9399999813,3,2,399.4899999816,0.1111111111111111,1,object_10,5,903,0,1,3,forest_2,2,memory-2step-stake-s,575,1718053,0.0-19.0-0.0-0.87,A1NKBIJQGT0712,3A3KKYU7Q6XNN7OKJ3M7MRU2CR5MWB,3M1CVSFP64LKNSH30T2YAVD3ONPAQ2,4,3
88,2,object_02,object_08,594.44999997504,3,1,313.25000000652,0.2222222222222222,1,object_10,1,905,0,2,4,forest_2,2,memory-2step-stake-s,576,1725796,0.0-19.0-0.0-0.88,A1NKBIJQGT0712,3A3KKYU7Q6XNN7OKJ3M7MRU2CR5MWB,3M1CVSFP64LKNSH30T2YAVD3ONPAQ2,3,4
89,4,object_09,object_06,1082.9999999842,8,1,313.56500001857,0.3333333333333333,2,object_07,5,920,0,3,3,restaurant_4,2,memory-2step-stake-s,577,1733640,0.0-19.0-0.0-0.89,A1NKBIJQGT0712,3A3KKYU7Q6XNN7OKJ3M7MRU2CR5MWB,3M1CVSFP64LKNSH30T2YAVD3ONPAQ2,8,7
90,2,object_08,object_02,926.68999999296,4,1,741.93499999819,0.3333333333333333,2,object_07,5,935,0,4,3,forest_7,2,memory-2step-stake-s,578,1741913,0.0-19.0-0.0-0.90,A1NKBIJQGT0712,3A3KKYU7Q6XNN7OKJ3M7MRU2CR5MWB,3M1CVSFP64LKNSH30T2YAVD3ONPAQ2,4,3
91,1,object_05,object_03,791.24500002945,2,1,478.519999946,0.3333333333333333,2,object_07,5,950,0,4,3,desert_4,2,memory-2step-stake-s,579,1749933,0.0-19.0-0.0-0.91,A1NKBIJQGT0712,3A3KKYU7Q6XNN7OKJ3M7MRU2CR5MWB,3M1CVSFP64LKNSH30T2YAVD3ONPAQ2,2,1
92,3,object_01,object_04,908.01000001375,6,1,690.30000001658,0.1111111111111111,2,object_07,1,951,0,5,1,library_5,2,memory-2step-stake-s,580,1757953,0.0-19.0-0.0-0.92,A1NKBIJQGT0712,3A3KKYU7Q6XNN7OKJ3M7MRU2CR5MWB,3M1CVSFP64LKNSH30T2YAVD3ONPAQ2,6,5
93,1,object_05,object_03,962.30000001378,2,1,544.5400000317,0.2222222222222222,2,object_07,5,961,0,9,2,desert_4,2,memory-2step-stake-s,581,1765937,0.0-19.0-0.0-0.93,A1NKBIJQGT0712,3A3KKYU7Q6XNN7OKJ3M7MRU2CR5MWB,3M1CVSFP64LKNSH30T2YAVD3ONPAQ2,2,1
94,2,object_08,object_02,675.69000000367,4,1,322.21499999287,0.2222222222222222,2,object_07,5,971,0,8,2,forest_2,2,memory-2step-stake-s,582,1773707,0.0-19.0-0.0-0.94,A1NKBIJQGT0712,3A3KKYU7Q6XNN7OKJ3M7MRU2CR5MWB,3M1CVSFP64LKNSH30T2YAVD3ONPAQ2,4,3
95,3,object_04,object_01,942.03000003472,6,2,957.94499997282,0.3333333333333333,2,object_07,1,974,0,6,3,library_1,2,memory-2step-stake-s,583,1782197,0.0-19.0-0.0-0.95,A1NKBIJQGT0712,3A3KKYU7Q6XNN7OKJ3M7MRU2CR5MWB,3M1CVSFP64LKNSH30T2YAVD3ONPAQ2,5,6
96,3,object_01,object_04,728.10499998741,6,1,-1.0,0.0,2,object_07,1,974,0,4,0,library_2,2,memory-2step-stake-s,584,1790729,0.0-19.0-0.0-0.96,A1NKBIJQGT0712,3A3KKYU7Q6XNN7OKJ3M7MRU2CR5MWB,3M1CVSFP64LKNSH30T2YAVD3ONPAQ2,6,5
97,1,object_03,object_05,746.06500001391,2,2,320.86499995785,0.2222222222222222,2,object_07,5,984,0,2,2,desert_8,2,memory-2step-stake-s,585,1798495,0.0-19.0-0.0-0.97,A1NKBIJQGT0712,3A3KKYU7Q6XNN7OKJ3M7MRU2CR5MWB,3M1CVSFP64LKNSH30T2YAVD3ONPAQ2,1,2
98,4,object_09,object_06,830.71499998914,8,1,276.49999997811,0.2222222222222222,2,object_07,1,986,0,2,2,restaurant_1,2,memory-2step-stake-s,586,1806205,0.0-19.0-0.0-0.98,A1NKBIJQGT0712,3A3KKYU7Q6XNN7OKJ3M7MRU2CR5MWB,3M1CVSFP64LKNSH30T2YAVD3ONPAQ2,8,7
99,1,object_05,object_03,1109.1149999993,1,2,250.1850000117,0.0,1,object_10,5,986,0,0,5,desert_8,2,memory-2step-stake-s,587,1813701,0.0-19.0-0.0-0.99,A1NKBIJQGT0712,3A3KKYU7Q6XNN7OKJ3M7MRU2CR5MWB,3M1CVSFP64LKNSH30T2YAVD3ONPAQ2,2,1
100,2,object_08,object_02,629.11500001792,4,1,339.51999997953,0.2222222222222222,2,object_07,1,988,0,2,2,forest_2,2,memory-2step-stake-s,588,1821470,0.0-19.0-0.0-0.100,A1NKBIJQGT0712,3A3KKYU7Q6XNN7OKJ3M7MRU2CR5MWB,3M1CVSFP64LKNSH30T2YAVD3ONPAQ2,4,3
101,4,object_06,object_09,1194.8749999865,8,2,387.30000000214,0.3333333333333333,2,object_07,1,991,0,1,3,restaurant_1,2,memory-2step-stake-s,589,1829388,0.0-19.0-0.0-0.101,A1NKBIJQGT0712,3A3KKYU7Q6XNN7OKJ3M7MRU2CR5MWB,3M1CVSFP64LKNSH30T2YAVD3ONPAQ2,7,8
102,1,object_05,object_03,552.82000004081,2,1,477.63499995926,0.1111111111111111,2,object_07,5,996,0,1,1,desert_8,2,memory-2step-stake-s,590,1837218,0.0-19.0-0.0-0.102,A1NKBIJQGT0712,3A3KKYU7Q6XNN7OKJ3M7MRU2CR5MWB,3M1CVSFP64LKNSH30T2YAVD3ONPAQ2,2,1
103,3,object_01,object_04,612.66000004252,6,1,704.34499997646,0.0,2,object_07,1,996,0,1,0,library_3,2,memory-2step-stake-s,591,1845149,0.0-19.0-0.0-0.103,A1NKBIJQGT0712,3A3KKYU7Q6XNN7OKJ3M7MRU2CR5MWB,3M1CVSFP64LKNSH30T2YAVD3ONPAQ2,6,5
104,3,object_01,object_04,595.37499997532,6,1,929.95499999961,0.0,2,object_07,1,996,0,2,0,library_5,2,memory-2step-stake-s,592,1853303,0.0-19.0-0.0-0.104,A1NKBIJQGT0712,3A3KKYU7Q6XNN7OKJ3M7MRU2CR5MWB,3M1CVSFP64LKNSH30T2YAVD3ONPAQ2,6,5
105,1,object_05,object_03,676.95499997353,1,2,293.53499994613,0.4444444444444444,1,object_10,5,1016,0,4,2,desert_3,2,memory-2step-stake-s,593,1861231,0.0-19.0-0.0-0.105,A1NKBIJQGT0712,3A3KKYU7Q6XNN7OKJ3M7MRU2CR5MWB,3M1CVSFP64LKNSH30T2YAVD3ONPAQ2,2,1
106,3,object_01,object_04,928.72999998508,5,2,462.47499994934,0.3333333333333333,1,object_10,1,1019,0,3,3,library_5,2,memory-2step-stake-s,594,1869225,0.0-19.0-0.0-0.106,A1NKBIJQGT0712,3A3KKYU7Q6XNN7OKJ3M7MRU2CR5MWB,3M1CVSFP64LKNSH30T2YAVD3ONPAQ2,6,5
107,4,object_06,object_09,787.62000001734,7,1,88.309999962803,0.4444444444444444,1,object_10,1,1023,0,4,2,restaurant_6,2,memory-2step-stake-s,595,1876956,0.0-19.0-0.0-0.107,A1NKBIJQGT0712,3A3KKYU7Q6XNN7OKJ3M7MRU2CR5MWB,3M1CVSFP64LKNSH30T2YAVD3ONPAQ2,7,8
108,1,object_05,object_03,971.52500000084,1,2,659.98500003479,0.3333333333333333,1,object_10,5,1038,0,3,3,desert_2,2,memory-2step-stake-s,596,1885147,0.0-19.0-0.0-0.108,A1NKBIJQGT0712,3A3KKYU7Q6XNN7OKJ3M7MRU2CR5MWB,3M1CVSFP64LKNSH30T2YAVD3ONPAQ2,2,1
109,1,object_05,object_03,762.03499996336,1,2,377.46500002686,0.4444444444444444,1,object_10,5,1058,0,4,2,desert_3,2,memory-2step-stake-s,597,1893158,0.0-19.0-0.0-0.109,A1NKBIJQGT0712,3A3KKYU7Q6XNN7OKJ3M7MRU2CR5MWB,3M1CVSFP64LKNSH30T2YAVD3ONPAQ2,2,1
110,1,object_05,object_03,774.88000004087,1,2,326.07999996981,0.2222222222222222,1,object_10,5,1068,0,2,2,desert_2,2,memory-2step-stake-s,598,1900912,0.0-19.0-0.0-0.110,A1NKBIJQGT0712,3A3KKYU7Q6XNN7OKJ3M7MRU2CR5MWB,3M1CVSFP64LKNSH30T2YAVD3ONPAQ2,2,1
111,2,object_02,object_08,1098.6099999864,3,1,247.62999999803,0.0,1,object_10,5,1068,0,0,1,forest_7,2,memory-2step-stake-s,599,1908396,0.0-19.0-0.0-0.111,A1NKBIJQGT0712,3A3KKYU7Q6XNN7OKJ3M7MRU2CR5MWB,3M1CVSFP64LKNSH30T2YAVD3ONPAQ2,3,4
112,3,object_01,object_04,750.57499995455,6,1,66.479999979492,0.2222222222222222,2,object_07,1,1070,0,2,2,library_1,2,memory-2step-stake-s,600,1915900,0.0-19.0-0.0-0.112,A1NKBIJQGT0712,3A3KKYU7Q6XNN7OKJ3M7MRU2CR5MWB,3M1CVSFP64LKNSH30T2YAVD3ONPAQ2,6,5
113,2,object_02,object_08,1107.4449999724,4,2,378.01000004401,0.0,2,object_07,5,1070,0,1,0,forest_5,2,memory-2step-stake-s,601,1923508,0.0-19.0-0.0-0.113,A1NKBIJQGT0712,3A3KKYU7Q6XNN7OKJ3M7MRU2CR5MWB,3M1CVSFP64LKNSH30T2YAVD3ONPAQ2,3,4
114,4,object_06,object_09,932.70000000484,8,2,389.00000002468,0.3333333333333333,2,object_07,1,1073,0,3,3,restaurant_2,2,memory-2step-stake-s,602,1931443,0.0-19.0-0.0-0.114,A1NKBIJQGT0712,3A3KKYU7Q6XNN7OKJ3M7MRU2CR5MWB,3M1CVSFP64LKNSH30T2YAVD3ONPAQ2,7,8
115,3,object_01,object_04,671.54499999015,6,1,422.10999998497,0.0,2,object_07,1,1073,0,1,0,library_3,2,memory-2step-stake-s,603,1939093,0.0-19.0-0.0-0.115,A1NKBIJQGT0712,3A3KKYU7Q6XNN7OKJ3M7MRU2CR5MWB,3M1CVSFP64LKNSH30T2YAVD3ONPAQ2,6,5
116,1,object_03,object_05,941.97499996517,2,2,313.7899999856,0.3333333333333333,2,object_07,5,1088,0,4,3,desert_2,2,memory-2step-stake-s,604,1946957,0.0-19.0-0.0-0.116,A1NKBIJQGT0712,3A3KKYU7Q6XNN7OKJ3M7MRU2CR5MWB,3M1CVSFP64LKNSH30T2YAVD3ONPAQ2,1,2
117,1,object_03,object_05,991.76000000443,2,2,627.1050000214,0.6666666666666666,2,object_07,1,1094,0,3,6,desert_4,2,memory-2step-stake-s,605,1955421,0.0-19.0-0.0-0.117,A1NKBIJQGT0712,3A3KKYU7Q6XNN7OKJ3M7MRU2CR5MWB,3M1CVSFP64LKNSH30T2YAVD3ONPAQ2,1,2
118,4,object_09,object_06,761.89000002341,8,1,967.15500002028,0.6666666666666666,2,object_07,1,1100,0,2,6,restaurant_4,2,memory-2step-stake-s,606,1964231,0.0-19.0-0.0-0.118,A1NKBIJQGT0712,3A3KKYU7Q6XNN7OKJ3M7MRU2CR5MWB,3M1CVSFP64LKNSH30T2YAVD3ONPAQ2,8,7
119,1,object_03,object_05,1272.6200000034,2,2,933.11500002164,0.7777777777777778,2,object_07,5,1135,0,0,7,desert_8,2,memory-2step-stake-s,607,1973114,0.0-19.0-0.0-0.119,A1NKBIJQGT0712,3A3KKYU7Q6XNN7OKJ3M7MRU2CR5MWB,3M1CVSFP64LKNSH30T2YAVD3ONPAQ2,1,2
120,3,object_01,object_04,683.72999998974,6,1,450.45000000391,0.8888888888888888,2,object_07,1,1143,0,3,8,library_1,2,memory-2step-stake-s,608,1981609,0.0-19.0-0.0-0.120,A1NKBIJQGT0712,3A3KKYU7Q6XNN7OKJ3M7MRU2CR5MWB,3M1CVSFP64LKNSH30T2YAVD3ONPAQ2,6,5
121,1,object_03,object_05,776.6249999986,2,2,597.39500004798,1.0,2,object_07,5,1188,0,1,9,desert_8,2,memory-2step-stake-s,609,1990358,0.0-19.0-0.0-0.121,A1NKBIJQGT0712,3A3KKYU7Q6XNN7OKJ3M7MRU2CR5MWB,3M1CVSFP64LKNSH30T2YAVD3ONPAQ2,1,2
122,1,object_05,object_03,841.35999996215,2,1,128.98999999743,0.8888888888888888,2,object_07,5,1228,0,2,8,desert_4,2,memory-2step-stake-s,610,1998522,0.0-19.0-0.0-0.122,A1NKBIJQGT0712,3A3KKYU7Q6XNN7OKJ3M7MRU2CR5MWB,3M1CVSFP64LKNSH30T2YAVD3ONPAQ2,2,1
123,2,object_08,object_02,770.68999997573,4,1,788.43000001507,0.4444444444444444,2,object_07,1,1232,0,2,4,forest_5,2,memory-2step-stake-s,611,2006959,0.0-19.0-0.0-0.123,A1NKBIJQGT0712,3A3KKYU7Q6XNN7OKJ3M7MRU2CR5MWB,3M1CVSFP64LKNSH30T2YAVD3ONPAQ2,4,3
124,3,object_04,object_01,717.28000004077,6,2,463.80500000669,0.1111111111111111,2,object_07,5,1237,0,3,1,library_2,2,memory-2step-stake-s,612,2014756,0.0-19.0-0.0-0.124,A1NKBIJQGT0712,3A3KKYU7Q6XNN7OKJ3M7MRU2CR5MWB,3M1CVSFP64LKNSH30T2YAVD3ONPAQ2,5,6
125,4,object_06,object_09,856.26999998931,8,2,814.92500001332,0.1111111111111111,2,object_07,5,1242,0,1,1,restaurant_1,2,memory-2step-stake-s,613,2022901,0.0-19.0-0.0-0.125,A1NKBIJQGT0712,3A3KKYU7Q6XNN7OKJ3M7MRU2CR5MWB,3M1CVSFP64LKNSH30T2YAVD3ONPAQ2,7,8
126,2,object_02,object_08,744.33000001591,3,1,319.30500001181,0.1111111111111111,1,object_10,5,1247,0,1,4,forest_5,2,memory-2step-stake-s,614,2030550,0.0-19.0-0.0-0.126,A1NKBIJQGT0712,3A3KKYU7Q6XNN7OKJ3M7MRU2CR5MWB,3M1CVSFP64LKNSH30T2YAVD3ONPAQ2,3,4
127,2,object_08,object_02,1031.1600000132,3,2,356.32500000065,0.5555555555555556,1,object_10,5,1272,0,5,3,forest_6,2,memory-2step-stake-s,615,2038657,0.0-19.0-0.0-0.127,A1NKBIJQGT0712,3A3KKYU7Q6XNN7OKJ3M7MRU2CR5MWB,3M1CVSFP64LKNSH30T2YAVD3ONPAQ2,4,3
128,1,object_05,object_03,871.76999996882,2,1,252.03500001226,0.3333333333333333,2,object_07,1,1275,0,5,3,desert_4,2,memory-2step-stake-s,617,2297731,0.0-19.0-0.1-0.128,A1NKBIJQGT0712,3A3KKYU7Q6XNN7OKJ3M7MRU2CR5MWB,3M1CVSFP64LKNSH30T2YAVD3ONPAQ2,2,1
129,4,object_06,object_09,632.16500001727,8,2,414.73000001861,0.2222222222222222,2,object_07,1,1277,0,5,2,restaurant_4,2,memory-2step-stake-s,618,2305577,0.0-19.0-0.1-0.129,A1NKBIJQGT0712,3A3KKYU7Q6XNN7OKJ3M7MRU2CR5MWB,3M1CVSFP64LKNSH30T2YAVD3ONPAQ2,7,8
130,1,object_03,object_05,730.35999998683,2,2,579.10500001162,0.5555555555555556,2,object_07,5,1302,0,6,5,desert_2,2,memory-2step-stake-s,619,2313899,0.0-19.0-0.1-0.130,A1NKBIJQGT0712,3A3KKYU7Q6XNN7OKJ3M7MRU2CR5MWB,3M1CVSFP64LKNSH30T2YAVD3ONPAQ2,1,2
131,1,object_03,object_05,730.40500003844,2,2,762.58999999845,0.4444444444444444,2,object_07,5,1322,0,7,4,desert_2,2,memory-2step-stake-s,620,2322296,0.0-19.0-0.1-0.131,A1NKBIJQGT0712,3A3KKYU7Q6XNN7OKJ3M7MRU2CR5MWB,3M1CVSFP64LKNSH30T2YAVD3ONPAQ2,1,2
132,1,object_05,object_03,1107.3099999921,2,1,370.25999999605,0.3333333333333333,2,object_07,5,1337,0,6,3,desert_2,2,memory-2step-stake-s,621,2330198,0.0-19.0-0.1-0.132,A1NKBIJQGT0712,3A3KKYU7Q6XNN7OKJ3M7MRU2CR5MWB,3M1CVSFP64LKNSH30T2YAVD3ONPAQ2,2,1
133,4,object_09,object_06,759.32000001194,8,1,899.58999998635,0.2222222222222222,2,object_07,1,1339,0,6,2,restaurant_2,2,memory-2step-stake-s,622,2338528,0.0-19.0-0.1-0.133,A1NKBIJQGT0712,3A3KKYU7Q6XNN7OKJ3M7MRU2CR5MWB,3M1CVSFP64LKNSH30T2YAVD3ONPAQ2,8,7
134,4,object_06,object_09,691.5699999663,8,2,1200.6699999911,0.1111111111111111,2,object_07,1,1340,0,5,1,restaurant_2,2,memory-2step-stake-s,623,2347058,0.0-19.0-0.1-0.134,A1NKBIJQGT0712,3A3KKYU7Q6XNN7OKJ3M7MRU2CR5MWB,3M1CVSFP64LKNSH30T2YAVD3ONPAQ2,7,8
135,4,object_06,object_09,658.83999998914,8,2,501.82000000495,0.2222222222222222,2,object_07,1,1342,0,7,2,restaurant_1,2,memory-2step-stake-s,624,2354992,0.0-19.0-0.1-0.135,A1NKBIJQGT0712,3A3KKYU7Q6XNN7OKJ3M7MRU2CR5MWB,3M1CVSFP64LKNSH30T2YAVD3ONPAQ2,7,8
136,2,object_02,object_08,816.88500003656,4,2,720.29500000644,0.0,2,object_07,5,1342,0,6,0,forest_7,2,memory-2step-stake-s,625,2362947,0.0-19.0-0.1-0.136,A1NKBIJQGT0712,3A3KKYU7Q6XNN7OKJ3M7MRU2CR5MWB,3M1CVSFP64LKNSH30T2YAVD3ONPAQ2,3,4
137,3,object_01,object_04,1177.9000000097,6,1,312.43499997072,0.0,2,object_07,1,1342,0,9,0,library_3,2,memory-2step-stake-s,626,2370485,0.0-19.0-0.1-0.137,A1NKBIJQGT0712,3A3KKYU7Q6XNN7OKJ3M7MRU2CR5MWB,3M1CVSFP64LKNSH30T2YAVD3ONPAQ2,6,5
138,4,object_06,object_09,776.5800000052,7,1,50.754999974743,0.8888888888888888,1,object_10,1,1350,0,8,1,restaurant_4,2,memory-2step-stake-s,627,2378579,0.0-19.0-0.1-0.138,A1NKBIJQGT0712,3A3KKYU7Q6XNN7OKJ3M7MRU2CR5MWB,3M1CVSFP64LKNSH30T2YAVD3ONPAQ2,7,8
139,2,object_02,object_08,680.92499999329,3,1,308.22999996599,0.5555555555555556,1,object_10,5,1375,0,5,1,forest_5,2,memory-2step-stake-s,628,2386623,0.0-19.0-0.1-0.139,A1NKBIJQGT0712,3A3KKYU7Q6XNN7OKJ3M7MRU2CR5MWB,3M1CVSFP64LKNSH30T2YAVD3ONPAQ2,3,4
140,2,object_08,object_02,899.2750000325,3,2,437.64000001829,0.3333333333333333,1,object_10,5,1390,0,3,2,forest_2,2,memory-2step-stake-s,629,2394595,0.0-19.0-0.1-0.140,A1NKBIJQGT0712,3A3KKYU7Q6XNN7OKJ3M7MRU2CR5MWB,3M1CVSFP64LKNSH30T2YAVD3ONPAQ2,4,3
141,4,object_06,object_09,697.29999999981,7,1,700.24500001455,0.5555555555555556,1,object_10,1,1395,0,5,0,restaurant_1,2,memory-2step-stake-s,630,2403030,0.0-19.0-0.1-0.141,A1NKBIJQGT0712,3A3KKYU7Q6XNN7OKJ3M7MRU2CR5MWB,3M1CVSFP64LKNSH30T2YAVD3ONPAQ2,7,8
142,4,object_09,object_06,1026.045000006,7,2,547.98500001198,0.2222222222222222,1,object_10,5,1405,0,2,1,restaurant_2,2,memory-2step-stake-s,631,2411021,0.0-19.0-0.1-0.142,A1NKBIJQGT0712,3A3KKYU7Q6XNN7OKJ3M7MRU2CR5MWB,3M1CVSFP64LKNSH30T2YAVD3ONPAQ2,8,7
143,2,object_08,object_02,859.74500002339,3,2,515.55499999085,0.6666666666666666,1,object_10,5,1435,0,6,0,forest_5,2,memory-2step-stake-s,632,2419384,0.0-19.0-0.1-0.143,A1NKBIJQGT0712,3A3KKYU7Q6XNN7OKJ3M7MRU2CR5MWB,3M1CVSFP64LKNSH30T2YAVD3ONPAQ2,4,3
144,4,object_09,object_06,902.854999993,7,2,923.08999999659,0.5555555555555556,1,object_10,1,1440,0,5,1,restaurant_4,2,memory-2step-stake-s,633,2428054,0.0-19.0-0.1-0.144,A1NKBIJQGT0712,3A3KKYU7Q6XNN7OKJ3M7MRU2CR5MWB,3M1CVSFP64LKNSH30T2YAVD3ONPAQ2,8,7
145,1,object_03,object_05,839.80999997584,1,1,534.15000002133,0.6666666666666666,1,object_10,5,1470,0,6,1,desert_2,2,memory-2step-stake-s,634,2436428,0.0-19.0-0.1-0.145,A1NKBIJQGT0712,3A3KKYU7Q6XNN7OKJ3M7MRU2CR5MWB,3M1CVSFP64LKNSH30T2YAVD3ONPAQ2,1,2
146,3,object_01,object_04,723.49499998381,5,2,377.84500000998,0.5555555555555556,1,object_10,1,1475,0,5,1,library_2,2,memory-2step-stake-s,635,2444548,0.0-19.0-0.1-0.146,A1NKBIJQGT0712,3A3KKYU7Q6XNN7OKJ3M7MRU2CR5MWB,3M1CVSFP64LKNSH30T2YAVD3ONPAQ2,6,5
147,2,object_02,object_08,825.46500000171,3,1,616.37000000337,0.7777777777777778,1,object_10,1,1482,0,7,1,forest_7,2,memory-2step-stake-s,636,2453107,0.0-19.0-0.1-0.147,A1NKBIJQGT0712,3A3KKYU7Q6XNN7OKJ3M7MRU2CR5MWB,3M1CVSFP64LKNSH30T2YAVD3ONPAQ2,3,4
148,2,object_08,object_02,719.6399999666,3,2,354.60500000045,0.6666666666666666,1,object_10,5,1512,0,6,0,forest_6,2,memory-2step-stake-s,637,2461304,0.0-19.0-0.1-0.148,A1NKBIJQGT0712,3A3KKYU7Q6XNN7OKJ3M7MRU2CR5MWB,3M1CVSFP64LKNSH30T2YAVD3ONPAQ2,4,3
149,3,object_01,object_04,805.5849999655,5,2,386.66499999817,0.6666666666666666,1,object_10,1,1518,0,6,1,library_5,2,memory-2step-stake-s,638,2469528,0.0-19.0-0.1-0.149,A1NKBIJQGT0712,3A3KKYU7Q6XNN7OKJ3M7MRU2CR5MWB,3M1CVSFP64LKNSH30T2YAVD3ONPAQ2,6,5
150,4,object_06,object_09,975.29000003124,7,1,518.71999999275,0.6666666666666666,1,object_10,5,1548,0,6,0,restaurant_1,2,memory-2step-stake-s,639,2477891,0.0-19.0-0.1-0.150,A1NKBIJQGT0712,3A3KKYU7Q6XNN7OKJ3M7MRU2CR5MWB,3M1CVSFP64LKNSH30T2YAVD3ONPAQ2,7,8
151,1,object_03,object_05,938.1000000285,1,1,26.455000042915,1.0,1,object_10,5,1593,0,9,0,desert_3,2,memory-2step-stake-s,640,2486058,0.0-19.0-0.1-0.151,A1NKBIJQGT0712,3A3KKYU7Q6XNN7OKJ3M7MRU2CR5MWB,3M1CVSFP64LKNSH30T2YAVD3ONPAQ2,1,2
152,4,object_06,object_09,841.48000000278,7,1,497.29500000831,0.7777777777777778,1,object_10,1,1600,0,7,0,restaurant_2,2,memory-2step-stake-s,641,2494496,0.0-19.0-0.1-0.152,A1NKBIJQGT0712,3A3KKYU7Q6XNN7OKJ3M7MRU2CR5MWB,3M1CVSFP64LKNSH30T2YAVD3ONPAQ2,7,8
153,4,object_06,object_09,755.88999997126,7,1,337.69999997457,1.0,1,object_10,5,1645,0,9,3,restaurant_1,2,memory-2step-stake-s,642,2502978,0.0-19.0-0.1-0.153,A1NKBIJQGT0712,3A3KKYU7Q6XNN7OKJ3M7MRU2CR5MWB,3M1CVSFP64LKNSH30T2YAVD3ONPAQ2,7,8
154,1,object_03,object_05,628.49999999162,1,1,556.34999996983,0.7777777777777778,1,object_10,1,1652,0,7,5,desert_2,2,memory-2step-stake-s,643,2511492,0.0-19.0-0.1-0.154,A1NKBIJQGT0712,3A3KKYU7Q6XNN7OKJ3M7MRU2CR5MWB,3M1CVSFP64LKNSH30T2YAVD3ONPAQ2,1,2
155,2,object_08,object_02,759.04500001343,3,2,524.61500000209,0.8888888888888888,1,object_10,1,1660,0,8,5,forest_6,2,memory-2step-stake-s,644,2520063,0.0-19.0-0.1-0.155,A1NKBIJQGT0712,3A3KKYU7Q6XNN7OKJ3M7MRU2CR5MWB,3M1CVSFP64LKNSH30T2YAVD3ONPAQ2,4,3
156,2,object_02,object_08,748.75999998767,3,1,609.14999997476,1.0,1,object_10,5,1705,0,9,5,forest_6,2,memory-2step-stake-s,645,2528828,0.0-19.0-0.1-0.156,A1NKBIJQGT0712,3A3KKYU7Q6XNN7OKJ3M7MRU2CR5MWB,3M1CVSFP64LKNSH30T2YAVD3ONPAQ2,3,4
157,2,object_02,object_08,806.29500001669,3,1,805.56000000797,1.0,1,object_10,5,1750,0,9,6,forest_2,2,memory-2step-stake-s,646,2537774,0.0-19.0-0.1-0.157,A1NKBIJQGT0712,3A3KKYU7Q6XNN7OKJ3M7MRU2CR5MWB,3M1CVSFP64LKNSH30T2YAVD3ONPAQ2,3,4
158,3,object_04,object_01,691.44000002416,5,1,537.10499999579,0.8888888888888888,1,object_10,1,1758,0,8,6,library_3,2,memory-2step-stake-s,647,2546360,0.0-19.0-0.1-0.158,A1NKBIJQGT0712,3A3KKYU7Q6XNN7OKJ3M7MRU2CR5MWB,3M1CVSFP64LKNSH30T2YAVD3ONPAQ2,5,6
159,1,object_05,object_03,828.91500002006,1,2,523.94500002265,0.5555555555555556,1,object_10,5,1783,0,5,4,desert_3,2,memory-2step-stake-s,648,2554627,0.0-19.0-0.1-0.159,A1NKBIJQGT0712,3A3KKYU7Q6XNN7OKJ3M7MRU2CR5MWB,3M1CVSFP64LKNSH30T2YAVD3ONPAQ2,2,1
160,1,object_05,object_03,831.7200000165,1,2,583.21499999147,0.2222222222222222,1,object_10,5,1793,0,2,4,desert_3,2,memory-2step-stake-s,649,2562643,0.0-19.0-0.1-0.160,A1NKBIJQGT0712,3A3KKYU7Q6XNN7OKJ3M7MRU2CR5MWB,3M1CVSFP64LKNSH30T2YAVD3ONPAQ2,2,1
161,1,object_03,object_05,1074.8050000402,1,1,636.14999997662,0.1111111111111111,1,object_10,5,1798,0,1,3,desert_2,2,memory-2step-stake-s,650,2570609,0.0-19.0-0.1-0.161,A1NKBIJQGT0712,3A3KKYU7Q6XNN7OKJ3M7MRU2CR5MWB,3M1CVSFP64LKNSH30T2YAVD3ONPAQ2,1,2
162,1,object_03,object_05,1004.4450000278,2,2,458.31499999622,0.3333333333333333,2,object_07,5,1813,0,2,3,desert_4,2,memory-2step-stake-s,651,2578602,0.0-19.0-0.1-0.162,A1NKBIJQGT0712,3A3KKYU7Q6XNN7OKJ3M7MRU2CR5MWB,3M1CVSFP64LKNSH30T2YAVD3ONPAQ2,1,2
163,3,object_04,object_01,972.65999997035,5,1,340.04500001902,0.4444444444444444,1,object_10,1,1817,0,4,3,library_1,2,memory-2step-stake-s,652,2586581,0.0-19.0-0.1-0.163,A1NKBIJQGT0712,3A3KKYU7Q6XNN7OKJ3M7MRU2CR5MWB,3M1CVSFP64LKNSH30T2YAVD3ONPAQ2,5,6
164,2,object_08,object_02,1296.7799999751,3,2,327.47499999823,0.5555555555555556,1,object_10,5,1842,0,5,3,forest_5,2,memory-2step-stake-s,653,2594644,0.0-19.0-0.1-0.164,A1NKBIJQGT0712,3A3KKYU7Q6XNN7OKJ3M7MRU2CR5MWB,3M1CVSFP64LKNSH30T2YAVD3ONPAQ2,4,3
165,3,object_01,object_04,1319.9500000337,6,1,330.04999998957,0.2222222222222222,2,object_07,1,1844,0,8,2,library_1,2,memory-2step-stake-s,654,2602413,0.0-19.0-0.1-0.165,A1NKBIJQGT0712,3A3KKYU7Q6XNN7OKJ3M7MRU2CR5MWB,3M1CVSFP64LKNSH30T2YAVD3ONPAQ2,6,5
166,4,object_09,object_06,858.35499997484,7,2,303.46999998437,0.8888888888888888,1,object_10,5,1884,0,8,4,restaurant_4,2,memory-2step-stake-s,655,2610767,0.0-19.0-0.1-0.166,A1NKBIJQGT0712,3A3KKYU7Q6XNN7OKJ3M7MRU2CR5MWB,3M1CVSFP64LKNSH30T2YAVD3ONPAQ2,8,7
167,3,object_04,object_01,934.86499995925,6,2,94.975000014529,0.6666666666666666,2,object_07,1,1890,0,8,6,library_3,2,memory-2step-stake-s,656,2618710,0.0-19.0-0.1-0.167,A1NKBIJQGT0712,3A3KKYU7Q6XNN7OKJ3M7MRU2CR5MWB,3M1CVSFP64LKNSH30T2YAVD3ONPAQ2,5,6
168,2,object_02,object_08,775.39000002434,4,2,486.57499998808,0.2222222222222222,2,object_07,1,1892,0,5,2,forest_7,2,memory-2step-stake-s,657,2626627,0.0-19.0-0.1-0.168,A1NKBIJQGT0712,3A3KKYU7Q6XNN7OKJ3M7MRU2CR5MWB,3M1CVSFP64LKNSH30T2YAVD3ONPAQ2,3,4
169,4,object_06,object_09,810.37500000093,8,2,455.15999995405,0.1111111111111111,2,object_07,1,1893,0,3,1,restaurant_6,2,memory-2step-stake-s,658,2634410,0.0-19.0-0.1-0.169,A1NKBIJQGT0712,3A3KKYU7Q6XNN7OKJ3M7MRU2CR5MWB,3M1CVSFP64LKNSH30T2YAVD3ONPAQ2,7,8
170,3,object_04,object_01,891.35499997064,5,1,505.6400000467,0.2222222222222222,1,object_10,5,1903,0,2,3,library_5,2,memory-2step-stake-s,659,2642342,0.0-19.0-0.1-0.170,A1NKBIJQGT0712,3A3KKYU7Q6XNN7OKJ3M7MRU2CR5MWB,3M1CVSFP64LKNSH30T2YAVD3ONPAQ2,5,6
171,2,object_08,object_02,822.55499996245,3,2,331.91000000807,0.2222222222222222,1,object_10,5,1913,0,2,2,forest_6,2,memory-2step-stake-s,660,2650112,0.0-19.0-0.1-0.171,A1NKBIJQGT0712,3A3KKYU7Q6XNN7OKJ3M7MRU2CR5MWB,3M1CVSFP64LKNSH30T2YAVD3ONPAQ2,4,3
172,4,object_09,object_06,1127.2400000016,7,2,270.92999999877,0.3333333333333333,1,object_10,1,1916,0,3,3,restaurant_4,2,memory-2step-stake-s,661,2657915,0.0-19.0-0.1-0.172,A1NKBIJQGT0712,3A3KKYU7Q6XNN7OKJ3M7MRU2CR5MWB,3M1CVSFP64LKNSH30T2YAVD3ONPAQ2,8,7
173,3,object_04,object_01,792.11499996018,6,2,431.57499999506,0.2222222222222222,2,object_07,1,1918,0,5,2,library_3,2,memory-2step-stake-s,662,2665784,0.0-19.0-0.1-0.173,A1NKBIJQGT0712,3A3KKYU7Q6XNN7OKJ3M7MRU2CR5MWB,3M1CVSFP64LKNSH30T2YAVD3ONPAQ2,5,6
174,1,object_05,object_03,987.37500002608,1,2,305.90499995742,0.8888888888888888,1,object_10,5,1958,0,8,5,desert_2,2,memory-2step-stake-s,663,2674150,0.0-19.0-0.1-0.174,A1NKBIJQGT0712,3A3KKYU7Q6XNN7OKJ3M7MRU2CR5MWB,3M1CVSFP64LKNSH30T2YAVD3ONPAQ2,2,1
175,1,object_05,object_03,804.97000005562,1,2,780.23999999277,0.5555555555555556,1,object_10,5,1983,0,5,9,desert_3,2,memory-2step-stake-s,664,2682661,0.0-19.0-0.1-0.175,A1NKBIJQGT0712,3A3KKYU7Q6XNN7OKJ3M7MRU2CR5MWB,3M1CVSFP64LKNSH30T2YAVD3ONPAQ2,2,1
176,3,object_01,object_04,788.18999999203,5,2,795.95999995945,0.5555555555555556,1,object_10,1,1988,0,5,7,library_3,2,memory-2step-stake-s,665,2691203,0.0-19.0-0.1-0.176,A1NKBIJQGT0712,3A3KKYU7Q6XNN7OKJ3M7MRU2CR5MWB,3M1CVSFP64LKNSH30T2YAVD3ONPAQ2,6,5
177,3,object_01,object_04,969.53499998199,5,2,313.77000000793,0.3333333333333333,1,object_10,1,1991,0,3,5,library_3,2,memory-2step-stake-s,666,2699066,0.0-19.0-0.1-0.177,A1NKBIJQGT0712,3A3KKYU7Q6XNN7OKJ3M7MRU2CR5MWB,3M1CVSFP64LKNSH30T2YAVD3ONPAQ2,6,5
178,2,object_02,object_08,1181.8000000203,4,2,576.83999999426,0.6666666666666666,2,object_07,1,1997,0,1,6,forest_2,2,memory-2step-stake-s,667,2707484,0.0-19.0-0.1-0.178,A1NKBIJQGT0712,3A3KKYU7Q6XNN7OKJ3M7MRU2CR5MWB,3M1CVSFP64LKNSH30T2YAVD3ONPAQ2,3,4
179,3,object_01,object_04,853.69499999797,5,2,282.7099999995,0.2222222222222222,1,object_10,1,1999,0,2,8,library_2,2,memory-2step-stake-s,668,2715197,0.0-19.0-0.1-0.179,A1NKBIJQGT0712,3A3KKYU7Q6XNN7OKJ3M7MRU2CR5MWB,3M1CVSFP64LKNSH30T2YAVD3ONPAQ2,6,5
180,1,object_05,object_03,1416.3500000141,2,1,592.39000000525,0.8888888888888888,2,object_07,5,2039,0,1,8,desert_4,2,memory-2step-stake-s,669,2723855,0.0-19.0-0.1-0.180,A1NKBIJQGT0712,3A3KKYU7Q6XNN7OKJ3M7MRU2CR5MWB,3M1CVSFP64LKNSH30T2YAVD3ONPAQ2,2,1
181,1,object_03,object_05,1360.074999975,2,2,351.7550000106,0.7777777777777778,2,object_07,5,2074,0,1,7,desert_2,2,memory-2step-stake-s,670,2732146,0.0-19.0-0.1-0.181,A1NKBIJQGT0712,3A3KKYU7Q6XNN7OKJ3M7MRU2CR5MWB,3M1CVSFP64LKNSH30T2YAVD3ONPAQ2,1,2
182,4,object_06,object_09,1217.7550000488,8,2,249.30999998469,0.8888888888888888,2,object_07,5,2114,0,3,8,restaurant_2,2,memory-2step-stake-s,671,2740438,0.0-19.0-0.1-0.182,A1NKBIJQGT0712,3A3KKYU7Q6XNN7OKJ3M7MRU2CR5MWB,3M1CVSFP64LKNSH30T2YAVD3ONPAQ2,7,8
183,4,object_09,object_06,305.48500001896,8,1,345.84999998333,0.8888888888888888,2,object_07,1,2122,0,0,8,restaurant_4,2,memory-2step-stake-s,672,2748833,0.0-19.0-0.1-0.183,A1NKBIJQGT0712,3A3KKYU7Q6XNN7OKJ3M7MRU2CR5MWB,3M1CVSFP64LKNSH30T2YAVD3ONPAQ2,8,7
184,1,object_03,object_05,601.71499999706,2,2,104.1499999701,0.5555555555555556,2,object_07,5,2147,0,5,5,desert_4,2,memory-2step-stake-s,673,2756676,0.0-19.0-0.1-0.184,A1NKBIJQGT0712,3A3KKYU7Q6XNN7OKJ3M7MRU2CR5MWB,3M1CVSFP64LKNSH30T2YAVD3ONPAQ2,1,2
185,3,object_04,object_01,728.44999999506,6,2,632.10000004619,0.4444444444444444,2,object_07,1,2151,0,4,4,library_1,2,memory-2step-stake-s,674,2764942,0.0-19.0-0.1-0.185,A1NKBIJQGT0712,3A3KKYU7Q6XNN7OKJ3M7MRU2CR5MWB,3M1CVSFP64LKNSH30T2YAVD3ONPAQ2,5,6
186,4,object_06,object_09,648.32000003662,8,2,411.81499999948,0.8888888888888888,2,object_07,1,2159,0,6,8,restaurant_4,2,memory-2step-stake-s,675,2773403,0.0-19.0-0.1-0.186,A1NKBIJQGT0712,3A3KKYU7Q6XNN7OKJ3M7MRU2CR5MWB,3M1CVSFP64LKNSH30T2YAVD3ONPAQ2,7,8
187,3,object_04,object_01,736.4650000236,6,2,584.77000001585,0.6666666666666666,2,object_07,1,2165,0,2,6,library_5,2,memory-2step-stake-s,676,2781821,0.0-19.0-0.1-0.187,A1NKBIJQGT0712,3A3KKYU7Q6XNN7OKJ3M7MRU2CR5MWB,3M1CVSFP64LKNSH30T2YAVD3ONPAQ2,5,6
188,4,object_06,object_09,590.40500002448,8,2,474.63499999139,0.6666666666666666,2,object_07,5,2195,0,1,6,restaurant_4,2,memory-2step-stake-s,677,2790131,0.0-19.0-0.1-0.188,A1NKBIJQGT0712,3A3KKYU7Q6XNN7OKJ3M7MRU2CR5MWB,3M1CVSFP64LKNSH30T2YAVD3ONPAQ2,7,8
189,3,object_04,object_01,855.67000001902,6,2,175.15500000445,0.8888888888888888,2,object_07,1,2203,0,1,8,library_5,2,memory-2step-stake-s,678,2798346,0.0-19.0-0.1-0.189,A1NKBIJQGT0712,3A3KKYU7Q6XNN7OKJ3M7MRU2CR5MWB,3M1CVSFP64LKNSH30T2YAVD3ONPAQ2,5,6
190,4,object_06,object_09,647.93000003556,8,2,821.52500003576,0.6666666666666666,2,object_07,5,2233,0,3,6,restaurant_6,2,memory-2step-stake-s,679,2807021,0.0-19.0-0.1-0.190,A1NKBIJQGT0712,3A3KKYU7Q6XNN7OKJ3M7MRU2CR5MWB,3M1CVSFP64LKNSH30T2YAVD3ONPAQ2,7,8
191,2,object_02,object_08,700.63500001561,4,2,333.35500000976,0.7777777777777778,2,object_07,5,2268,0,6,7,forest_2,2,memory-2step-stake-s,680,2815303,0.0-19.0-0.1-0.191,A1NKBIJQGT0712,3A3KKYU7Q6XNN7OKJ3M7MRU2CR5MWB,3M1CVSFP64LKNSH30T2YAVD3ONPAQ2,3,4
192,1,object_05,object_03,1107.2850000346,2,1,315.92999998247,0.4444444444444444,2,object_07,5,2288,0,5,4,desert_4,2,memory-2step-stake-s,681,2823266,0.0-19.0-0.1-0.192,A1NKBIJQGT0712,3A3KKYU7Q6XNN7OKJ3M7MRU2CR5MWB,3M1CVSFP64LKNSH30T2YAVD3ONPAQ2,2,1
193,3,object_01,object_04,878.73499997659,6,1,493.47500002477,0.2222222222222222,2,object_07,1,2290,0,6,2,library_5,2,memory-2step-stake-s,682,2831188,0.0-19.0-0.1-0.193,A1NKBIJQGT0712,3A3KKYU7Q6XNN7OKJ3M7MRU2CR5MWB,3M1CVSFP64LKNSH30T2YAVD3ONPAQ2,6,5
194,3,object_01,object_04,837.78000000166,6,1,740.47000001883,0.3333333333333333,2,object_07,1,2293,0,8,3,library_2,2,memory-2step-stake-s,683,2839488,0.0-19.0-0.1-0.194,A1NKBIJQGT0712,3A3KKYU7Q6XNN7OKJ3M7MRU2CR5MWB,3M1CVSFP64LKNSH30T2YAVD3ONPAQ2,6,5
195,3,object_04,object_01,782.82500000205,6,2,821.57000002917,0.5555555555555556,2,object_07,1,2298,0,7,5,library_3,2,memory-2step-stake-s,684,2848059,0.0-19.0-0.1-0.195,A1NKBIJQGT0712,3A3KKYU7Q6XNN7OKJ3M7MRU2CR5MWB,3M1CVSFP64LKNSH30T2YAVD3ONPAQ2,5,6
196,4,object_06,object_09,839.9699999718,8,2,623.9100000239,0.4444444444444444,2,object_07,1,2302,0,5,4,restaurant_2,2,memory-2step-stake-s,685,2856319,0.0-19.0-0.1-0.196,A1NKBIJQGT0712,3A3KKYU7Q6XNN7OKJ3M7MRU2CR5MWB,3M1CVSFP64LKNSH30T2YAVD3ONPAQ2,7,8
197,1,object_05,object_03,862.21499997191,2,1,393.50000000559,0.2222222222222222,2,object_07,5,2312,0,3,2,desert_2,2,memory-2step-stake-s,686,2864144,0.0-19.0-0.1-0.197,A1NKBIJQGT0712,3A3KKYU7Q6XNN7OKJ3M7MRU2CR5MWB,3M1CVSFP64LKNSH30T2YAVD3ONPAQ2,2,1
198,3,object_04,object_01,975.0950000016,5,1,645.45499999076,0.3333333333333333,1,object_10,1,2315,0,3,2,library_5,2,memory-2step-stake-s,687,2872325,0.0-19.0-0.1-0.198,A1NKBIJQGT0712,3A3KKYU7Q6XNN7OKJ3M7MRU2CR5MWB,3M1CVSFP64LKNSH30T2YAVD3ONPAQ2,5,6
199,1,object_05,object_03,1106.1049999553,1,2,305.3549999604,0.0,1,object_10,5,2315,0,0,4,desert_8,2,memory-2step-stake-s,688,2879853,0.0-19.0-0.1-0.199,A1NKBIJQGT0712,3A3KKYU7Q6XNN7OKJ3M7MRU2CR5MWB,3M1CVSFP64LKNSH30T2YAVD3ONPAQ2,2,1
200,4,object_06,object_09,694.20999998692,8,2,252.63000000268,0.5555555555555556,2,object_07,5,2340,0,3,5,restaurant_4,2,memory-2step-stake-s,689,2887857,0.0-19.0-0.1-0.200,A1NKBIJQGT0712,3A3KKYU7Q6XNN7OKJ3M7MRU2CR5MWB,3M1CVSFP64LKNSH30T2YAVD3ONPAQ2,7,8
201,3,object_01,object_04,928.09000000125,5,2,675.78499997035,0.4444444444444444,1,object_10,1,2344,0,4,5,library_5,2,memory-2step-stake-s,690,2896166,0.0-19.0-0.1-0.201,A1NKBIJQGT0712,3A3KKYU7Q6XNN7OKJ3M7MRU2CR5MWB,3M1CVSFP64LKNSH30T2YAVD3ONPAQ2,6,5
202,3,object_01,object_04,1239.7849999834,5,2,402.63500000583,0.4444444444444444,1,object_10,1,2348,0,4,7,library_1,2,memory-2step-stake-s,691,2904202,0.0-19.0-0.1-0.202,A1NKBIJQGT0712,3A3KKYU7Q6XNN7OKJ3M7MRU2CR5MWB,3M1CVSFP64LKNSH30T2YAVD3ONPAQ2,6,5
203,2,object_02,object_08,965.06999997655,3,1,726.81999998167,0.5555555555555556,1,object_10,1,2353,0,5,4,forest_7,2,memory-2step-stake-s,692,2912662,0.0-19.0-0.1-0.203,A1NKBIJQGT0712,3A3KKYU7Q6XNN7OKJ3M7MRU2CR5MWB,3M1CVSFP64LKNSH30T2YAVD3ONPAQ2,3,4
204,3,object_01,object_04,861.67999997269,5,2,532.109999971,0.7777777777777778,1,object_10,1,2360,0,7,7,library_2,2,memory-2step-stake-s,693,2921150,0.0-19.0-0.1-0.204,A1NKBIJQGT0712,3A3KKYU7Q6XNN7OKJ3M7MRU2CR5MWB,3M1CVSFP64LKNSH30T2YAVD3ONPAQ2,6,5
205,2,object_02,object_08,997.71999998484,4,2,727.1400000318,0.7777777777777778,2,object_07,5,2395,0,9,7,forest_2,2,memory-2step-stake-s,694,2929824,0.0-19.0-0.1-0.205,A1NKBIJQGT0712,3A3KKYU7Q6XNN7OKJ3M7MRU2CR5MWB,3M1CVSFP64LKNSH30T2YAVD3ONPAQ2,3,4
206,4,object_06,object_09,695.52999996813,8,2,664.11000001244,0.6666666666666666,2,object_07,1,2401,0,9,6,restaurant_6,2,memory-2step-stake-s,695,2938325,0.0-19.0-0.1-0.206,A1NKBIJQGT0712,3A3KKYU7Q6XNN7OKJ3M7MRU2CR5MWB,3M1CVSFP64LKNSH30T2YAVD3ONPAQ2,7,8
207,1,object_03,object_05,605.25500000222,2,2,411.67499998119,0.3333333333333333,2,object_07,5,2416,0,7,3,desert_3,2,memory-2step-stake-s,696,2946278,0.0-19.0-0.1-0.207,A1NKBIJQGT0712,3A3KKYU7Q6XNN7OKJ3M7MRU2CR5MWB,3M1CVSFP64LKNSH30T2YAVD3ONPAQ2,1,2
208,3,object_04,object_01,852.06499998458,6,2,836.19000000181,0.5555555555555556,2,object_07,1,2421,0,8,5,library_1,2,memory-2step-stake-s,697,2954871,0.0-19.0-0.1-0.208,A1NKBIJQGT0712,3A3KKYU7Q6XNN7OKJ3M7MRU2CR5MWB,3M1CVSFP64LKNSH30T2YAVD3ONPAQ2,5,6
209,1,object_03,object_05,737.60999995284,2,2,655.42000002461,0.6666666666666666,2,object_07,5,2451,0,7,6,desert_3,2,memory-2step-stake-s,698,2963360,0.0-19.0-0.1-0.209,A1NKBIJQGT0712,3A3KKYU7Q6XNN7OKJ3M7MRU2CR5MWB,3M1CVSFP64LKNSH30T2YAVD3ONPAQ2,1,2
210,1,object_05,object_03,644.96000000509,2,1,307.49500001548,0.8888888888888888,2,object_07,5,2491,0,7,8,desert_4,2,memory-2step-stake-s,699,2971706,0.0-19.0-0.1-0.210,A1NKBIJQGT0712,3A3KKYU7Q6XNN7OKJ3M7MRU2CR5MWB,3M1CVSFP64LKNSH30T2YAVD3ONPAQ2,2,1
211,1,object_03,object_05,815.37999998545,2,2,657.46000001673,0.7777777777777778,2,object_07,1,2498,0,8,7,desert_2,2,memory-2step-stake-s,700,2980311,0.0-19.0-0.1-0.211,A1NKBIJQGT0712,3A3KKYU7Q6XNN7OKJ3M7MRU2CR5MWB,3M1CVSFP64LKNSH30T2YAVD3ONPAQ2,1,2
212,2,object_08,object_02,1022.0700000064,4,1,874.67500002822,0.2222222222222222,2,object_07,5,2508,0,8,2,forest_6,2,memory-2step-stake-s,701,2988624,0.0-19.0-0.1-0.212,A1NKBIJQGT0712,3A3KKYU7Q6XNN7OKJ3M7MRU2CR5MWB,3M1CVSFP64LKNSH30T2YAVD3ONPAQ2,4,3
213,3,object_04,object_01,974.16500002146,6,2,450.86000004085,0.2222222222222222,2,object_07,1,2510,0,8,2,library_2,2,memory-2step-stake-s,702,2996505,0.0-19.0-0.1-0.213,A1NKBIJQGT0712,3A3KKYU7Q6XNN7OKJ3M7MRU2CR5MWB,3M1CVSFP64LKNSH30T2YAVD3ONPAQ2,5,6
214,2,object_02,object_08,688.46999999369,4,2,38.674999959767,0.1111111111111111,2,object_07,1,2511,0,7,1,forest_5,2,memory-2step-stake-s,703,3003885,0.0-19.0-0.1-0.214,A1NKBIJQGT0712,3A3KKYU7Q6XNN7OKJ3M7MRU2CR5MWB,3M1CVSFP64LKNSH30T2YAVD3ONPAQ2,3,4
215,1,object_03,object_05,873.66500002099,1,1,33.029999991413,0.6666666666666666,1,object_10,1,2517,0,6,0,desert_8,2,memory-2step-stake-s,704,3011754,0.0-19.0-0.1-0.215,A1NKBIJQGT0712,3A3KKYU7Q6XNN7OKJ3M7MRU2CR5MWB,3M1CVSFP64LKNSH30T2YAVD3ONPAQ2,1,2
216,1,object_05,object_03,776.84499998577,1,2,448.30999994883,0.5555555555555556,1,object_10,1,2522,0,5,2,desert_8,2,memory-2step-stake-s,705,3019939,0.0-19.0-0.1-0.216,A1NKBIJQGT0712,3A3KKYU7Q6XNN7OKJ3M7MRU2CR5MWB,3M1CVSFP64LKNSH30T2YAVD3ONPAQ2,2,1
217,2,object_08,object_02,801.54999997467,3,2,329.80499998666,0.6666666666666666,1,object_10,5,2552,0,6,3,forest_7,2,memory-2step-stake-s,706,3028108,0.0-19.0-0.1-0.217,A1NKBIJQGT0712,3A3KKYU7Q6XNN7OKJ3M7MRU2CR5MWB,3M1CVSFP64LKNSH30T2YAVD3ONPAQ2,4,3
218,4,object_06,object_09,1306.3850000035,7,1,377.90999998106,0.5555555555555556,1,object_10,1,2557,0,5,2,restaurant_6,2,memory-2step-stake-s,707,3036229,0.0-19.0-0.1-0.218,A1NKBIJQGT0712,3A3KKYU7Q6XNN7OKJ3M7MRU2CR5MWB,3M1CVSFP64LKNSH30T2YAVD3ONPAQ2,7,8
219,2,object_08,object_02,843.79000001354,3,2,725.41499999352,0.6666666666666666,1,object_10,1,2563,0,6,0,forest_5,2,memory-2step-stake-s,708,3044793,0.0-19.0-0.1-0.219,A1NKBIJQGT0712,3A3KKYU7Q6XNN7OKJ3M7MRU2CR5MWB,3M1CVSFP64LKNSH30T2YAVD3ONPAQ2,4,3
220,4,object_09,object_06,882.65000004321,7,2,336.89500001492,0.5555555555555556,1,object_10,1,2568,0,5,0,restaurant_6,2,memory-2step-stake-s,709,3052866,0.0-19.0-0.1-0.220,A1NKBIJQGT0712,3A3KKYU7Q6XNN7OKJ3M7MRU2CR5MWB,3M1CVSFP64LKNSH30T2YAVD3ONPAQ2,8,7
221,4,object_06,object_09,1008.9499999885,7,1,443.98999999976,0.6666666666666666,1,object_10,1,2574,0,6,1,restaurant_2,2,memory-2step-stake-s,710,3061153,0.0-19.0-0.1-0.221,A1NKBIJQGT0712,3A3KKYU7Q6XNN7OKJ3M7MRU2CR5MWB,3M1CVSFP64LKNSH30T2YAVD3ONPAQ2,7,8
222,3,object_01,object_04,716.07999998378,5,2,1084.9649999873,0.3333333333333333,1,object_10,1,2577,0,3,2,library_3,2,memory-2step-stake-s,711,3069778,0.0-19.0-0.1-0.222,A1NKBIJQGT0712,3A3KKYU7Q6XNN7OKJ3M7MRU2CR5MWB,3M1CVSFP64LKNSH30T2YAVD3ONPAQ2,6,5
223,2,object_02,object_08,880.72000001557,4,2,551.50500003947,0.1111111111111111,2,object_07,5,2582,0,1,1,forest_7,2,memory-2step-stake-s,712,3077669,0.0-19.0-0.1-0.223,A1NKBIJQGT0712,3A3KKYU7Q6XNN7OKJ3M7MRU2CR5MWB,3M1CVSFP64LKNSH30T2YAVD3ONPAQ2,3,4
224,4,object_09,object_06,583.55499996105,7,2,678.97000000812,0.0,1,object_10,1,2582,0,0,0,restaurant_6,2,memory-2step-stake-s,713,3085575,0.0-19.0-0.1-0.224,A1NKBIJQGT0712,3A3KKYU7Q6XNN7OKJ3M7MRU2CR5MWB,3M1CVSFP64LKNSH30T2YAVD3ONPAQ2,8,7
225,4,object_06,object_09,998.73000005027,7,1,666.70499998145,0.4444444444444444,1,object_10,5,2602,0,4,1,restaurant_1,2,memory-2step-stake-s,714,3093877,0.0-19.0-0.1-0.225,A1NKBIJQGT0712,3A3KKYU7Q6XNN7OKJ3M7MRU2CR5MWB,3M1CVSFP64LKNSH30T2YAVD3ONPAQ2,7,8
226,3,object_01,object_04,779.28000001702,5,2,442.27500003763,0.3333333333333333,1,object_10,1,2605,0,3,3,library_3,2,memory-2step-stake-s,715,3101858,0.0-19.0-0.1-0.226,A1NKBIJQGT0712,3A3KKYU7Q6XNN7OKJ3M7MRU2CR5MWB,3M1CVSFP64LKNSH30T2YAVD3ONPAQ2,6,5
227,1,object_05,object_03,751.54999998631,2,1,82.954999990761,0.2222222222222222,2,object_07,1,2607,0,0,2,desert_8,2,memory-2step-stake-s,716,3109382,0.0-19.0-0.1-0.227,A1NKBIJQGT0712,3A3KKYU7Q6XNN7OKJ3M7MRU2CR5MWB,3M1CVSFP64LKNSH30T2YAVD3ONPAQ2,2,1
228,1,object_05,object_03,813.88499995228,2,1,438.49500000942,0.4444444444444444,2,object_07,1,2611,0,1,4,desert_2,2,memory-2step-stake-s,717,3117460,0.0-19.0-0.1-0.228,A1NKBIJQGT0712,3A3KKYU7Q6XNN7OKJ3M7MRU2CR5MWB,3M1CVSFP64LKNSH30T2YAVD3ONPAQ2,2,1
229,3,object_04,object_01,1133.1800000044,6,2,293.24499994982,0.6666666666666666,2,object_07,5,2641,0,1,6,library_1,2,memory-2step-stake-s,718,3125587,0.0-19.0-0.1-0.229,A1NKBIJQGT0712,3A3KKYU7Q6XNN7OKJ3M7MRU2CR5MWB,3M1CVSFP64LKNSH30T2YAVD3ONPAQ2,5,6
230,2,object_08,object_02,957.38000003621,4,1,909.40499998396,0.7777777777777778,2,object_07,5,2676,0,1,7,forest_6,2,memory-2step-stake-s,719,3134452,0.0-19.0-0.1-0.230,A1NKBIJQGT0712,3A3KKYU7Q6XNN7OKJ3M7MRU2CR5MWB,3M1CVSFP64LKNSH30T2YAVD3ONPAQ2,4,3
231,3,object_04,object_01,1114.8549999925,6,2,320.85999997798,0.2222222222222222,2,object_07,1,2678,0,3,2,library_2,2,memory-2step-stake-s,720,3142202,0.0-19.0-0.1-0.231,A1NKBIJQGT0712,3A3KKYU7Q6XNN7OKJ3M7MRU2CR5MWB,3M1CVSFP64LKNSH30T2YAVD3ONPAQ2,5,6
232,4,object_06,object_09,700.60500002,8,2,522.89999998175,0.1111111111111111,2,object_07,1,2679,0,4,1,restaurant_2,2,memory-2step-stake-s,721,3150053,0.0-19.0-0.1-0.232,A1NKBIJQGT0712,3A3KKYU7Q6XNN7OKJ3M7MRU2CR5MWB,3M1CVSFP64LKNSH30T2YAVD3ONPAQ2,7,8
233,1,object_03,object_05,695.5050000106,1,1,446.65999995777,0.3333333333333333,1,object_10,5,2694,0,3,1,desert_3,2,memory-2step-stake-s,722,3158037,0.0-19.0-0.1-0.233,A1NKBIJQGT0712,3A3KKYU7Q6XNN7OKJ3M7MRU2CR5MWB,3M1CVSFP64LKNSH30T2YAVD3ONPAQ2,1,2
234,1,object_03,object_05,894.88999999594,1,1,304.69000001904,0.2222222222222222,1,object_10,5,2704,0,2,3,desert_3,2,memory-2step-stake-s,723,3165772,0.0-19.0-0.1-0.234,A1NKBIJQGT0712,3A3KKYU7Q6XNN7OKJ3M7MRU2CR5MWB,3M1CVSFP64LKNSH30T2YAVD3ONPAQ2,1,2
235,4,object_06,object_09,728.15500001889,7,1,526.37499995762,0.3333333333333333,1,object_10,1,2707,0,3,2,restaurant_1,2,memory-2step-stake-s,724,3173848,0.0-19.0-0.1-0.235,A1NKBIJQGT0712,3A3KKYU7Q6XNN7OKJ3M7MRU2CR5MWB,3M1CVSFP64LKNSH30T2YAVD3ONPAQ2,7,8
236,2,object_08,object_02,786.16000001784,4,1,59.054999961518,0.1111111111111111,2,object_07,5,2712,0,4,1,forest_2,2,memory-2step-stake-s,725,3181246,0.0-19.0-0.1-0.236,A1NKBIJQGT0712,3A3KKYU7Q6XNN7OKJ3M7MRU2CR5MWB,3M1CVSFP64LKNSH30T2YAVD3ONPAQ2,4,3
237,2,object_08,object_02,805.73500000173,4,1,912.45000000345,0.3333333333333333,2,object_07,1,2715,0,6,3,forest_6,2,memory-2step-stake-s,726,3189690,0.0-19.0-0.1-0.237,A1NKBIJQGT0712,3A3KKYU7Q6XNN7OKJ3M7MRU2CR5MWB,3M1CVSFP64LKNSH30T2YAVD3ONPAQ2,4,3
238,4,object_09,object_06,768.96499999566,8,1,631.55500002904,0.2222222222222222,2,object_07,1,2717,0,8,2,restaurant_1,2,memory-2step-stake-s,727,3197752,0.0-19.0-0.1-0.238,A1NKBIJQGT0712,3A3KKYU7Q6XNN7OKJ3M7MRU2CR5MWB,3M1CVSFP64LKNSH30T2YAVD3ONPAQ2,8,7
239,2,object_02,object_08,610.54500000319,4,2,699.41000000108,0.2222222222222222,2,object_07,5,2727,0,7,2,forest_5,2,memory-2step-stake-s,728,3205897,0.0-19.0-0.1-0.239,A1NKBIJQGT0712,3A3KKYU7Q6XNN7OKJ3M7MRU2CR5MWB,3M1CVSFP64LKNSH30T2YAVD3ONPAQ2,3,4
240,4,object_06,object_09,699.9450000003,8,2,626.57500000205,0.0,2,object_07,1,2727,0,5,0,restaurant_4,2,memory-2step-stake-s,729,3213755,0.0-19.0-0.1-0.240,A1NKBIJQGT0712,3A3KKYU7Q6XNN7OKJ3M7MRU2CR5MWB,3M1CVSFP64LKNSH30T2YAVD3ONPAQ2,7,8
241,4,object_09,object_06,551.94999999367,7,2,216.39499999583,0.4444444444444444,1,object_10,1,2731,0,4,1,restaurant_1,2,memory-2step-stake-s,730,3221616,0.0-19.0-0.1-0.241,A1NKBIJQGT0712,3A3KKYU7Q6XNN7OKJ3M7MRU2CR5MWB,3M1CVSFP64LKNSH30T2YAVD3ONPAQ2,8,7
242,1,object_05,object_03,866.39999999898,1,2,431.51500000386,0.2222222222222222,1,object_10,1,2733,0,2,1,desert_8,2,memory-2step-stake-s,731,3229478,0.0-19.0-0.1-0.242,A1NKBIJQGT0712,3A3KKYU7Q6XNN7OKJ3M7MRU2CR5MWB,3M1CVSFP64LKNSH30T2YAVD3ONPAQ2,2,1
243,1,object_05,object_03,-1.0,-1,-1,-1.0,0.0,-,0,5,2733,0,2,2,desert_8,2,memory-2step-stake-s,732,3235998,0.0-19.0-0.1-0.243,A1NKBIJQGT0712,3A3KKYU7Q6XNN7OKJ3M7MRU2CR5MWB,3M1CVSFP64LKNSH30T2YAVD3ONPAQ2,2,1
244,4,object_06,object_09,762.80000002589,8,2,522.1700000111,0.1111111111111111,2,object_07,1,2734,0,1,1,restaurant_6,2,memory-2step-stake-s,733,3243848,0.0-19.0-0.1-0.244,A1NKBIJQGT0712,3A3KKYU7Q6XNN7OKJ3M7MRU2CR5MWB,3M1CVSFP64LKNSH30T2YAVD3ONPAQ2,7,8
245,4,object_09,object_06,641.15999999922,7,2,359.70500000985,0.2222222222222222,1,object_10,1,2736,0,2,0,restaurant_6,2,memory-2step-stake-s,734,3251649,0.0-19.0-0.1-0.245,A1NKBIJQGT0712,3A3KKYU7Q6XNN7OKJ3M7MRU2CR5MWB,3M1CVSFP64LKNSH30T2YAVD3ONPAQ2,8,7
246,3,object_01,object_04,866.57499999274,5,2,718.31500000553,0.3333333333333333,1,object_10,1,2739,0,3,1,library_1,2,memory-2step-stake-s,735,3259902,0.0-19.0-0.1-0.246,A1NKBIJQGT0712,3A3KKYU7Q6XNN7OKJ3M7MRU2CR5MWB,3M1CVSFP64LKNSH30T2YAVD3ONPAQ2,6,5
247,1,object_05,object_03,814.04000002658,1,2,137.80000002589,0.3333333333333333,1,object_10,5,2754,0,3,2,desert_3,2,memory-2step-stake-s,736,3267568,0.0-19.0-0.1-0.247,A1NKBIJQGT0712,3A3KKYU7Q6XNN7OKJ3M7MRU2CR5MWB,3M1CVSFP64LKNSH30T2YAVD3ONPAQ2,2,1
248,4,object_09,object_06,1127.9249999789,8,1,388.35500000278,0.1111111111111111,2,object_07,5,2759,0,2,1,restaurant_6,2,memory-2step-stake-s,737,3275286,0.0-19.0-0.1-0.248,A1NKBIJQGT0712,3A3KKYU7Q6XNN7OKJ3M7MRU2CR5MWB,3M1CVSFP64LKNSH30T2YAVD3ONPAQ2,8,7
249,2,object_02,object_08,790.41000001598,4,2,636.07500004582,0.0,2,object_07,1,2759,0,1,0,forest_2,2,memory-2step-stake-s,738,3283167,0.0-19.0-0.1-0.249,A1NKBIJQGT0712,3A3KKYU7Q6XNN7OKJ3M7MRU2CR5MWB,3M1CVSFP64LKNSH30T2YAVD3ONPAQ2,3,4
250,4,object_06,object_09,938.02500003949,7,1,429.86499995459,0.3333333333333333,1,object_10,5,2774,0,3,3,restaurant_4,2,memory-2step-stake-s,739,3291125,0.0-19.0-0.1-0.250,A1NKBIJQGT0712,3A3KKYU7Q6XNN7OKJ3M7MRU2CR5MWB,3M1CVSFP64LKNSH30T2YAVD3ONPAQ2,7,8
251,1,object_03,object_05,952.54500000738,1,1,261.71499997145,0.6666666666666666,1,object_10,5,2804,0,6,0,desert_8,2,memory-2step-stake-s,740,3299226,0.0-19.0-0.1-0.251,A1NKBIJQGT0712,3A3KKYU7Q6XNN7OKJ3M7MRU2CR5MWB,3M1CVSFP64LKNSH30T2YAVD3ONPAQ2,1,2
252,2,object_08,object_02,810.89000002248,3,2,451.92500000121,0.5555555555555556,1,object_10,1,2809,0,5,1,forest_6,2,memory-2step-stake-s,741,3307423,0.0-19.0-0.1-0.252,A1NKBIJQGT0712,3A3KKYU7Q6XNN7OKJ3M7MRU2CR5MWB,3M1CVSFP64LKNSH30T2YAVD3ONPAQ2,4,3
253,4,object_06,object_09,797.91500000283,7,1,594.21499999007,0.8888888888888888,1,object_10,1,2817,0,8,2,restaurant_6,2,memory-2step-stake-s,742,3316063,0.0-19.0-0.1-0.253,A1NKBIJQGT0712,3A3KKYU7Q6XNN7OKJ3M7MRU2CR5MWB,3M1CVSFP64LKNSH30T2YAVD3ONPAQ2,7,8
254,3,object_04,object_01,726.29500000039,5,1,470.81500000786,0.8888888888888888,1,object_10,1,2825,0,8,4,library_2,2,memory-2step-stake-s,743,3324568,0.0-19.0-0.1-0.254,A1NKBIJQGT0712,3A3KKYU7Q6XNN7OKJ3M7MRU2CR5MWB,3M1CVSFP64LKNSH30T2YAVD3ONPAQ2,5,6
255,4,object_06,object_09,913.32499997225,7,1,272.25999999791,0.7777777777777778,1,object_10,1,2832,0,7,4,restaurant_6,2,memory-2step-stake-s,744,3332807,0.0-19.0-0.1-0.255,A1NKBIJQGT0712,3A3KKYU7Q6XNN7OKJ3M7MRU2CR5MWB,3M1CVSFP64LKNSH30T2YAVD3ONPAQ2,7,8
