,state1,stim_left,stim_right,rt_1,choice1,response1,rt_2,points,state2,stim_state2,stake,score,practice,rews1,rews2,background,high_arm,trial_type,trial_index,time_elapsed,internal_node_id,subid,hitid,assignmentid,stim_left_num,stim_right_num
0,2,object_01,object_04,1237.3999999762,4,1,-1.0,0.0,2,object_06,1,0,0,3,1,forest_3,1,memory-2step-stake-s,489,1278260,0.0-19.0-0.0-0.0,A2MS1GQLGAX9FZ,3B623HUYK76FV1575X2NKKQMM9B8SL,3MMN5BL1W3KTISKQZLG76EFS8AZ3M7,4,3
1,4,object_07,object_08,1055.0,8,1,951.89999997616,0.0,2,object_06,5,0,0,2,0,restaurant_2,1,memory-2step-stake-s,490,1286492,0.0-19.0-0.0-0.1,A2MS1GQLGAX9FZ,3B623HUYK76FV1575X2NKKQMM9B8SL,3MMN5BL1W3KTISKQZLG76EFS8AZ3M7,8,7
2,3,object_02,object_03,949.60000002384,5,2,806.70000004768,0.1111111111111111,1,object_10,5,5,0,1,3,library_7,1,memory-2step-stake-s,491,1294680,0.0-19.0-0.0-0.2,A2MS1GQLGAX9FZ,3B623HUYK76FV1575X2NKKQMM9B8SL,3MMN5BL1W3KTISKQZLG76EFS8AZ3M7,6,5
3,2,object_01,object_04,1044.0,4,1,779.09999996424,0.4444444444444444,2,object_06,1,9,0,3,4,forest_1,1,memory-2step-stake-s,492,1303182,0.0-19.0-0.0-0.3,A2MS1GQLGAX9FZ,3B623HUYK76FV1575X2NKKQMM9B8SL,3MMN5BL1W3KTISKQZLG76EFS8AZ3M7,4,3
4,2,object_01,object_04,781.0,4,1,589.80000001192,0.3333333333333333,2,object_06,5,24,0,1,3,forest_3,1,memory-2step-stake-s,493,1311355,0.0-19.0-0.0-0.4,A2MS1GQLGAX9FZ,3B623HUYK76FV1575X2NKKQMM9B8SL,3MMN5BL1W3KTISKQZLG76EFS8AZ3M7,4,3
5,2,object_01,object_04,675.0,3,2,570.0,0.0,1,object_10,1,24,0,0,0,forest_1,1,memory-2step-stake-s,494,1319206,0.0-19.0-0.0-0.5,A2MS1GQLGAX9FZ,3B623HUYK76FV1575X2NKKQMM9B8SL,3MMN5BL1W3KTISKQZLG76EFS8AZ3M7,4,3
6,4,object_07,object_08,1049.7000000477,8,1,624.5,0.1111111111111111,2,object_06,5,29,0,2,1,restaurant_3,1,memory-2step-stake-s,495,1327195,0.0-19.0-0.0-0.6,A2MS1GQLGAX9FZ,3B623HUYK76FV1575X2NKKQMM9B8SL,3MMN5BL1W3KTISKQZLG76EFS8AZ3M7,8,7
7,3,object_02,object_03,898.39999997616,5,2,420.40000003576,0.2222222222222222,1,object_10,1,31,0,2,3,library_3,1,memory-2step-stake-s,496,1335131,0.0-19.0-0.0-0.7,A2MS1GQLGAX9FZ,3B623HUYK76FV1575X2NKKQMM9B8SL,3MMN5BL1W3KTISKQZLG76EFS8AZ3M7,6,5
8,2,object_04,object_01,1019.4000000358,4,2,415.30000001192,0.4444444444444444,2,object_06,1,35,0,4,4,forest_3,1,memory-2step-stake-s,497,1343237,0.0-19.0-0.0-0.8,A2MS1GQLGAX9FZ,3B623HUYK76FV1575X2NKKQMM9B8SL,3MMN5BL1W3KTISKQZLG76EFS8AZ3M7,3,4
9,1,object_05,object_09,869.19999998808,1,2,473.29999995232,0.8888888888888888,1,object_10,1,43,0,8,3,desert_1,1,memory-2step-stake-s,498,1351794,0.0-19.0-0.0-0.9,A2MS1GQLGAX9FZ,3B623HUYK76FV1575X2NKKQMM9B8SL,3MMN5BL1W3KTISKQZLG76EFS8AZ3M7,2,1
10,2,object_04,object_01,723.29999995232,4,2,346.09999996424,0.4444444444444444,2,object_06,1,47,0,8,4,forest_7,1,memory-2step-stake-s,499,1359811,0.0-19.0-0.0-0.10,A2MS1GQLGAX9FZ,3B623HUYK76FV1575X2NKKQMM9B8SL,3MMN5BL1W3KTISKQZLG76EFS8AZ3M7,3,4
11,1,object_05,object_09,726.80000001192,1,2,437.40000003576,0.7777777777777778,1,object_10,5,82,0,7,1,desert_4,1,memory-2step-stake-s,500,1368231,0.0-19.0-0.0-0.11,A2MS1GQLGAX9FZ,3B623HUYK76FV1575X2NKKQMM9B8SL,3MMN5BL1W3KTISKQZLG76EFS8AZ3M7,2,1
12,4,object_08,object_07,972.30000001192,8,2,614.09999996424,0.3333333333333333,2,object_06,5,97,0,5,3,restaurant_2,1,memory-2step-stake-s,501,1376439,0.0-19.0-0.0-0.12,A2MS1GQLGAX9FZ,3B623HUYK76FV1575X2NKKQMM9B8SL,3MMN5BL1W3KTISKQZLG76EFS8AZ3M7,7,8
13,3,object_02,object_03,1052.5,6,1,408.70000004768,0.2222222222222222,2,object_06,1,99,0,7,2,library_1,1,memory-2step-stake-s,502,1384324,0.0-19.0-0.0-0.13,A2MS1GQLGAX9FZ,3B623HUYK76FV1575X2NKKQMM9B8SL,3MMN5BL1W3KTISKQZLG76EFS8AZ3M7,6,5
14,1,object_05,object_09,681.30000001192,1,2,368.0,0.8888888888888888,1,object_10,5,139,0,8,1,desert_7,1,memory-2step-stake-s,503,1392786,0.0-19.0-0.0-0.14,A2MS1GQLGAX9FZ,3B623HUYK76FV1575X2NKKQMM9B8SL,3MMN5BL1W3KTISKQZLG76EFS8AZ3M7,2,1
15,1,object_05,object_09,750.5,1,2,325.0,0.5555555555555556,1,object_10,1,144,0,5,3,desert_3,1,memory-2step-stake-s,504,1400920,0.0-19.0-0.0-0.15,A2MS1GQLGAX9FZ,3B623HUYK76FV1575X2NKKQMM9B8SL,3MMN5BL1W3KTISKQZLG76EFS8AZ3M7,2,1
16,2,object_01,object_04,729.39999997616,4,1,230.80000001192,0.3333333333333333,2,object_06,1,147,0,4,3,forest_1,1,memory-2step-stake-s,505,1408741,0.0-19.0-0.0-0.16,A2MS1GQLGAX9FZ,3B623HUYK76FV1575X2NKKQMM9B8SL,3MMN5BL1W3KTISKQZLG76EFS8AZ3M7,4,3
17,3,object_03,object_02,1408.0999999642,5,1,455.0,0.2222222222222222,1,object_10,5,157,0,2,2,library_7,1,memory-2step-stake-s,506,1416668,0.0-19.0-0.0-0.17,A2MS1GQLGAX9FZ,3B623HUYK76FV1575X2NKKQMM9B8SL,3MMN5BL1W3KTISKQZLG76EFS8AZ3M7,5,6
18,3,object_03,object_02,1475.7999999523,5,1,410.89999997616,0.4444444444444444,1,object_10,5,177,0,4,2,library_7,1,memory-2step-stake-s,507,1424765,0.0-19.0-0.0-0.18,A2MS1GQLGAX9FZ,3B623HUYK76FV1575X2NKKQMM9B8SL,3MMN5BL1W3KTISKQZLG76EFS8AZ3M7,5,6
19,3,object_03,object_02,984.0,5,1,508.0,0.3333333333333333,1,object_10,5,192,0,3,1,library_7,1,memory-2step-stake-s,508,1432878,0.0-19.0-0.0-0.19,A2MS1GQLGAX9FZ,3B623HUYK76FV1575X2NKKQMM9B8SL,3MMN5BL1W3KTISKQZLG76EFS8AZ3M7,5,6
20,3,object_03,object_02,1041.8999999762,5,1,613.59999996424,0.3333333333333333,1,object_10,5,207,0,3,2,library_1,1,memory-2step-stake-s,509,1441087,0.0-19.0-0.0-0.20,A2MS1GQLGAX9FZ,3B623HUYK76FV1575X2NKKQMM9B8SL,3MMN5BL1W3KTISKQZLG76EFS8AZ3M7,5,6
21,4,object_08,object_07,1281.7000000477,8,2,433.89999997616,0.0,2,object_06,5,207,0,3,0,restaurant_3,1,memory-2step-stake-s,510,1448811,0.0-19.0-0.0-0.21,A2MS1GQLGAX9FZ,3B623HUYK76FV1575X2NKKQMM9B8SL,3MMN5BL1W3KTISKQZLG76EFS8AZ3M7,7,8
22,1,object_05,object_09,928.39999997616,1,2,334.10000002384,0.3333333333333333,1,object_10,1,210,0,3,1,desert_1,1,memory-2step-stake-s,511,1456734,0.0-19.0-0.0-0.22,A2MS1GQLGAX9FZ,3B623HUYK76FV1575X2NKKQMM9B8SL,3MMN5BL1W3KTISKQZLG76EFS8AZ3M7,2,1
23,4,object_08,object_07,1204.3000000119,7,1,423.69999998808,0.7777777777777778,1,object_10,5,245,0,7,1,restaurant_2,1,memory-2step-stake-s,512,1465169,0.0-19.0-0.0-0.23,A2MS1GQLGAX9FZ,3B623HUYK76FV1575X2NKKQMM9B8SL,3MMN5BL1W3KTISKQZLG76EFS8AZ3M7,7,8
24,2,object_01,object_04,1105.3999999762,4,1,471.60000002384,0.2222222222222222,2,object_06,5,255,0,6,2,forest_5,1,memory-2step-stake-s,513,1473127,0.0-19.0-0.0-0.24,A2MS1GQLGAX9FZ,3B623HUYK76FV1575X2NKKQMM9B8SL,3MMN5BL1W3KTISKQZLG76EFS8AZ3M7,4,3
25,4,object_08,object_07,1241.6000000238,7,1,325.80000001192,0.6666666666666666,1,object_10,5,285,0,6,2,restaurant_2,1,memory-2step-stake-s,514,1481336,0.0-19.0-0.0-0.25,A2MS1GQLGAX9FZ,3B623HUYK76FV1575X2NKKQMM9B8SL,3MMN5BL1W3KTISKQZLG76EFS8AZ3M7,7,8
26,1,object_05,object_09,1099.1999999881,1,2,251.80000001192,0.5555555555555556,1,object_10,5,310,0,5,2,desert_4,1,memory-2step-stake-s,515,1489378,0.0-19.0-0.0-0.26,A2MS1GQLGAX9FZ,3B623HUYK76FV1575X2NKKQMM9B8SL,3MMN5BL1W3KTISKQZLG76EFS8AZ3M7,2,1
27,3,object_02,object_03,1034.6000000238,5,2,290.30000001192,0.6666666666666666,1,object_10,5,340,0,6,1,library_5,1,memory-2step-stake-s,516,1497582,0.0-19.0-0.0-0.27,A2MS1GQLGAX9FZ,3B623HUYK76FV1575X2NKKQMM9B8SL,3MMN5BL1W3KTISKQZLG76EFS8AZ3M7,6,5
28,3,object_02,object_03,1151.1999999881,6,1,255.19999998808,0.3333333333333333,2,object_06,5,355,0,8,3,library_3,1,memory-2step-stake-s,517,1505425,0.0-19.0-0.0-0.28,A2MS1GQLGAX9FZ,3B623HUYK76FV1575X2NKKQMM9B8SL,3MMN5BL1W3KTISKQZLG76EFS8AZ3M7,6,5
29,3,object_02,object_03,909.10000002384,5,2,391.30000001192,0.5555555555555556,1,object_10,1,360,0,5,1,library_5,1,memory-2step-stake-s,518,1513650,0.0-19.0-0.0-0.29,A2MS1GQLGAX9FZ,3B623HUYK76FV1575X2NKKQMM9B8SL,3MMN5BL1W3KTISKQZLG76EFS8AZ3M7,6,5
30,3,object_02,object_03,773.0,5,2,349.90000003576,0.3333333333333333,1,object_10,5,375,0,3,1,library_5,1,memory-2step-stake-s,519,1521590,0.0-19.0-0.0-0.30,A2MS1GQLGAX9FZ,3B623HUYK76FV1575X2NKKQMM9B8SL,3MMN5BL1W3KTISKQZLG76EFS8AZ3M7,6,5
31,3,object_02,object_03,960.70000004768,5,2,241.80000001192,0.3333333333333333,1,object_10,5,390,0,3,1,library_7,1,memory-2step-stake-s,520,1529403,0.0-19.0-0.0-0.31,A2MS1GQLGAX9FZ,3B623HUYK76FV1575X2NKKQMM9B8SL,3MMN5BL1W3KTISKQZLG76EFS8AZ3M7,6,5
32,3,object_03,object_02,849.29999995232,6,2,293.80000001192,0.0,2,object_06,5,390,0,3,0,library_7,1,memory-2step-stake-s,521,1536981,0.0-19.0-0.0-0.32,A2MS1GQLGAX9FZ,3B623HUYK76FV1575X2NKKQMM9B8SL,3MMN5BL1W3KTISKQZLG76EFS8AZ3M7,5,6
33,4,object_07,object_08,1163.1000000238,7,2,380.59999996424,0.1111111111111111,1,object_10,5,395,0,1,1,restaurant_4,1,memory-2step-stake-s,522,1544737,0.0-19.0-0.0-0.33,A2MS1GQLGAX9FZ,3B623HUYK76FV1575X2NKKQMM9B8SL,3MMN5BL1W3KTISKQZLG76EFS8AZ3M7,8,7
34,2,object_04,object_01,1456.6000000238,3,1,343.0,0.4444444444444444,1,object_10,1,399,0,4,2,forest_5,1,memory-2step-stake-s,523,1552770,0.0-19.0-0.0-0.34,A2MS1GQLGAX9FZ,3B623HUYK76FV1575X2NKKQMM9B8SL,3MMN5BL1W3KTISKQZLG76EFS8AZ3M7,3,4
35,3,object_02,object_03,1452.3000000119,5,2,339.69999998808,0.3333333333333333,1,object_10,1,402,0,3,4,library_1,1,memory-2step-stake-s,524,1560690,0.0-19.0-0.0-0.35,A2MS1GQLGAX9FZ,3B623HUYK76FV1575X2NKKQMM9B8SL,3MMN5BL1W3KTISKQZLG76EFS8AZ3M7,6,5
36,1,object_09,object_05,1447.7000000477,1,1,233.39999997616,0.3333333333333333,1,object_10,1,405,0,3,4,desert_1,1,memory-2step-stake-s,525,1568510,0.0-19.0-0.0-0.36,A2MS1GQLGAX9FZ,3B623HUYK76FV1575X2NKKQMM9B8SL,3MMN5BL1W3KTISKQZLG76EFS8AZ3M7,1,2
37,1,object_09,object_05,-1.0,-1,-1,-1.0,0.0,-,0,1,405,0,5,4,desert_4,1,memory-2step-stake-s,526,1575068,0.0-19.0-0.0-0.37,A2MS1GQLGAX9FZ,3B623HUYK76FV1575X2NKKQMM9B8SL,3MMN5BL1W3KTISKQZLG76EFS8AZ3M7,1,2
38,2,object_04,object_01,1227.1999999881,3,1,369.69999998808,0.5555555555555556,1,object_10,1,410,0,5,2,forest_7,1,memory-2step-stake-s,527,1583220,0.0-19.0-0.0-0.38,A2MS1GQLGAX9FZ,3B623HUYK76FV1575X2NKKQMM9B8SL,3MMN5BL1W3KTISKQZLG76EFS8AZ3M7,3,4
39,1,object_05,object_09,1369.5,2,1,400.10000002384,0.0,2,object_06,1,410,0,7,0,desert_3,1,memory-2step-stake-s,528,1590900,0.0-19.0-0.0-0.39,A2MS1GQLGAX9FZ,3B623HUYK76FV1575X2NKKQMM9B8SL,3MMN5BL1W3KTISKQZLG76EFS8AZ3M7,2,1
40,2,object_04,object_01,-1.0,-1,-1,-1.0,0.0,-,0,1,410,0,7,0,forest_5,1,memory-2step-stake-s,529,1597446,0.0-19.0-0.0-0.40,A2MS1GQLGAX9FZ,3B623HUYK76FV1575X2NKKQMM9B8SL,3MMN5BL1W3KTISKQZLG76EFS8AZ3M7,3,4
41,1,object_05,object_09,747.90000003576,1,2,405.69999998808,0.3333333333333333,1,object_10,1,413,0,3,0,desert_4,1,memory-2step-stake-s,530,1605438,0.0-19.0-0.0-0.41,A2MS1GQLGAX9FZ,3B623HUYK76FV1575X2NKKQMM9B8SL,3MMN5BL1W3KTISKQZLG76EFS8AZ3M7,2,1
42,2,object_01,object_04,1101.7999999523,3,2,339.20000004768,0.4444444444444444,1,object_10,5,433,0,4,4,forest_1,1,memory-2step-stake-s,531,1613448,0.0-19.0-0.0-0.42,A2MS1GQLGAX9FZ,3B623HUYK76FV1575X2NKKQMM9B8SL,3MMN5BL1W3KTISKQZLG76EFS8AZ3M7,4,3
43,2,object_01,object_04,1021.8000000119,3,2,338.90000003576,0.2222222222222222,1,object_10,5,443,0,2,2,forest_1,1,memory-2step-stake-s,532,1621246,0.0-19.0-0.0-0.43,A2MS1GQLGAX9FZ,3B623HUYK76FV1575X2NKKQMM9B8SL,3MMN5BL1W3KTISKQZLG76EFS8AZ3M7,4,3
44,3,object_03,object_02,1067.6999999881,5,1,261.10000002384,0.3333333333333333,1,object_10,5,458,0,3,2,library_3,1,memory-2step-stake-s,533,1629082,0.0-19.0-0.0-0.44,A2MS1GQLGAX9FZ,3B623HUYK76FV1575X2NKKQMM9B8SL,3MMN5BL1W3KTISKQZLG76EFS8AZ3M7,5,6
45,2,object_04,object_01,1292.3999999762,3,1,343.90000003576,0.2222222222222222,1,object_10,1,460,0,2,3,forest_3,1,memory-2step-stake-s,534,1636918,0.0-19.0-0.0-0.45,A2MS1GQLGAX9FZ,3B623HUYK76FV1575X2NKKQMM9B8SL,3MMN5BL1W3KTISKQZLG76EFS8AZ3M7,3,4
46,3,object_03,object_02,1235.0999999642,5,1,358.30000001192,0.0,1,object_10,5,460,0,0,2,library_5,1,memory-2step-stake-s,535,1644553,0.0-19.0-0.0-0.46,A2MS1GQLGAX9FZ,3B623HUYK76FV1575X2NKKQMM9B8SL,3MMN5BL1W3KTISKQZLG76EFS8AZ3M7,5,6
47,4,object_08,object_07,1110.8000000119,7,1,339.70000004768,0.2222222222222222,1,object_10,5,470,0,2,0,restaurant_2,1,memory-2step-stake-s,536,1652372,0.0-19.0-0.0-0.47,A2MS1GQLGAX9FZ,3B623HUYK76FV1575X2NKKQMM9B8SL,3MMN5BL1W3KTISKQZLG76EFS8AZ3M7,7,8
48,4,object_08,object_07,978.0,7,1,202.60000002384,0.1111111111111111,1,object_10,1,471,0,1,0,restaurant_1,1,memory-2step-stake-s,537,1659975,0.0-19.0-0.0-0.48,A2MS1GQLGAX9FZ,3B623HUYK76FV1575X2NKKQMM9B8SL,3MMN5BL1W3KTISKQZLG76EFS8AZ3M7,7,8
49,2,object_01,object_04,1267.3999999762,4,1,296.39999997616,0.2222222222222222,2,object_06,5,481,0,1,2,forest_7,1,memory-2step-stake-s,538,1667740,0.0-19.0-0.0-0.49,A2MS1GQLGAX9FZ,3B623HUYK76FV1575X2NKKQMM9B8SL,3MMN5BL1W3KTISKQZLG76EFS8AZ3M7,4,3
50,1,object_09,object_05,1409.5,1,1,280.30000001192,0.1111111111111111,1,object_10,1,482,0,1,1,desert_7,1,memory-2step-stake-s,539,1675394,0.0-19.0-0.0-0.50,A2MS1GQLGAX9FZ,3B623HUYK76FV1575X2NKKQMM9B8SL,3MMN5BL1W3KTISKQZLG76EFS8AZ3M7,1,2
51,4,object_08,object_07,1328.1999999881,8,2,288.80000001192,0.1111111111111111,2,object_06,5,487,0,4,1,restaurant_3,1,memory-2step-stake-s,540,1683053,0.0-19.0-0.0-0.51,A2MS1GQLGAX9FZ,3B623HUYK76FV1575X2NKKQMM9B8SL,3MMN5BL1W3KTISKQZLG76EFS8AZ3M7,7,8
52,4,object_07,object_08,-1.0,-1,-1,-1.0,0.0,-,0,5,487,0,5,3,restaurant_4,1,memory-2step-stake-s,541,1689602,0.0-19.0-0.0-0.52,A2MS1GQLGAX9FZ,3B623HUYK76FV1575X2NKKQMM9B8SL,3MMN5BL1W3KTISKQZLG76EFS8AZ3M7,8,7
53,4,object_07,object_08,506.39999997616,7,2,511.0,0.5555555555555556,1,object_10,1,492,0,5,4,restaurant_1,1,memory-2step-stake-s,542,1697905,0.0-19.0-0.0-0.53,A2MS1GQLGAX9FZ,3B623HUYK76FV1575X2NKKQMM9B8SL,3MMN5BL1W3KTISKQZLG76EFS8AZ3M7,8,7
54,4,object_08,object_07,460.09999996424,7,1,335.10000002384,0.6666666666666666,1,object_10,1,498,0,6,4,restaurant_1,1,memory-2step-stake-s,543,1706124,0.0-19.0-0.0-0.54,A2MS1GQLGAX9FZ,3B623HUYK76FV1575X2NKKQMM9B8SL,3MMN5BL1W3KTISKQZLG76EFS8AZ3M7,7,8
55,1,object_09,object_05,978.60000002384,1,1,383.19999998808,0.6666666666666666,1,object_10,1,504,0,6,7,desert_4,1,memory-2step-stake-s,544,1714401,0.0-19.0-0.0-0.55,A2MS1GQLGAX9FZ,3B623HUYK76FV1575X2NKKQMM9B8SL,3MMN5BL1W3KTISKQZLG76EFS8AZ3M7,1,2
56,4,object_07,object_08,635.69999998808,7,2,255.89999997616,0.6666666666666666,1,object_10,5,534,0,6,8,restaurant_3,1,memory-2step-stake-s,545,1722521,0.0-19.0-0.0-0.56,A2MS1GQLGAX9FZ,3B623HUYK76FV1575X2NKKQMM9B8SL,3MMN5BL1W3KTISKQZLG76EFS8AZ3M7,8,7
57,3,object_03,object_02,754.79999995232,5,1,415.5,0.6666666666666666,1,object_10,5,564,0,6,9,library_7,1,memory-2step-stake-s,546,1730821,0.0-19.0-0.0-0.57,A2MS1GQLGAX9FZ,3B623HUYK76FV1575X2NKKQMM9B8SL,3MMN5BL1W3KTISKQZLG76EFS8AZ3M7,5,6
58,2,object_04,object_01,978.80000001192,3,1,495.30000001192,0.7777777777777778,1,object_10,1,571,0,7,9,forest_7,1,memory-2step-stake-s,547,1739332,0.0-19.0-0.0-0.58,A2MS1GQLGAX9FZ,3B623HUYK76FV1575X2NKKQMM9B8SL,3MMN5BL1W3KTISKQZLG76EFS8AZ3M7,3,4
59,2,object_04,object_01,1359.2999999523,3,1,347.10000002384,1.0,1,object_10,1,580,0,9,8,forest_3,1,memory-2step-stake-s,548,1747886,0.0-19.0-0.0-0.59,A2MS1GQLGAX9FZ,3B623HUYK76FV1575X2NKKQMM9B8SL,3MMN5BL1W3KTISKQZLG76EFS8AZ3M7,3,4
60,2,object_01,object_04,551.89999997616,3,2,247.0,1.0,1,object_10,1,589,0,9,5,forest_1,1,memory-2step-stake-s,549,1756334,0.0-19.0-0.0-0.60,A2MS1GQLGAX9FZ,3B623HUYK76FV1575X2NKKQMM9B8SL,3MMN5BL1W3KTISKQZLG76EFS8AZ3M7,4,3
61,2,object_04,object_01,711.09999996424,3,1,248.29999995232,0.6666666666666666,1,object_10,1,595,0,6,3,forest_7,1,memory-2step-stake-s,550,1764484,0.0-19.0-0.0-0.61,A2MS1GQLGAX9FZ,3B623HUYK76FV1575X2NKKQMM9B8SL,3MMN5BL1W3KTISKQZLG76EFS8AZ3M7,3,4
62,1,object_09,object_05,1023.3000000119,1,1,250.80000001192,0.6666666666666666,1,object_10,5,625,0,6,4,desert_4,1,memory-2step-stake-s,551,1772642,0.0-19.0-0.0-0.62,A2MS1GQLGAX9FZ,3B623HUYK76FV1575X2NKKQMM9B8SL,3MMN5BL1W3KTISKQZLG76EFS8AZ3M7,1,2
63,3,object_03,object_02,888.5,5,1,218.5,0.6666666666666666,1,object_10,5,655,0,6,8,library_3,1,memory-2step-stake-s,552,1780739,0.0-19.0-0.0-0.63,A2MS1GQLGAX9FZ,3B623HUYK76FV1575X2NKKQMM9B8SL,3MMN5BL1W3KTISKQZLG76EFS8AZ3M7,5,6
64,2,object_04,object_01,485.69999998808,3,1,291.80000001192,0.6666666666666666,1,object_10,1,661,0,6,9,forest_3,1,memory-2step-stake-s,553,1788903,0.0-19.0-0.0-0.64,A2MS1GQLGAX9FZ,3B623HUYK76FV1575X2NKKQMM9B8SL,3MMN5BL1W3KTISKQZLG76EFS8AZ3M7,3,4
65,1,object_05,object_09,687.90000003576,1,2,221.10000002384,0.7777777777777778,1,object_10,1,668,0,7,9,desert_7,1,memory-2step-stake-s,554,1797139,0.0-19.0-0.0-0.65,A2MS1GQLGAX9FZ,3B623HUYK76FV1575X2NKKQMM9B8SL,3MMN5BL1W3KTISKQZLG76EFS8AZ3M7,2,1
66,2,object_01,object_04,406.30000001192,3,2,325.80000001192,0.6666666666666666,1,object_10,1,674,0,6,5,forest_7,1,memory-2step-stake-s,555,1805395,0.0-19.0-0.0-0.66,A2MS1GQLGAX9FZ,3B623HUYK76FV1575X2NKKQMM9B8SL,3MMN5BL1W3KTISKQZLG76EFS8AZ3M7,4,3
67,1,object_09,object_05,616.40000003576,1,1,226.79999995232,0.5555555555555556,1,object_10,1,679,0,5,8,desert_4,1,memory-2step-stake-s,556,1813429,0.0-19.0-0.0-0.67,A2MS1GQLGAX9FZ,3B623HUYK76FV1575X2NKKQMM9B8SL,3MMN5BL1W3KTISKQZLG76EFS8AZ3M7,1,2
68,3,object_03,object_02,642.0,5,1,224.19999998808,0.8888888888888888,1,object_10,1,687,0,8,6,library_1,1,memory-2step-stake-s,557,1821748,0.0-19.0-0.0-0.68,A2MS1GQLGAX9FZ,3B623HUYK76FV1575X2NKKQMM9B8SL,3MMN5BL1W3KTISKQZLG76EFS8AZ3M7,5,6
69,4,object_08,object_07,927.69999998808,7,1,256.0,0.8888888888888888,1,object_10,1,695,0,8,8,restaurant_2,1,memory-2step-stake-s,558,1830101,0.0-19.0-0.0-0.69,A2MS1GQLGAX9FZ,3B623HUYK76FV1575X2NKKQMM9B8SL,3MMN5BL1W3KTISKQZLG76EFS8AZ3M7,7,8
70,2,object_01,object_04,871.79999995232,3,2,278.0,0.7777777777777778,1,object_10,5,730,0,7,8,forest_5,1,memory-2step-stake-s,559,1838380,0.0-19.0-0.0-0.70,A2MS1GQLGAX9FZ,3B623HUYK76FV1575X2NKKQMM9B8SL,3MMN5BL1W3KTISKQZLG76EFS8AZ3M7,4,3
71,4,object_08,object_07,730.30000001192,7,1,436.30000001192,0.6666666666666666,1,object_10,5,760,0,6,8,restaurant_4,1,memory-2step-stake-s,560,1846720,0.0-19.0-0.0-0.71,A2MS1GQLGAX9FZ,3B623HUYK76FV1575X2NKKQMM9B8SL,3MMN5BL1W3KTISKQZLG76EFS8AZ3M7,7,8
72,2,object_04,object_01,658.39999997616,3,1,375.40000003576,0.7777777777777778,1,object_10,1,767,0,7,7,forest_5,1,memory-2step-stake-s,561,1855119,0.0-19.0-0.0-0.72,A2MS1GQLGAX9FZ,3B623HUYK76FV1575X2NKKQMM9B8SL,3MMN5BL1W3KTISKQZLG76EFS8AZ3M7,3,4
73,1,object_09,object_05,576.19999998808,1,1,235.80000001192,0.8888888888888888,1,object_10,1,775,0,8,6,desert_3,1,memory-2step-stake-s,562,1863456,0.0-19.0-0.0-0.73,A2MS1GQLGAX9FZ,3B623HUYK76FV1575X2NKKQMM9B8SL,3MMN5BL1W3KTISKQZLG76EFS8AZ3M7,1,2
74,4,object_08,object_07,551.19999998808,7,1,230.5,1.0,1,object_10,5,820,0,9,3,restaurant_1,1,memory-2step-stake-s,563,1871901,0.0-19.0-0.0-0.74,A2MS1GQLGAX9FZ,3B623HUYK76FV1575X2NKKQMM9B8SL,3MMN5BL1W3KTISKQZLG76EFS8AZ3M7,7,8
75,4,object_08,object_07,498.39999997616,7,1,652.80000001192,0.8888888888888888,1,object_10,5,860,0,8,2,restaurant_3,1,memory-2step-stake-s,564,1880673,0.0-19.0-0.0-0.75,A2MS1GQLGAX9FZ,3B623HUYK76FV1575X2NKKQMM9B8SL,3MMN5BL1W3KTISKQZLG76EFS8AZ3M7,7,8
76,2,object_04,object_01,526.19999998808,3,1,484.29999995232,0.8888888888888888,1,object_10,5,900,0,8,1,forest_7,1,memory-2step-stake-s,565,1889261,0.0-19.0-0.0-0.76,A2MS1GQLGAX9FZ,3B623HUYK76FV1575X2NKKQMM9B8SL,3MMN5BL1W3KTISKQZLG76EFS8AZ3M7,3,4
77,3,object_03,object_02,598.89999997616,5,1,480.5,1.0,1,object_10,5,945,0,9,3,library_1,1,memory-2step-stake-s,566,1897961,0.0-19.0-0.0-0.77,A2MS1GQLGAX9FZ,3B623HUYK76FV1575X2NKKQMM9B8SL,3MMN5BL1W3KTISKQZLG76EFS8AZ3M7,5,6
78,1,object_09,object_05,676.90000003576,1,1,502.30000001192,0.6666666666666666,1,object_10,5,975,0,6,3,desert_4,1,memory-2step-stake-s,567,1906363,0.0-19.0-0.0-0.78,A2MS1GQLGAX9FZ,3B623HUYK76FV1575X2NKKQMM9B8SL,3MMN5BL1W3KTISKQZLG76EFS8AZ3M7,1,2
79,1,object_09,object_05,450.80000001192,1,1,308.29999995232,0.6666666666666666,1,object_10,1,981,0,6,3,desert_7,1,memory-2step-stake-s,568,1914584,0.0-19.0-0.0-0.79,A2MS1GQLGAX9FZ,3B623HUYK76FV1575X2NKKQMM9B8SL,3MMN5BL1W3KTISKQZLG76EFS8AZ3M7,1,2
80,3,object_02,object_03,1173.3999999762,5,2,273.59999996424,0.6666666666666666,1,object_10,1,987,0,6,2,library_7,1,memory-2step-stake-s,569,1924155,0.0-19.0-0.0-0.80,A2MS1GQLGAX9FZ,3B623HUYK76FV1575X2NKKQMM9B8SL,3MMN5BL1W3KTISKQZLG76EFS8AZ3M7,6,5
81,1,object_09,object_05,759.20000004768,1,1,218.60000002384,1.0,1,object_10,1,996,0,9,0,desert_3,1,memory-2step-stake-s,570,1933298,0.0-19.0-0.0-0.81,A2MS1GQLGAX9FZ,3B623HUYK76FV1575X2NKKQMM9B8SL,3MMN5BL1W3KTISKQZLG76EFS8AZ3M7,1,2
82,1,object_05,object_09,571.40000003576,1,2,340.5,1.0,1,object_10,1,1005,0,9,1,desert_1,1,memory-2step-stake-s,571,1942905,0.0-19.0-0.0-0.82,A2MS1GQLGAX9FZ,3B623HUYK76FV1575X2NKKQMM9B8SL,3MMN5BL1W3KTISKQZLG76EFS8AZ3M7,2,1
83,2,object_04,object_01,692.5,3,1,227.19999998808,0.7777777777777778,1,object_10,1,1012,0,7,0,forest_5,1,memory-2step-stake-s,572,1951111,0.0-19.0-0.0-0.83,A2MS1GQLGAX9FZ,3B623HUYK76FV1575X2NKKQMM9B8SL,3MMN5BL1W3KTISKQZLG76EFS8AZ3M7,3,4
84,1,object_09,object_05,1087.5,2,2,303.39999997616,0.3333333333333333,2,object_06,1,1015,0,7,3,desert_3,1,memory-2step-stake-s,573,1958990,0.0-19.0-0.0-0.84,A2MS1GQLGAX9FZ,3B623HUYK76FV1575X2NKKQMM9B8SL,3MMN5BL1W3KTISKQZLG76EFS8AZ3M7,1,2
85,1,object_05,object_09,980.29999995232,1,2,142.69999998808,0.4444444444444444,1,object_10,1,1019,0,4,5,desert_4,1,memory-2step-stake-s,574,1966822,0.0-19.0-0.0-0.85,A2MS1GQLGAX9FZ,3B623HUYK76FV1575X2NKKQMM9B8SL,3MMN5BL1W3KTISKQZLG76EFS8AZ3M7,2,1
86,2,object_04,object_01,698.40000003576,3,1,295.5,0.3333333333333333,1,object_10,1,1022,0,3,4,forest_7,1,memory-2step-stake-s,575,1974688,0.0-19.0-0.0-0.86,A2MS1GQLGAX9FZ,3B623HUYK76FV1575X2NKKQMM9B8SL,3MMN5BL1W3KTISKQZLG76EFS8AZ3M7,3,4
87,3,object_02,object_03,1295.1999999881,5,2,263.0,0.1111111111111111,1,object_10,5,1027,0,1,3,library_1,1,memory-2step-stake-s,576,1982335,0.0-19.0-0.0-0.87,A2MS1GQLGAX9FZ,3B623HUYK76FV1575X2NKKQMM9B8SL,3MMN5BL1W3KTISKQZLG76EFS8AZ3M7,6,5
88,1,object_09,object_05,1213.5,2,2,254.70000004768,0.5555555555555556,2,object_06,1,1032,0,3,5,desert_3,1,memory-2step-stake-s,577,1990365,0.0-19.0-0.0-0.88,A2MS1GQLGAX9FZ,3B623HUYK76FV1575X2NKKQMM9B8SL,3MMN5BL1W3KTISKQZLG76EFS8AZ3M7,1,2
89,3,object_02,object_03,642.19999998808,6,1,388.80000001192,0.7777777777777778,2,object_06,5,1067,0,4,7,library_5,1,memory-2step-stake-s,578,1998748,0.0-19.0-0.0-0.89,A2MS1GQLGAX9FZ,3B623HUYK76FV1575X2NKKQMM9B8SL,3MMN5BL1W3KTISKQZLG76EFS8AZ3M7,6,5
90,1,object_05,object_09,933.30000001192,2,1,395.69999998808,1.0,2,object_06,1,1076,0,7,9,desert_1,1,memory-2step-stake-s,579,2007367,0.0-19.0-0.0-0.90,A2MS1GQLGAX9FZ,3B623HUYK76FV1575X2NKKQMM9B8SL,3MMN5BL1W3KTISKQZLG76EFS8AZ3M7,2,1
91,2,object_01,object_04,1255.0,4,1,332.39999997616,0.7777777777777778,2,object_06,5,1111,0,9,7,forest_5,1,memory-2step-stake-s,580,2015691,0.0-19.0-0.0-0.91,A2MS1GQLGAX9FZ,3B623HUYK76FV1575X2NKKQMM9B8SL,3MMN5BL1W3KTISKQZLG76EFS8AZ3M7,4,3
92,4,object_07,object_08,-1.0,-1,-1,-1.0,0.0,-,0,5,1111,0,8,7,restaurant_2,1,memory-2step-stake-s,581,2022263,0.0-19.0-0.0-0.92,A2MS1GQLGAX9FZ,3B623HUYK76FV1575X2NKKQMM9B8SL,3MMN5BL1W3KTISKQZLG76EFS8AZ3M7,8,7
93,3,object_02,object_03,988.89999997616,6,1,421.19999998808,0.5555555555555556,2,object_06,5,1136,0,9,5,library_3,1,memory-2step-stake-s,582,2030480,0.0-19.0-0.0-0.93,A2MS1GQLGAX9FZ,3B623HUYK76FV1575X2NKKQMM9B8SL,3MMN5BL1W3KTISKQZLG76EFS8AZ3M7,6,5
94,2,object_04,object_01,1156.2999999523,4,2,284.80000001192,0.6666666666666666,2,object_06,5,1166,0,8,6,forest_3,1,memory-2step-stake-s,583,2038652,0.0-19.0-0.0-0.94,A2MS1GQLGAX9FZ,3B623HUYK76FV1575X2NKKQMM9B8SL,3MMN5BL1W3KTISKQZLG76EFS8AZ3M7,3,4
95,2,object_04,object_01,1160.1999999881,4,2,247.30000001192,0.8888888888888888,2,object_06,1,1174,0,7,8,forest_3,1,memory-2step-stake-s,584,2047012,0.0-19.0-0.0-0.95,A2MS1GQLGAX9FZ,3B623HUYK76FV1575X2NKKQMM9B8SL,3MMN5BL1W3KTISKQZLG76EFS8AZ3M7,3,4
96,1,object_09,object_05,1137.3999999762,2,2,456.89999997616,0.8888888888888888,2,object_06,5,1214,0,5,8,desert_1,1,memory-2step-stake-s,585,2055573,0.0-19.0-0.0-0.96,A2MS1GQLGAX9FZ,3B623HUYK76FV1575X2NKKQMM9B8SL,3MMN5BL1W3KTISKQZLG76EFS8AZ3M7,1,2
97,2,object_01,object_04,1368.5999999642,4,1,553.5,0.8888888888888888,2,object_06,1,1222,0,7,8,forest_5,1,memory-2step-stake-s,586,2064225,0.0-19.0-0.0-0.97,A2MS1GQLGAX9FZ,3B623HUYK76FV1575X2NKKQMM9B8SL,3MMN5BL1W3KTISKQZLG76EFS8AZ3M7,4,3
98,2,object_04,object_01,1032.7999999523,4,2,269.5,0.8888888888888888,2,object_06,5,1262,0,7,8,forest_3,1,memory-2step-stake-s,587,2072602,0.0-19.0-0.0-0.98,A2MS1GQLGAX9FZ,3B623HUYK76FV1575X2NKKQMM9B8SL,3MMN5BL1W3KTISKQZLG76EFS8AZ3M7,3,4
99,4,object_07,object_08,1130.1000000238,8,1,290.80000001192,0.5555555555555556,2,object_06,5,1287,0,6,5,restaurant_3,1,memory-2step-stake-s,588,2080660,0.0-19.0-0.0-0.99,A2MS1GQLGAX9FZ,3B623HUYK76FV1575X2NKKQMM9B8SL,3MMN5BL1W3KTISKQZLG76EFS8AZ3M7,8,7
100,2,object_01,object_04,1165.6999999881,4,1,301.39999997616,0.5555555555555556,2,object_06,1,1292,0,8,5,forest_5,1,memory-2step-stake-s,589,2088751,0.0-19.0-0.0-0.100,A2MS1GQLGAX9FZ,3B623HUYK76FV1575X2NKKQMM9B8SL,3MMN5BL1W3KTISKQZLG76EFS8AZ3M7,4,3
101,1,object_05,object_09,743.59999996424,2,1,177.80000001192,0.2222222222222222,2,object_06,1,1294,0,8,2,desert_1,1,memory-2step-stake-s,590,2096417,0.0-19.0-0.0-0.101,A2MS1GQLGAX9FZ,3B623HUYK76FV1575X2NKKQMM9B8SL,3MMN5BL1W3KTISKQZLG76EFS8AZ3M7,2,1
102,4,object_08,object_07,-1.0,-1,-1,-1.0,0.0,-,0,5,1294,0,8,2,restaurant_4,1,memory-2step-stake-s,591,2102976,0.0-19.0-0.0-0.102,A2MS1GQLGAX9FZ,3B623HUYK76FV1575X2NKKQMM9B8SL,3MMN5BL1W3KTISKQZLG76EFS8AZ3M7,7,8
103,4,object_07,object_08,1116.8000000119,8,1,334.60000002384,0.4444444444444444,2,object_06,5,1314,0,9,4,restaurant_1,1,memory-2step-stake-s,592,2110996,0.0-19.0-0.0-0.103,A2MS1GQLGAX9FZ,3B623HUYK76FV1575X2NKKQMM9B8SL,3MMN5BL1W3KTISKQZLG76EFS8AZ3M7,8,7
104,1,object_09,object_05,1170.1999999881,1,1,313.60000002384,0.8888888888888888,1,object_10,1,1322,0,8,5,desert_4,1,memory-2step-stake-s,593,2119412,0.0-19.0-0.0-0.104,A2MS1GQLGAX9FZ,3B623HUYK76FV1575X2NKKQMM9B8SL,3MMN5BL1W3KTISKQZLG76EFS8AZ3M7,1,2
105,2,object_04,object_01,900.29999995232,4,2,287.19999998808,0.7777777777777778,2,object_06,1,1329,0,8,7,forest_5,1,memory-2step-stake-s,594,2127706,0.0-19.0-0.0-0.105,A2MS1GQLGAX9FZ,3B623HUYK76FV1575X2NKKQMM9B8SL,3MMN5BL1W3KTISKQZLG76EFS8AZ3M7,3,4
106,4,object_08,object_07,944.19999998808,8,2,249.0,0.6666666666666666,2,object_06,5,1359,0,6,6,restaurant_4,1,memory-2step-stake-s,595,2135833,0.0-19.0-0.0-0.106,A2MS1GQLGAX9FZ,3B623HUYK76FV1575X2NKKQMM9B8SL,3MMN5BL1W3KTISKQZLG76EFS8AZ3M7,7,8
107,2,object_01,object_04,989.0,4,1,243.19999998808,0.6666666666666666,2,object_06,5,1389,0,7,6,forest_1,1,memory-2step-stake-s,596,2143954,0.0-19.0-0.0-0.107,A2MS1GQLGAX9FZ,3B623HUYK76FV1575X2NKKQMM9B8SL,3MMN5BL1W3KTISKQZLG76EFS8AZ3M7,4,3
108,3,object_03,object_02,1058.1999999881,6,2,255.39999997616,0.7777777777777778,2,object_06,5,1424,0,6,7,library_1,1,memory-2step-stake-s,597,2152223,0.0-19.0-0.0-0.108,A2MS1GQLGAX9FZ,3B623HUYK76FV1575X2NKKQMM9B8SL,3MMN5BL1W3KTISKQZLG76EFS8AZ3M7,5,6
109,4,object_07,object_08,904.0,8,1,258.89999997616,0.6666666666666666,2,object_06,5,1454,0,4,6,restaurant_4,1,memory-2step-stake-s,598,2160378,0.0-19.0-0.0-0.109,A2MS1GQLGAX9FZ,3B623HUYK76FV1575X2NKKQMM9B8SL,3MMN5BL1W3KTISKQZLG76EFS8AZ3M7,8,7
110,3,object_02,object_03,979.30000001192,6,1,289.59999996424,0.8888888888888888,2,object_06,1,1462,0,6,8,library_1,1,memory-2step-stake-s,599,2168808,0.0-19.0-0.0-0.110,A2MS1GQLGAX9FZ,3B623HUYK76FV1575X2NKKQMM9B8SL,3MMN5BL1W3KTISKQZLG76EFS8AZ3M7,6,5
111,3,object_03,object_02,668.80000001192,6,2,321.39999997616,1.0,2,object_06,5,1507,0,7,9,library_5,1,memory-2step-stake-s,600,2177336,0.0-19.0-0.0-0.111,A2MS1GQLGAX9FZ,3B623HUYK76FV1575X2NKKQMM9B8SL,3MMN5BL1W3KTISKQZLG76EFS8AZ3M7,5,6
112,4,object_07,object_08,782.0,8,1,334.30000001192,0.8888888888888888,2,object_06,5,1547,0,8,8,restaurant_2,1,memory-2step-stake-s,601,2185801,0.0-19.0-0.0-0.112,A2MS1GQLGAX9FZ,3B623HUYK76FV1575X2NKKQMM9B8SL,3MMN5BL1W3KTISKQZLG76EFS8AZ3M7,8,7
113,3,object_03,object_02,712.0,6,2,568.39999997616,0.8888888888888888,2,object_06,1,1555,0,5,8,library_1,1,memory-2step-stake-s,602,2194457,0.0-19.0-0.0-0.113,A2MS1GQLGAX9FZ,3B623HUYK76FV1575X2NKKQMM9B8SL,3MMN5BL1W3KTISKQZLG76EFS8AZ3M7,5,6
114,2,object_04,object_01,1046.4000000358,4,2,320.19999998808,0.8888888888888888,2,object_06,1,1563,0,4,8,forest_7,1,memory-2step-stake-s,603,2202874,0.0-19.0-0.0-0.114,A2MS1GQLGAX9FZ,3B623HUYK76FV1575X2NKKQMM9B8SL,3MMN5BL1W3KTISKQZLG76EFS8AZ3M7,3,4
115,4,object_08,object_07,712.90000003576,8,2,272.19999998808,0.7777777777777778,2,object_06,5,1598,0,5,7,restaurant_3,1,memory-2step-stake-s,604,2211137,0.0-19.0-0.0-0.115,A2MS1GQLGAX9FZ,3B623HUYK76FV1575X2NKKQMM9B8SL,3MMN5BL1W3KTISKQZLG76EFS8AZ3M7,7,8
116,1,object_09,object_05,900.80000001192,1,1,263.30000001192,0.6666666666666666,1,object_10,5,1628,0,6,9,desert_1,1,memory-2step-stake-s,605,2219302,0.0-19.0-0.0-0.116,A2MS1GQLGAX9FZ,3B623HUYK76FV1575X2NKKQMM9B8SL,3MMN5BL1W3KTISKQZLG76EFS8AZ3M7,1,2
117,3,object_03,object_02,755.39999997616,6,2,613.40000003576,0.7777777777777778,2,object_06,5,1663,0,7,7,library_3,1,memory-2step-stake-s,606,2227923,0.0-19.0-0.0-0.117,A2MS1GQLGAX9FZ,3B623HUYK76FV1575X2NKKQMM9B8SL,3MMN5BL1W3KTISKQZLG76EFS8AZ3M7,5,6
118,3,object_03,object_02,589.09999996424,6,2,274.20000004768,1.0,2,object_06,5,1708,0,5,9,library_3,1,memory-2step-stake-s,607,2236392,0.0-19.0-0.0-0.118,A2MS1GQLGAX9FZ,3B623HUYK76FV1575X2NKKQMM9B8SL,3MMN5BL1W3KTISKQZLG76EFS8AZ3M7,5,6
119,2,object_01,object_04,792.60000002384,4,1,268.59999996424,1.0,2,object_06,1,1717,0,2,9,forest_7,1,memory-2step-stake-s,608,2244877,0.0-19.0-0.0-0.119,A2MS1GQLGAX9FZ,3B623HUYK76FV1575X2NKKQMM9B8SL,3MMN5BL1W3KTISKQZLG76EFS8AZ3M7,4,3
120,2,object_04,object_01,994.60000002384,4,2,288.09999996424,0.8888888888888888,2,object_06,5,1757,0,5,8,forest_3,1,memory-2step-stake-s,609,2253238,0.0-19.0-0.0-0.120,A2MS1GQLGAX9FZ,3B623HUYK76FV1575X2NKKQMM9B8SL,3MMN5BL1W3KTISKQZLG76EFS8AZ3M7,3,4
121,1,object_05,object_09,861.30000001192,1,2,291.69999998808,0.4444444444444444,1,object_10,1,1761,0,4,8,desert_3,1,memory-2step-stake-s,610,2261219,0.0-19.0-0.0-0.121,A2MS1GQLGAX9FZ,3B623HUYK76FV1575X2NKKQMM9B8SL,3MMN5BL1W3KTISKQZLG76EFS8AZ3M7,2,1
122,4,object_07,object_08,1070.6000000238,8,1,401.5,0.6666666666666666,2,object_06,5,1791,0,2,6,restaurant_1,1,memory-2step-stake-s,611,2269558,0.0-19.0-0.0-0.122,A2MS1GQLGAX9FZ,3B623HUYK76FV1575X2NKKQMM9B8SL,3MMN5BL1W3KTISKQZLG76EFS8AZ3M7,8,7
123,2,object_01,object_04,696.29999995232,4,1,275.5,0.4444444444444444,2,object_06,1,1795,0,5,4,forest_5,1,memory-2step-stake-s,612,2277503,0.0-19.0-0.0-0.123,A2MS1GQLGAX9FZ,3B623HUYK76FV1575X2NKKQMM9B8SL,3MMN5BL1W3KTISKQZLG76EFS8AZ3M7,4,3
124,1,object_09,object_05,978.0,2,2,128.5,0.7777777777777778,2,object_06,1,1802,0,3,7,desert_1,1,memory-2step-stake-s,613,2285657,0.0-19.0-0.0-0.124,A2MS1GQLGAX9FZ,3B623HUYK76FV1575X2NKKQMM9B8SL,3MMN5BL1W3KTISKQZLG76EFS8AZ3M7,1,2
125,4,object_07,object_08,1043.3000000119,7,2,283.09999996424,0.6666666666666666,1,object_10,5,1832,0,6,3,restaurant_3,1,memory-2step-stake-s,614,2293840,0.0-19.0-0.0-0.125,A2MS1GQLGAX9FZ,3B623HUYK76FV1575X2NKKQMM9B8SL,3MMN5BL1W3KTISKQZLG76EFS8AZ3M7,8,7
126,3,object_02,object_03,1022.9000000358,5,2,287.19999998808,1.0,1,object_10,5,1877,0,9,4,library_3,1,memory-2step-stake-s,615,2302317,0.0-19.0-0.0-0.126,A2MS1GQLGAX9FZ,3B623HUYK76FV1575X2NKKQMM9B8SL,3MMN5BL1W3KTISKQZLG76EFS8AZ3M7,6,5
127,1,object_09,object_05,894.89999997616,2,2,278.40000003576,0.4444444444444444,2,object_06,1,1881,0,9,4,desert_7,1,memory-2step-stake-s,616,2310282,0.0-19.0-0.0-0.127,A2MS1GQLGAX9FZ,3B623HUYK76FV1575X2NKKQMM9B8SL,3MMN5BL1W3KTISKQZLG76EFS8AZ3M7,1,2
128,4,object_08,object_07,849.29999995232,8,2,327.0,0.1111111111111111,2,object_06,1,1882,0,7,1,restaurant_2,1,memory-2step-stake-s,618,2362376,0.0-19.0-0.1-0.128,A2MS1GQLGAX9FZ,3B623HUYK76FV1575X2NKKQMM9B8SL,3MMN5BL1W3KTISKQZLG76EFS8AZ3M7,7,8
129,3,object_02,object_03,975.39999997616,6,1,275.0,0.1111111111111111,2,object_06,1,1883,0,7,1,library_7,1,memory-2step-stake-s,619,2370008,0.0-19.0-0.1-0.129,A2MS1GQLGAX9FZ,3B623HUYK76FV1575X2NKKQMM9B8SL,3MMN5BL1W3KTISKQZLG76EFS8AZ3M7,6,5
130,3,object_03,object_02,1305.5,5,1,328.80000001192,0.8888888888888888,1,object_10,5,1923,0,8,4,library_1,1,memory-2step-stake-s,620,2378458,0.0-19.0-0.1-0.130,A2MS1GQLGAX9FZ,3B623HUYK76FV1575X2NKKQMM9B8SL,3MMN5BL1W3KTISKQZLG76EFS8AZ3M7,5,6
131,3,object_02,object_03,763.89999997616,5,2,282.0,1.0,1,object_10,5,1968,0,9,8,library_5,1,memory-2step-stake-s,621,2386965,0.0-19.0-0.1-0.131,A2MS1GQLGAX9FZ,3B623HUYK76FV1575X2NKKQMM9B8SL,3MMN5BL1W3KTISKQZLG76EFS8AZ3M7,6,5
132,4,object_08,object_07,1426.9000000358,7,1,551.90000003576,0.8888888888888888,1,object_10,5,2008,0,8,6,restaurant_3,1,memory-2step-stake-s,622,2395625,0.0-19.0-0.1-0.132,A2MS1GQLGAX9FZ,3B623HUYK76FV1575X2NKKQMM9B8SL,3MMN5BL1W3KTISKQZLG76EFS8AZ3M7,7,8
133,2,object_01,object_04,1359.0999999642,3,2,355.5,0.8888888888888888,1,object_10,5,2048,0,8,9,forest_3,1,memory-2step-stake-s,623,2404096,0.0-19.0-0.1-0.133,A2MS1GQLGAX9FZ,3B623HUYK76FV1575X2NKKQMM9B8SL,3MMN5BL1W3KTISKQZLG76EFS8AZ3M7,4,3
134,2,object_01,object_04,750.5,3,2,341.69999998808,0.6666666666666666,1,object_10,1,2054,0,6,8,forest_3,1,memory-2step-stake-s,624,2412349,0.0-19.0-0.1-0.134,A2MS1GQLGAX9FZ,3B623HUYK76FV1575X2NKKQMM9B8SL,3MMN5BL1W3KTISKQZLG76EFS8AZ3M7,4,3
135,4,object_08,object_07,1335.5999999642,7,1,393.90000003576,0.6666666666666666,1,object_10,5,2084,0,6,9,restaurant_4,1,memory-2step-stake-s,625,2420655,0.0-19.0-0.1-0.135,A2MS1GQLGAX9FZ,3B623HUYK76FV1575X2NKKQMM9B8SL,3MMN5BL1W3KTISKQZLG76EFS8AZ3M7,7,8
136,4,object_08,object_07,496.5,7,1,350.70000004768,0.4444444444444444,1,object_10,5,2104,0,4,6,restaurant_4,1,memory-2step-stake-s,626,2428674,0.0-19.0-0.1-0.136,A2MS1GQLGAX9FZ,3B623HUYK76FV1575X2NKKQMM9B8SL,3MMN5BL1W3KTISKQZLG76EFS8AZ3M7,7,8
137,3,object_03,object_02,1075.6999999881,5,1,252.69999998808,0.6666666666666666,1,object_10,1,2110,0,6,7,library_3,1,memory-2step-stake-s,627,2436817,0.0-19.0-0.1-0.137,A2MS1GQLGAX9FZ,3B623HUYK76FV1575X2NKKQMM9B8SL,3MMN5BL1W3KTISKQZLG76EFS8AZ3M7,5,6
138,3,object_02,object_03,955.60000002384,5,2,247.80000001192,0.5555555555555556,1,object_10,5,2135,0,5,6,library_5,1,memory-2step-stake-s,628,2444871,0.0-19.0-0.1-0.138,A2MS1GQLGAX9FZ,3B623HUYK76FV1575X2NKKQMM9B8SL,3MMN5BL1W3KTISKQZLG76EFS8AZ3M7,6,5
139,3,object_02,object_03,709.20000004768,6,1,368.89999997616,0.6666666666666666,2,object_06,5,2165,0,6,6,library_5,1,memory-2step-stake-s,629,2453142,0.0-19.0-0.1-0.139,A2MS1GQLGAX9FZ,3B623HUYK76FV1575X2NKKQMM9B8SL,3MMN5BL1W3KTISKQZLG76EFS8AZ3M7,6,5
140,3,object_03,object_02,821.90000003576,6,2,261.40000003576,0.7777777777777778,2,object_06,5,2200,0,9,7,library_3,1,memory-2step-stake-s,630,2461386,0.0-19.0-0.1-0.140,A2MS1GQLGAX9FZ,3B623HUYK76FV1575X2NKKQMM9B8SL,3MMN5BL1W3KTISKQZLG76EFS8AZ3M7,5,6
141,1,object_05,object_09,1091.6000000238,1,2,216.79999995232,0.7777777777777778,1,object_10,1,2207,0,7,8,desert_4,1,memory-2step-stake-s,631,2469618,0.0-19.0-0.1-0.141,A2MS1GQLGAX9FZ,3B623HUYK76FV1575X2NKKQMM9B8SL,3MMN5BL1W3KTISKQZLG76EFS8AZ3M7,2,1
142,2,object_01,object_04,999.80000001192,3,2,218.59999996424,1.0,1,object_10,1,2216,0,9,4,forest_3,1,memory-2step-stake-s,632,2478067,0.0-19.0-0.1-0.142,A2MS1GQLGAX9FZ,3B623HUYK76FV1575X2NKKQMM9B8SL,3MMN5BL1W3KTISKQZLG76EFS8AZ3M7,4,3
143,4,object_07,object_08,1239.6999999881,7,2,311.39999997616,0.8888888888888888,1,object_10,5,2256,0,8,3,restaurant_1,1,memory-2step-stake-s,633,2486500,0.0-19.0-0.1-0.143,A2MS1GQLGAX9FZ,3B623HUYK76FV1575X2NKKQMM9B8SL,3MMN5BL1W3KTISKQZLG76EFS8AZ3M7,8,7
144,4,object_07,object_08,728.90000003576,7,2,262.59999996424,1.0,1,object_10,5,2301,0,9,3,restaurant_1,1,memory-2step-stake-s,634,2494969,0.0-19.0-0.1-0.144,A2MS1GQLGAX9FZ,3B623HUYK76FV1575X2NKKQMM9B8SL,3MMN5BL1W3KTISKQZLG76EFS8AZ3M7,8,7
145,1,object_09,object_05,753.69999998808,1,1,626.10000002384,0.8888888888888888,1,object_10,1,2309,0,8,2,desert_1,1,memory-2step-stake-s,635,2503713,0.0-19.0-0.1-0.145,A2MS1GQLGAX9FZ,3B623HUYK76FV1575X2NKKQMM9B8SL,3MMN5BL1W3KTISKQZLG76EFS8AZ3M7,1,2
146,3,object_03,object_02,1096.1999999881,5,1,253.90000003576,1.0,1,object_10,5,2354,0,9,3,library_3,1,memory-2step-stake-s,636,2512197,0.0-19.0-0.1-0.146,A2MS1GQLGAX9FZ,3B623HUYK76FV1575X2NKKQMM9B8SL,3MMN5BL1W3KTISKQZLG76EFS8AZ3M7,5,6
147,4,object_07,object_08,1158.6999999881,7,2,267.19999998808,0.6666666666666666,1,object_10,5,2384,0,6,7,restaurant_3,1,memory-2step-stake-s,637,2520380,0.0-19.0-0.1-0.147,A2MS1GQLGAX9FZ,3B623HUYK76FV1575X2NKKQMM9B8SL,3MMN5BL1W3KTISKQZLG76EFS8AZ3M7,8,7
148,2,object_04,object_01,1353.6999999881,3,1,264.20000004768,0.3333333333333333,1,object_10,1,2387,0,3,6,forest_7,1,memory-2step-stake-s,638,2528241,0.0-19.0-0.1-0.148,A2MS1GQLGAX9FZ,3B623HUYK76FV1575X2NKKQMM9B8SL,3MMN5BL1W3KTISKQZLG76EFS8AZ3M7,3,4
149,3,object_03,object_02,1267.4000000358,6,2,266.30000001192,0.4444444444444444,2,object_06,5,2407,0,4,4,library_3,1,memory-2step-stake-s,639,2536221,0.0-19.0-0.1-0.149,A2MS1GQLGAX9FZ,3B623HUYK76FV1575X2NKKQMM9B8SL,3MMN5BL1W3KTISKQZLG76EFS8AZ3M7,5,6
150,4,object_08,object_07,959.59999996424,8,2,189.69999998808,0.5555555555555556,2,object_06,1,2412,0,5,5,restaurant_1,1,memory-2step-stake-s,640,2544201,0.0-19.0-0.1-0.150,A2MS1GQLGAX9FZ,3B623HUYK76FV1575X2NKKQMM9B8SL,3MMN5BL1W3KTISKQZLG76EFS8AZ3M7,7,8
151,1,object_05,object_09,1217.3000000119,2,1,289.30000001192,0.2222222222222222,2,object_06,1,2414,0,5,2,desert_1,1,memory-2step-stake-s,641,2551964,0.0-19.0-0.1-0.151,A2MS1GQLGAX9FZ,3B623HUYK76FV1575X2NKKQMM9B8SL,3MMN5BL1W3KTISKQZLG76EFS8AZ3M7,2,1
152,4,object_07,object_08,1254.1999999881,8,1,315.39999997616,0.2222222222222222,2,object_06,5,2424,0,6,2,restaurant_2,1,memory-2step-stake-s,642,2559780,0.0-19.0-0.1-0.152,A2MS1GQLGAX9FZ,3B623HUYK76FV1575X2NKKQMM9B8SL,3MMN5BL1W3KTISKQZLG76EFS8AZ3M7,8,7
153,4,object_08,object_07,689.0,8,2,168.19999998808,0.2222222222222222,2,object_06,5,2434,0,6,2,restaurant_1,1,memory-2step-stake-s,643,2567450,0.0-19.0-0.1-0.153,A2MS1GQLGAX9FZ,3B623HUYK76FV1575X2NKKQMM9B8SL,3MMN5BL1W3KTISKQZLG76EFS8AZ3M7,7,8
154,3,object_02,object_03,987.0,6,1,265.19999998808,0.1111111111111111,2,object_06,1,2435,0,6,1,library_7,1,memory-2step-stake-s,644,2575083,0.0-19.0-0.1-0.154,A2MS1GQLGAX9FZ,3B623HUYK76FV1575X2NKKQMM9B8SL,3MMN5BL1W3KTISKQZLG76EFS8AZ3M7,6,5
155,4,object_07,object_08,1139.7000000477,8,1,310.29999995232,0.0,2,object_06,5,2435,0,6,0,restaurant_1,1,memory-2step-stake-s,645,2582665,0.0-19.0-0.1-0.155,A2MS1GQLGAX9FZ,3B623HUYK76FV1575X2NKKQMM9B8SL,3MMN5BL1W3KTISKQZLG76EFS8AZ3M7,8,7
156,4,object_08,object_07,777.60000002384,8,2,220.39999997616,0.1111111111111111,2,object_06,1,2436,0,9,1,restaurant_3,1,memory-2step-stake-s,646,2590247,0.0-19.0-0.1-0.156,A2MS1GQLGAX9FZ,3B623HUYK76FV1575X2NKKQMM9B8SL,3MMN5BL1W3KTISKQZLG76EFS8AZ3M7,7,8
157,3,object_02,object_03,932.5,5,2,284.10000002384,1.0,1,object_10,5,2481,0,9,0,library_1,1,memory-2step-stake-s,647,2598723,0.0-19.0-0.1-0.157,A2MS1GQLGAX9FZ,3B623HUYK76FV1575X2NKKQMM9B8SL,3MMN5BL1W3KTISKQZLG76EFS8AZ3M7,6,5
158,4,object_07,object_08,1178.4000000358,8,1,-1.0,0.0,2,object_06,5,2481,0,7,1,restaurant_4,1,memory-2step-stake-s,648,2607282,0.0-19.0-0.1-0.158,A2MS1GQLGAX9FZ,3B623HUYK76FV1575X2NKKQMM9B8SL,3MMN5BL1W3KTISKQZLG76EFS8AZ3M7,8,7
159,4,object_08,object_07,686.60000002384,8,2,335.60000002384,0.0,2,object_06,5,2481,0,7,0,restaurant_2,1,memory-2step-stake-s,649,2614868,0.0-19.0-0.1-0.159,A2MS1GQLGAX9FZ,3B623HUYK76FV1575X2NKKQMM9B8SL,3MMN5BL1W3KTISKQZLG76EFS8AZ3M7,7,8
160,1,object_09,object_05,1017.5,2,2,287.69999998808,0.1111111111111111,2,object_06,1,2482,0,6,1,desert_3,1,memory-2step-stake-s,650,2622527,0.0-19.0-0.1-0.160,A2MS1GQLGAX9FZ,3B623HUYK76FV1575X2NKKQMM9B8SL,3MMN5BL1W3KTISKQZLG76EFS8AZ3M7,1,2
161,4,object_07,object_08,652.90000003576,8,1,285.90000003576,0.3333333333333333,2,object_06,5,2497,0,6,3,restaurant_2,1,memory-2step-stake-s,651,2630382,0.0-19.0-0.1-0.161,A2MS1GQLGAX9FZ,3B623HUYK76FV1575X2NKKQMM9B8SL,3MMN5BL1W3KTISKQZLG76EFS8AZ3M7,8,7
162,4,object_08,object_07,1076.6999999881,7,1,357.5,0.3333333333333333,1,object_10,5,2512,0,3,1,restaurant_1,1,memory-2step-stake-s,652,2638334,0.0-19.0-0.1-0.162,A2MS1GQLGAX9FZ,3B623HUYK76FV1575X2NKKQMM9B8SL,3MMN5BL1W3KTISKQZLG76EFS8AZ3M7,7,8
163,2,object_01,object_04,979.5,4,1,385.39999997616,0.1111111111111111,2,object_06,1,2513,0,2,1,forest_1,1,memory-2step-stake-s,653,2646102,0.0-19.0-0.1-0.163,A2MS1GQLGAX9FZ,3B623HUYK76FV1575X2NKKQMM9B8SL,3MMN5BL1W3KTISKQZLG76EFS8AZ3M7,4,3
164,1,object_09,object_05,1255.0,1,1,358.60000002384,0.2222222222222222,1,object_10,1,2515,0,2,3,desert_3,1,memory-2step-stake-s,654,2653973,0.0-19.0-0.1-0.164,A2MS1GQLGAX9FZ,3B623HUYK76FV1575X2NKKQMM9B8SL,3MMN5BL1W3KTISKQZLG76EFS8AZ3M7,1,2
165,2,object_01,object_04,749.89999997616,3,2,119.89999997616,0.1111111111111111,1,object_10,1,2516,0,1,4,forest_1,1,memory-2step-stake-s,655,2661487,0.0-19.0-0.1-0.165,A2MS1GQLGAX9FZ,3B623HUYK76FV1575X2NKKQMM9B8SL,3MMN5BL1W3KTISKQZLG76EFS8AZ3M7,4,3
166,4,object_08,object_07,809.89999997616,7,1,315.19999998808,0.2222222222222222,1,object_10,1,2518,0,2,4,restaurant_1,1,memory-2step-stake-s,656,2669274,0.0-19.0-0.1-0.166,A2MS1GQLGAX9FZ,3B623HUYK76FV1575X2NKKQMM9B8SL,3MMN5BL1W3KTISKQZLG76EFS8AZ3M7,7,8
167,1,object_09,object_05,1177.9000000358,1,1,307.80000001192,0.1111111111111111,1,object_10,1,2519,0,1,2,desert_4,1,memory-2step-stake-s,657,2676978,0.0-19.0-0.1-0.167,A2MS1GQLGAX9FZ,3B623HUYK76FV1575X2NKKQMM9B8SL,3MMN5BL1W3KTISKQZLG76EFS8AZ3M7,1,2
168,1,object_05,object_09,1339.0,2,1,358.39999997616,0.3333333333333333,2,object_06,1,2522,0,1,3,desert_7,1,memory-2step-stake-s,658,2684917,0.0-19.0-0.1-0.168,A2MS1GQLGAX9FZ,3B623HUYK76FV1575X2NKKQMM9B8SL,3MMN5BL1W3KTISKQZLG76EFS8AZ3M7,2,1
169,2,object_04,object_01,998.0,4,2,274.69999998808,0.3333333333333333,2,object_06,1,2525,0,0,3,forest_1,1,memory-2step-stake-s,659,2692753,0.0-19.0-0.1-0.169,A2MS1GQLGAX9FZ,3B623HUYK76FV1575X2NKKQMM9B8SL,3MMN5BL1W3KTISKQZLG76EFS8AZ3M7,3,4
170,2,object_04,object_01,1397.3000000119,4,2,319.5,0.4444444444444444,2,object_06,5,2545,0,4,4,forest_5,1,memory-2step-stake-s,660,2700745,0.0-19.0-0.1-0.170,A2MS1GQLGAX9FZ,3B623HUYK76FV1575X2NKKQMM9B8SL,3MMN5BL1W3KTISKQZLG76EFS8AZ3M7,3,4
171,4,object_07,object_08,1299.6999999881,8,1,316.89999997616,0.1111111111111111,2,object_06,5,2550,0,8,1,restaurant_2,1,memory-2step-stake-s,661,2708419,0.0-19.0-0.1-0.171,A2MS1GQLGAX9FZ,3B623HUYK76FV1575X2NKKQMM9B8SL,3MMN5BL1W3KTISKQZLG76EFS8AZ3M7,8,7
172,3,object_03,object_02,1118.8000000119,5,1,336.20000004768,0.7777777777777778,1,object_10,1,2557,0,7,2,library_7,1,memory-2step-stake-s,662,2716796,0.0-19.0-0.1-0.172,A2MS1GQLGAX9FZ,3B623HUYK76FV1575X2NKKQMM9B8SL,3MMN5BL1W3KTISKQZLG76EFS8AZ3M7,5,6
173,1,object_09,object_05,603.10000002384,2,2,219.39999997616,0.3333333333333333,2,object_06,1,2560,0,6,3,desert_3,1,memory-2step-stake-s,663,2724592,0.0-19.0-0.1-0.173,A2MS1GQLGAX9FZ,3B623HUYK76FV1575X2NKKQMM9B8SL,3MMN5BL1W3KTISKQZLG76EFS8AZ3M7,1,2
174,2,object_04,object_01,731.80000001192,3,1,-1.0,0.0,1,object_10,1,2560,0,8,4,forest_3,1,memory-2step-stake-s,664,2733170,0.0-19.0-0.1-0.174,A2MS1GQLGAX9FZ,3B623HUYK76FV1575X2NKKQMM9B8SL,3MMN5BL1W3KTISKQZLG76EFS8AZ3M7,3,4
175,2,object_04,object_01,839.60000002384,4,2,657.89999997616,0.3333333333333333,2,object_06,1,2563,0,6,3,forest_1,1,memory-2step-stake-s,665,2741418,0.0-19.0-0.1-0.175,A2MS1GQLGAX9FZ,3B623HUYK76FV1575X2NKKQMM9B8SL,3MMN5BL1W3KTISKQZLG76EFS8AZ3M7,3,4
176,1,object_09,object_05,880.0,1,1,274.5,0.4444444444444444,1,object_10,1,2567,0,4,2,desert_3,1,memory-2step-stake-s,666,2749426,0.0-19.0-0.1-0.176,A2MS1GQLGAX9FZ,3B623HUYK76FV1575X2NKKQMM9B8SL,3MMN5BL1W3KTISKQZLG76EFS8AZ3M7,1,2
177,2,object_01,object_04,676.89999997616,4,1,238.60000002384,0.5555555555555556,2,object_06,1,2572,0,0,5,forest_1,1,memory-2step-stake-s,667,2757480,0.0-19.0-0.1-0.177,A2MS1GQLGAX9FZ,3B623HUYK76FV1575X2NKKQMM9B8SL,3MMN5BL1W3KTISKQZLG76EFS8AZ3M7,4,3
178,1,object_09,object_05,895.29999995232,1,1,251.39999997616,0.0,1,object_10,1,2572,0,0,5,desert_1,1,memory-2step-stake-s,668,2765000,0.0-19.0-0.1-0.178,A2MS1GQLGAX9FZ,3B623HUYK76FV1575X2NKKQMM9B8SL,3MMN5BL1W3KTISKQZLG76EFS8AZ3M7,1,2
179,4,object_07,object_08,773.80000001192,8,1,288.39999997616,0.8888888888888888,2,object_06,5,2612,0,5,8,restaurant_2,1,memory-2step-stake-s,669,2773377,0.0-19.0-0.1-0.179,A2MS1GQLGAX9FZ,3B623HUYK76FV1575X2NKKQMM9B8SL,3MMN5BL1W3KTISKQZLG76EFS8AZ3M7,8,7
180,1,object_09,object_05,820.09999996424,1,1,386.0,0.4444444444444444,1,object_10,5,2632,0,4,9,desert_1,1,memory-2step-stake-s,670,2782404,0.0-19.0-0.1-0.180,A2MS1GQLGAX9FZ,3B623HUYK76FV1575X2NKKQMM9B8SL,3MMN5BL1W3KTISKQZLG76EFS8AZ3M7,1,2
181,3,object_03,object_02,870.69999998808,5,1,197.90000003576,0.6666666666666666,1,object_10,5,2662,0,6,8,library_1,1,memory-2step-stake-s,671,2790478,0.0-19.0-0.1-0.181,A2MS1GQLGAX9FZ,3B623HUYK76FV1575X2NKKQMM9B8SL,3MMN5BL1W3KTISKQZLG76EFS8AZ3M7,5,6
182,1,object_05,object_09,950.39999997616,2,1,252.69999998808,0.7777777777777778,2,object_06,1,2669,0,5,7,desert_3,1,memory-2step-stake-s,672,2798723,0.0-19.0-0.1-0.182,A2MS1GQLGAX9FZ,3B623HUYK76FV1575X2NKKQMM9B8SL,3MMN5BL1W3KTISKQZLG76EFS8AZ3M7,2,1
183,3,object_03,object_02,782.09999996424,5,1,202.70000004768,0.3333333333333333,1,object_10,5,2684,0,3,6,library_1,1,memory-2step-stake-s,673,2806513,0.0-19.0-0.1-0.183,A2MS1GQLGAX9FZ,3B623HUYK76FV1575X2NKKQMM9B8SL,3MMN5BL1W3KTISKQZLG76EFS8AZ3M7,5,6
184,4,object_08,object_07,1156.4000000358,7,1,237.0,0.4444444444444444,1,object_10,1,2688,0,4,8,restaurant_4,1,memory-2step-stake-s,674,2814461,0.0-19.0-0.1-0.184,A2MS1GQLGAX9FZ,3B623HUYK76FV1575X2NKKQMM9B8SL,3MMN5BL1W3KTISKQZLG76EFS8AZ3M7,7,8
185,1,object_09,object_05,856.59999996424,1,1,158.19999998808,0.2222222222222222,1,object_10,1,2690,0,2,5,desert_7,1,memory-2step-stake-s,675,2822092,0.0-19.0-0.1-0.185,A2MS1GQLGAX9FZ,3B623HUYK76FV1575X2NKKQMM9B8SL,3MMN5BL1W3KTISKQZLG76EFS8AZ3M7,1,2
186,2,object_04,object_01,1034.4000000358,4,2,210.70000004768,0.4444444444444444,2,object_06,1,2694,0,2,4,forest_3,1,memory-2step-stake-s,676,2829981,0.0-19.0-0.1-0.186,A2MS1GQLGAX9FZ,3B623HUYK76FV1575X2NKKQMM9B8SL,3MMN5BL1W3KTISKQZLG76EFS8AZ3M7,3,4
187,3,object_03,object_02,1079.6000000238,5,1,257.09999996424,0.2222222222222222,1,object_10,5,2704,0,2,4,library_3,1,memory-2step-stake-s,677,2837730,0.0-19.0-0.1-0.187,A2MS1GQLGAX9FZ,3B623HUYK76FV1575X2NKKQMM9B8SL,3MMN5BL1W3KTISKQZLG76EFS8AZ3M7,5,6
188,1,object_09,object_05,891.19999998808,2,2,19.699999988079,0.3333333333333333,2,object_06,1,2707,0,0,3,desert_3,1,memory-2step-stake-s,678,2845334,0.0-19.0-0.1-0.188,A2MS1GQLGAX9FZ,3B623HUYK76FV1575X2NKKQMM9B8SL,3MMN5BL1W3KTISKQZLG76EFS8AZ3M7,1,2
189,4,object_07,object_08,1064.3000000119,8,1,278.5,0.2222222222222222,2,object_06,5,2717,0,2,2,restaurant_4,1,memory-2step-stake-s,679,2853082,0.0-19.0-0.1-0.189,A2MS1GQLGAX9FZ,3B623HUYK76FV1575X2NKKQMM9B8SL,3MMN5BL1W3KTISKQZLG76EFS8AZ3M7,8,7
190,1,object_09,object_05,1177.7000000477,1,1,292.19999998808,0.1111111111111111,1,object_10,1,2718,0,1,0,desert_1,1,memory-2step-stake-s,680,2860750,0.0-19.0-0.1-0.190,A2MS1GQLGAX9FZ,3B623HUYK76FV1575X2NKKQMM9B8SL,3MMN5BL1W3KTISKQZLG76EFS8AZ3M7,1,2
191,1,object_09,object_05,1124.7999999523,2,2,400.40000003576,0.4444444444444444,2,object_06,1,2722,0,2,4,desert_4,1,memory-2step-stake-s,681,2868832,0.0-19.0-0.1-0.191,A2MS1GQLGAX9FZ,3B623HUYK76FV1575X2NKKQMM9B8SL,3MMN5BL1W3KTISKQZLG76EFS8AZ3M7,1,2
192,4,object_07,object_08,1064.6999999881,7,2,136.59999996424,0.1111111111111111,1,object_10,5,2727,0,1,5,restaurant_3,1,memory-2step-stake-s,682,2876360,0.0-19.0-0.1-0.192,A2MS1GQLGAX9FZ,3B623HUYK76FV1575X2NKKQMM9B8SL,3MMN5BL1W3KTISKQZLG76EFS8AZ3M7,8,7
193,3,object_03,object_02,1023.0,6,2,214.39999997616,0.6666666666666666,2,object_06,5,2757,0,1,6,library_5,1,memory-2step-stake-s,683,2884515,0.0-19.0-0.1-0.193,A2MS1GQLGAX9FZ,3B623HUYK76FV1575X2NKKQMM9B8SL,3MMN5BL1W3KTISKQZLG76EFS8AZ3M7,5,6
194,2,object_01,object_04,957.69999998808,3,2,204.0,0.5555555555555556,1,object_10,1,2762,0,5,6,forest_1,1,memory-2step-stake-s,684,2892526,0.0-19.0-0.1-0.194,A2MS1GQLGAX9FZ,3B623HUYK76FV1575X2NKKQMM9B8SL,3MMN5BL1W3KTISKQZLG76EFS8AZ3M7,4,3
195,3,object_02,object_03,1228.6999999881,6,1,271.79999995232,0.6666666666666666,2,object_06,5,2792,0,3,6,library_5,1,memory-2step-stake-s,685,2900687,0.0-19.0-0.1-0.195,A2MS1GQLGAX9FZ,3B623HUYK76FV1575X2NKKQMM9B8SL,3MMN5BL1W3KTISKQZLG76EFS8AZ3M7,6,5
196,4,object_07,object_08,1503.0,7,2,578.5,0.3333333333333333,1,object_10,5,2807,0,3,5,restaurant_2,1,memory-2step-stake-s,686,2909477,0.0-19.0-0.1-0.196,A2MS1GQLGAX9FZ,3B623HUYK76FV1575X2NKKQMM9B8SL,3MMN5BL1W3KTISKQZLG76EFS8AZ3M7,8,7
197,1,object_09,object_05,977.39999997616,1,1,186.0,0.1111111111111111,1,object_10,1,2808,0,1,4,desert_7,1,memory-2step-stake-s,687,2917034,0.0-19.0-0.1-0.197,A2MS1GQLGAX9FZ,3B623HUYK76FV1575X2NKKQMM9B8SL,3MMN5BL1W3KTISKQZLG76EFS8AZ3M7,1,2
198,3,object_03,object_02,1370.9000000358,5,1,333.19999998808,0.0,1,object_10,1,2808,0,0,4,library_1,1,memory-2step-stake-s,688,2924631,0.0-19.0-0.1-0.198,A2MS1GQLGAX9FZ,3B623HUYK76FV1575X2NKKQMM9B8SL,3MMN5BL1W3KTISKQZLG76EFS8AZ3M7,5,6
199,1,object_09,object_05,1151.5,2,2,315.90000003576,0.4444444444444444,2,object_06,1,2812,0,1,4,desert_7,1,memory-2step-stake-s,689,2932641,0.0-19.0-0.1-0.199,A2MS1GQLGAX9FZ,3B623HUYK76FV1575X2NKKQMM9B8SL,3MMN5BL1W3KTISKQZLG76EFS8AZ3M7,1,2
200,4,object_07,object_08,953.5,8,1,118.60000002384,0.4444444444444444,2,object_06,1,2816,0,4,4,restaurant_1,1,memory-2step-stake-s,690,2940427,0.0-19.0-0.1-0.200,A2MS1GQLGAX9FZ,3B623HUYK76FV1575X2NKKQMM9B8SL,3MMN5BL1W3KTISKQZLG76EFS8AZ3M7,8,7
201,4,object_08,object_07,993.09999996424,7,1,269.09999996424,0.6666666666666666,1,object_10,5,2846,0,6,1,restaurant_1,1,memory-2step-stake-s,691,2948611,0.0-19.0-0.1-0.201,A2MS1GQLGAX9FZ,3B623HUYK76FV1575X2NKKQMM9B8SL,3MMN5BL1W3KTISKQZLG76EFS8AZ3M7,7,8
202,4,object_07,object_08,774.5,7,2,290.69999998808,0.8888888888888888,1,object_10,5,2886,0,8,0,restaurant_4,1,memory-2step-stake-s,692,2957019,0.0-19.0-0.1-0.202,A2MS1GQLGAX9FZ,3B623HUYK76FV1575X2NKKQMM9B8SL,3MMN5BL1W3KTISKQZLG76EFS8AZ3M7,8,7
203,1,object_05,object_09,1146.3000000119,2,1,250.90000003576,0.1111111111111111,2,object_06,1,2887,0,8,1,desert_1,1,memory-2step-stake-s,693,2964627,0.0-19.0-0.1-0.203,A2MS1GQLGAX9FZ,3B623HUYK76FV1575X2NKKQMM9B8SL,3MMN5BL1W3KTISKQZLG76EFS8AZ3M7,2,1
204,1,object_05,object_09,659.40000003576,1,2,280.09999996424,0.7777777777777778,1,object_10,1,2894,0,7,1,desert_4,1,memory-2step-stake-s,694,2972920,0.0-19.0-0.1-0.204,A2MS1GQLGAX9FZ,3B623HUYK76FV1575X2NKKQMM9B8SL,3MMN5BL1W3KTISKQZLG76EFS8AZ3M7,2,1
205,3,object_02,object_03,1083.9000000358,6,1,281.0,0.6666666666666666,2,object_06,5,2924,0,5,6,library_3,1,memory-2step-stake-s,695,2981088,0.0-19.0-0.1-0.205,A2MS1GQLGAX9FZ,3B623HUYK76FV1575X2NKKQMM9B8SL,3MMN5BL1W3KTISKQZLG76EFS8AZ3M7,6,5
206,1,object_05,object_09,751.60000002384,1,2,311.60000002384,0.1111111111111111,1,object_10,5,2929,0,1,8,desert_3,1,memory-2step-stake-s,696,2988792,0.0-19.0-0.1-0.206,A2MS1GQLGAX9FZ,3B623HUYK76FV1575X2NKKQMM9B8SL,3MMN5BL1W3KTISKQZLG76EFS8AZ3M7,2,1
207,3,object_03,object_02,843.19999998808,5,1,223.89999997616,0.3333333333333333,1,object_10,1,2932,0,3,5,library_5,1,memory-2step-stake-s,697,2996596,0.0-19.0-0.1-0.207,A2MS1GQLGAX9FZ,3B623HUYK76FV1575X2NKKQMM9B8SL,3MMN5BL1W3KTISKQZLG76EFS8AZ3M7,5,6
208,1,object_09,object_05,1263.8999999762,2,2,323.20000004768,0.4444444444444444,2,object_06,1,2936,0,3,4,desert_7,1,memory-2step-stake-s,698,3004578,0.0-19.0-0.1-0.208,A2MS1GQLGAX9FZ,3B623HUYK76FV1575X2NKKQMM9B8SL,3MMN5BL1W3KTISKQZLG76EFS8AZ3M7,1,2
209,3,object_02,object_03,915.19999998808,6,1,240.69999998808,0.5555555555555556,2,object_06,5,2961,0,0,5,library_3,1,memory-2step-stake-s,699,3012585,0.0-19.0-0.1-0.209,A2MS1GQLGAX9FZ,3B623HUYK76FV1575X2NKKQMM9B8SL,3MMN5BL1W3KTISKQZLG76EFS8AZ3M7,6,5
210,4,object_08,object_07,904.40000003576,7,1,590.70000004768,0.4444444444444444,1,object_10,1,2965,0,4,5,restaurant_4,1,memory-2step-stake-s,700,3020874,0.0-19.0-0.1-0.210,A2MS1GQLGAX9FZ,3B623HUYK76FV1575X2NKKQMM9B8SL,3MMN5BL1W3KTISKQZLG76EFS8AZ3M7,7,8
211,2,object_04,object_01,883.0,3,1,256.5,0.8888888888888888,1,object_10,1,2973,0,8,4,forest_1,1,memory-2step-stake-s,701,3029227,0.0-19.0-0.1-0.211,A2MS1GQLGAX9FZ,3B623HUYK76FV1575X2NKKQMM9B8SL,3MMN5BL1W3KTISKQZLG76EFS8AZ3M7,3,4
212,2,object_01,object_04,1108.9000000358,4,1,345.30000001192,0.6666666666666666,2,object_06,5,3003,0,9,6,forest_7,1,memory-2step-stake-s,702,3037460,0.0-19.0-0.1-0.212,A2MS1GQLGAX9FZ,3B623HUYK76FV1575X2NKKQMM9B8SL,3MMN5BL1W3KTISKQZLG76EFS8AZ3M7,4,3
213,4,object_07,object_08,771.89999997616,8,1,91.100000023842,0.7777777777777778,2,object_06,1,3010,0,7,7,restaurant_3,1,memory-2step-stake-s,703,3045559,0.0-19.0-0.1-0.213,A2MS1GQLGAX9FZ,3B623HUYK76FV1575X2NKKQMM9B8SL,3MMN5BL1W3KTISKQZLG76EFS8AZ3M7,8,7
214,2,object_04,object_01,1051.9000000358,3,1,305.0,0.6666666666666666,1,object_10,1,3016,0,6,5,forest_5,1,memory-2step-stake-s,704,3053752,0.0-19.0-0.1-0.214,A2MS1GQLGAX9FZ,3B623HUYK76FV1575X2NKKQMM9B8SL,3MMN5BL1W3KTISKQZLG76EFS8AZ3M7,3,4
215,3,object_02,object_03,861.19999998808,6,1,265.29999995232,0.5555555555555556,2,object_06,5,3041,0,8,5,library_3,1,memory-2step-stake-s,705,3061814,0.0-19.0-0.1-0.215,A2MS1GQLGAX9FZ,3B623HUYK76FV1575X2NKKQMM9B8SL,3MMN5BL1W3KTISKQZLG76EFS8AZ3M7,6,5
216,4,object_07,object_08,893.5,8,1,182.80000001192,0.6666666666666666,2,object_06,1,3047,0,5,6,restaurant_1,1,memory-2step-stake-s,706,3069853,0.0-19.0-0.1-0.216,A2MS1GQLGAX9FZ,3B623HUYK76FV1575X2NKKQMM9B8SL,3MMN5BL1W3KTISKQZLG76EFS8AZ3M7,8,7
217,4,object_08,object_07,909.79999995232,8,2,259.39999997616,0.4444444444444444,2,object_06,5,3067,0,5,4,restaurant_2,1,memory-2step-stake-s,707,3077792,0.0-19.0-0.1-0.217,A2MS1GQLGAX9FZ,3B623HUYK76FV1575X2NKKQMM9B8SL,3MMN5BL1W3KTISKQZLG76EFS8AZ3M7,7,8
218,3,object_02,object_03,836.19999998808,6,1,180.20000004768,0.5555555555555556,2,object_06,5,3092,0,6,5,library_5,1,memory-2step-stake-s,708,3085755,0.0-19.0-0.1-0.218,A2MS1GQLGAX9FZ,3B623HUYK76FV1575X2NKKQMM9B8SL,3MMN5BL1W3KTISKQZLG76EFS8AZ3M7,6,5
219,3,object_03,object_02,744.69999998808,5,1,228.80000001192,0.7777777777777778,1,object_10,5,3127,0,7,5,library_7,1,memory-2step-stake-s,709,3093963,0.0-19.0-0.1-0.219,A2MS1GQLGAX9FZ,3B623HUYK76FV1575X2NKKQMM9B8SL,3MMN5BL1W3KTISKQZLG76EFS8AZ3M7,5,6
220,2,object_04,object_01,921.5,3,1,292.19999998808,0.5555555555555556,1,object_10,1,3132,0,5,8,forest_5,1,memory-2step-stake-s,710,3102027,0.0-19.0-0.1-0.220,A2MS1GQLGAX9FZ,3B623HUYK76FV1575X2NKKQMM9B8SL,3MMN5BL1W3KTISKQZLG76EFS8AZ3M7,3,4
221,4,object_08,object_07,907.0,7,1,244.5,0.5555555555555556,1,object_10,1,3137,0,5,9,restaurant_4,1,memory-2step-stake-s,711,3110053,0.0-19.0-0.1-0.221,A2MS1GQLGAX9FZ,3B623HUYK76FV1575X2NKKQMM9B8SL,3MMN5BL1W3KTISKQZLG76EFS8AZ3M7,7,8
222,1,object_05,object_09,792.19999998808,1,2,40.5,0.2222222222222222,1,object_10,1,3139,0,2,8,desert_3,1,memory-2step-stake-s,712,3117572,0.0-19.0-0.1-0.222,A2MS1GQLGAX9FZ,3B623HUYK76FV1575X2NKKQMM9B8SL,3MMN5BL1W3KTISKQZLG76EFS8AZ3M7,2,1
223,2,object_01,object_04,624.30000001192,4,1,129.5,0.7777777777777778,2,object_06,1,3146,0,0,7,forest_7,1,memory-2step-stake-s,713,3125711,0.0-19.0-0.1-0.223,A2MS1GQLGAX9FZ,3B623HUYK76FV1575X2NKKQMM9B8SL,3MMN5BL1W3KTISKQZLG76EFS8AZ3M7,4,3
224,4,object_08,object_07,828.5,7,1,234.5,0.4444444444444444,1,object_10,5,3166,0,4,7,restaurant_3,1,memory-2step-stake-s,714,3133604,0.0-19.0-0.1-0.224,A2MS1GQLGAX9FZ,3B623HUYK76FV1575X2NKKQMM9B8SL,3MMN5BL1W3KTISKQZLG76EFS8AZ3M7,7,8
225,1,object_05,object_09,874.69999998808,2,1,267.30000001192,0.4444444444444444,2,object_06,1,3170,0,2,4,desert_1,1,memory-2step-stake-s,715,3141559,0.0-19.0-0.1-0.225,A2MS1GQLGAX9FZ,3B623HUYK76FV1575X2NKKQMM9B8SL,3MMN5BL1W3KTISKQZLG76EFS8AZ3M7,2,1
226,1,object_09,object_05,967.90000003576,2,2,215.69999998808,0.3333333333333333,2,object_06,1,3173,0,5,3,desert_4,1,memory-2step-stake-s,716,3149369,0.0-19.0-0.1-0.226,A2MS1GQLGAX9FZ,3B623HUYK76FV1575X2NKKQMM9B8SL,3MMN5BL1W3KTISKQZLG76EFS8AZ3M7,1,2
227,3,object_03,object_02,676.0,5,1,252.80000001192,0.8888888888888888,1,object_10,1,3181,0,8,7,library_7,1,memory-2step-stake-s,717,3157716,0.0-19.0-0.1-0.227,A2MS1GQLGAX9FZ,3B623HUYK76FV1575X2NKKQMM9B8SL,3MMN5BL1W3KTISKQZLG76EFS8AZ3M7,5,6
228,4,object_07,object_08,1307.1999999881,8,1,336.39999997616,0.6666666666666666,2,object_06,5,3211,0,9,6,restaurant_3,1,memory-2step-stake-s,718,3165983,0.0-19.0-0.1-0.228,A2MS1GQLGAX9FZ,3B623HUYK76FV1575X2NKKQMM9B8SL,3MMN5BL1W3KTISKQZLG76EFS8AZ3M7,8,7
229,2,object_04,object_01,905.69999998808,3,1,215.09999996424,0.8888888888888888,1,object_10,1,3219,0,8,5,forest_5,1,memory-2step-stake-s,719,3174311,0.0-19.0-0.1-0.229,A2MS1GQLGAX9FZ,3B623HUYK76FV1575X2NKKQMM9B8SL,3MMN5BL1W3KTISKQZLG76EFS8AZ3M7,3,4
230,2,object_01,object_04,946.0,3,2,244.0,0.5555555555555556,1,object_10,1,3224,0,5,4,forest_5,1,memory-2step-stake-s,720,3182350,0.0-19.0-0.1-0.230,A2MS1GQLGAX9FZ,3B623HUYK76FV1575X2NKKQMM9B8SL,3MMN5BL1W3KTISKQZLG76EFS8AZ3M7,4,3
231,2,object_04,object_01,813.39999997616,3,1,173.5,0.5555555555555556,1,object_10,1,3229,0,5,2,forest_1,1,memory-2step-stake-s,721,3190296,0.0-19.0-0.1-0.231,A2MS1GQLGAX9FZ,3B623HUYK76FV1575X2NKKQMM9B8SL,3MMN5BL1W3KTISKQZLG76EFS8AZ3M7,3,4
232,3,object_03,object_02,1465.2000000477,5,1,370.80000001192,0.4444444444444444,1,object_10,1,3233,0,4,3,library_5,1,memory-2step-stake-s,722,3198337,0.0-19.0-0.1-0.232,A2MS1GQLGAX9FZ,3B623HUYK76FV1575X2NKKQMM9B8SL,3MMN5BL1W3KTISKQZLG76EFS8AZ3M7,5,6
233,2,object_04,object_01,1065.6000000238,4,2,283.19999998808,0.3333333333333333,2,object_06,1,3236,0,5,3,forest_1,1,memory-2step-stake-s,723,3206205,0.0-19.0-0.1-0.233,A2MS1GQLGAX9FZ,3B623HUYK76FV1575X2NKKQMM9B8SL,3MMN5BL1W3KTISKQZLG76EFS8AZ3M7,3,4
234,4,object_08,object_07,958.30000001192,7,1,204.10000002384,1.0,1,object_10,5,3281,0,9,6,restaurant_4,1,memory-2step-stake-s,724,3214606,0.0-19.0-0.1-0.234,A2MS1GQLGAX9FZ,3B623HUYK76FV1575X2NKKQMM9B8SL,3MMN5BL1W3KTISKQZLG76EFS8AZ3M7,7,8
235,1,object_09,object_05,1115.2999999523,1,1,317.19999998808,0.6666666666666666,1,object_10,5,3311,0,6,5,desert_7,1,memory-2step-stake-s,725,3222775,0.0-19.0-0.1-0.235,A2MS1GQLGAX9FZ,3B623HUYK76FV1575X2NKKQMM9B8SL,3MMN5BL1W3KTISKQZLG76EFS8AZ3M7,1,2
236,3,object_03,object_02,1012.7999999523,6,2,263.70000004768,0.5555555555555556,2,object_06,5,3336,0,7,5,library_5,1,memory-2step-stake-s,726,3230851,0.0-19.0-0.1-0.236,A2MS1GQLGAX9FZ,3B623HUYK76FV1575X2NKKQMM9B8SL,3MMN5BL1W3KTISKQZLG76EFS8AZ3M7,5,6
237,3,object_03,object_02,731.0,6,2,136.80000001192,0.4444444444444444,2,object_06,5,3356,0,7,4,library_7,1,memory-2step-stake-s,727,3238652,0.0-19.0-0.1-0.237,A2MS1GQLGAX9FZ,3B623HUYK76FV1575X2NKKQMM9B8SL,3MMN5BL1W3KTISKQZLG76EFS8AZ3M7,5,6
238,3,object_03,object_02,493.5,5,1,259.19999998808,0.8888888888888888,1,object_10,5,3396,0,8,4,library_7,1,memory-2step-stake-s,728,3247001,0.0-19.0-0.1-0.238,A2MS1GQLGAX9FZ,3B623HUYK76FV1575X2NKKQMM9B8SL,3MMN5BL1W3KTISKQZLG76EFS8AZ3M7,5,6
239,3,object_03,object_02,405.0,5,1,35.800000011921,0.3333333333333333,1,object_10,5,3411,0,3,4,library_7,1,memory-2step-stake-s,729,3254630,0.0-19.0-0.1-0.239,A2MS1GQLGAX9FZ,3B623HUYK76FV1575X2NKKQMM9B8SL,3MMN5BL1W3KTISKQZLG76EFS8AZ3M7,5,6
240,1,object_05,object_09,1083.3000000119,2,1,273.89999997616,0.3333333333333333,2,object_06,1,3414,0,2,3,desert_7,1,memory-2step-stake-s,730,3262484,0.0-19.0-0.1-0.240,A2MS1GQLGAX9FZ,3B623HUYK76FV1575X2NKKQMM9B8SL,3MMN5BL1W3KTISKQZLG76EFS8AZ3M7,2,1
241,1,object_05,object_09,901.5,2,1,232.5,0.1111111111111111,2,object_06,1,3415,0,3,1,desert_7,1,memory-2step-stake-s,731,3270102,0.0-19.0-0.1-0.241,A2MS1GQLGAX9FZ,3B623HUYK76FV1575X2NKKQMM9B8SL,3MMN5BL1W3KTISKQZLG76EFS8AZ3M7,2,1
242,2,object_04,object_01,677.89999997616,4,2,90.699999988079,0.2222222222222222,2,object_06,1,3417,0,5,2,forest_7,1,memory-2step-stake-s,732,3277690,0.0-19.0-0.1-0.242,A2MS1GQLGAX9FZ,3B623HUYK76FV1575X2NKKQMM9B8SL,3MMN5BL1W3KTISKQZLG76EFS8AZ3M7,3,4
243,4,object_08,object_07,975.69999998808,7,1,249.5,0.3333333333333333,1,object_10,5,3432,0,3,2,restaurant_4,1,memory-2step-stake-s,733,3285528,0.0-19.0-0.1-0.243,A2MS1GQLGAX9FZ,3B623HUYK76FV1575X2NKKQMM9B8SL,3MMN5BL1W3KTISKQZLG76EFS8AZ3M7,7,8
244,1,object_09,object_05,684.19999998808,2,2,282.40000003576,0.2222222222222222,2,object_06,1,3434,0,7,2,desert_3,1,memory-2step-stake-s,734,3293290,0.0-19.0-0.1-0.244,A2MS1GQLGAX9FZ,3B623HUYK76FV1575X2NKKQMM9B8SL,3MMN5BL1W3KTISKQZLG76EFS8AZ3M7,1,2
245,1,object_09,object_05,493.39999997616,1,1,303.09999996424,0.8888888888888888,1,object_10,5,3474,0,8,3,desert_7,1,memory-2step-stake-s,735,3301712,0.0-19.0-0.1-0.245,A2MS1GQLGAX9FZ,3B623HUYK76FV1575X2NKKQMM9B8SL,3MMN5BL1W3KTISKQZLG76EFS8AZ3M7,1,2
246,2,object_04,object_01,744.89999997616,3,1,345.40000003576,1.0,1,object_10,1,3483,0,9,1,forest_7,1,memory-2step-stake-s,736,3310291,0.0-19.0-0.1-0.246,A2MS1GQLGAX9FZ,3B623HUYK76FV1575X2NKKQMM9B8SL,3MMN5BL1W3KTISKQZLG76EFS8AZ3M7,3,4
247,3,object_02,object_03,856.80000001192,6,1,300.19999998808,0.6666666666666666,2,object_06,1,3489,0,7,6,library_1,1,memory-2step-stake-s,737,3318489,0.0-19.0-0.1-0.247,A2MS1GQLGAX9FZ,3B623HUYK76FV1575X2NKKQMM9B8SL,3MMN5BL1W3KTISKQZLG76EFS8AZ3M7,6,5
248,4,object_07,object_08,873.30000001192,8,1,130.0,0.8888888888888888,2,object_06,5,3529,0,6,8,restaurant_3,1,memory-2step-stake-s,738,3326716,0.0-19.0-0.1-0.248,A2MS1GQLGAX9FZ,3B623HUYK76FV1575X2NKKQMM9B8SL,3MMN5BL1W3KTISKQZLG76EFS8AZ3M7,8,7
249,3,object_02,object_03,834.09999996424,6,1,461.5,0.7777777777777778,2,object_06,1,3536,0,8,7,library_5,1,memory-2step-stake-s,739,3335177,0.0-19.0-0.1-0.249,A2MS1GQLGAX9FZ,3B623HUYK76FV1575X2NKKQMM9B8SL,3MMN5BL1W3KTISKQZLG76EFS8AZ3M7,6,5
250,1,object_05,object_09,1206.8999999762,2,1,373.19999998808,0.5555555555555556,2,object_06,1,3541,0,6,5,desert_7,1,memory-2step-stake-s,740,3343342,0.0-19.0-0.1-0.250,A2MS1GQLGAX9FZ,3B623HUYK76FV1575X2NKKQMM9B8SL,3MMN5BL1W3KTISKQZLG76EFS8AZ3M7,2,1
251,1,object_09,object_05,1334.6999999881,2,2,340.90000003576,0.5555555555555556,2,object_06,1,3546,0,5,5,desert_4,1,memory-2step-stake-s,741,3351502,0.0-19.0-0.1-0.251,A2MS1GQLGAX9FZ,3B623HUYK76FV1575X2NKKQMM9B8SL,3MMN5BL1W3KTISKQZLG76EFS8AZ3M7,1,2
252,2,object_04,object_01,743.09999996424,3,1,376.89999997616,0.4444444444444444,1,object_10,1,3550,0,4,3,forest_3,1,memory-2step-stake-s,742,3359559,0.0-19.0-0.1-0.252,A2MS1GQLGAX9FZ,3B623HUYK76FV1575X2NKKQMM9B8SL,3MMN5BL1W3KTISKQZLG76EFS8AZ3M7,3,4
253,2,object_04,object_01,748.0,4,2,115.90000003576,0.2222222222222222,2,object_06,5,3560,0,6,2,forest_7,1,memory-2step-stake-s,743,3367137,0.0-19.0-0.1-0.253,A2MS1GQLGAX9FZ,3B623HUYK76FV1575X2NKKQMM9B8SL,3MMN5BL1W3KTISKQZLG76EFS8AZ3M7,3,4
254,3,object_02,object_03,1221.3000000119,5,2,293.0,0.4444444444444444,1,object_10,1,3564,0,4,5,library_1,1,memory-2step-stake-s,744,3375114,0.0-19.0-0.1-0.254,A2MS1GQLGAX9FZ,3B623HUYK76FV1575X2NKKQMM9B8SL,3MMN5BL1W3KTISKQZLG76EFS8AZ3M7,6,5
255,1,object_09,object_05,844.0,1,1,30.600000023842,0.3333333333333333,1,object_10,5,3579,0,3,1,desert_7,1,memory-2step-stake-s,745,3382738,0.0-19.0-0.1-0.255,A2MS1GQLGAX9FZ,3B623HUYK76FV1575X2NKKQMM9B8SL,3MMN5BL1W3KTISKQZLG76EFS8AZ3M7,1,2
