,state1,stim_left,stim_right,rt_1,choice1,response1,rt_2,points,state2,stim_state2,stake,score,practice,rews1,rews2,background,high_arm,trial_type,trial_index,time_elapsed,internal_node_id,subid,hitid,assignmentid,stim_left_num,stim_right_num
0,4,object_05,object_03,594.0,7,2,-1.0,0.0,1,object_01,1,0,0,3,2,restaurant_3,1,memory-2step-stake-s,494,1072020,0.0-19.0-0.0-0.0,A2XGVGSG5WR173,32CXT5U15JJVAEXBU2XNZL8A76W8U1,3IQ1VMJRYX0EVT0HJRRCO0NEELK9AA,8,7
1,2,object_04,object_10,411.0,4,1,460.0,0.4444444444444444,2,object_02,1,4,0,3,4,forest_2,1,memory-2step-stake-s,495,1080158,0.0-19.0-0.0-0.1,A2XGVGSG5WR173,32CXT5U15JJVAEXBU2XNZL8A76W8U1,3IQ1VMJRYX0EVT0HJRRCO0NEELK9AA,4,3
2,1,object_08,object_09,504.0,2,1,492.0,0.4444444444444444,2,object_02,1,8,0,3,4,desert_4,1,memory-2step-stake-s,496,1088335,0.0-19.0-0.0-0.2,A2XGVGSG5WR173,32CXT5U15JJVAEXBU2XNZL8A76W8U1,3IQ1VMJRYX0EVT0HJRRCO0NEELK9AA,2,1
3,4,object_03,object_05,454.0,8,2,679.0,0.2222222222222222,2,object_02,5,18,0,0,2,restaurant_3,1,memory-2step-stake-s,497,1096502,0.0-19.0-0.0-0.3,A2XGVGSG5WR173,32CXT5U15JJVAEXBU2XNZL8A76W8U1,3IQ1VMJRYX0EVT0HJRRCO0NEELK9AA,7,8
4,2,object_04,object_10,599.0,3,2,454.0,0.0,1,object_01,1,18,0,0,0,forest_3,1,memory-2step-stake-s,498,1104230,0.0-19.0-0.0-0.4,A2XGVGSG5WR173,32CXT5U15JJVAEXBU2XNZL8A76W8U1,3IQ1VMJRYX0EVT0HJRRCO0NEELK9AA,4,3
5,4,object_05,object_03,378.0,8,1,438.0,0.0,2,object_02,5,18,0,2,0,restaurant_7,1,memory-2step-stake-s,499,1111931,0.0-19.0-0.0-0.5,A2XGVGSG5WR173,32CXT5U15JJVAEXBU2XNZL8A76W8U1,3IQ1VMJRYX0EVT0HJRRCO0NEELK9AA,8,7
6,3,object_06,object_07,368.0,5,2,483.0,0.6666666666666666,1,object_01,5,48,0,6,3,library_2,1,memory-2step-stake-s,500,1120337,0.0-19.0-0.0-0.6,A2XGVGSG5WR173,32CXT5U15JJVAEXBU2XNZL8A76W8U1,3IQ1VMJRYX0EVT0HJRRCO0NEELK9AA,6,5
7,4,object_03,object_05,334.0,8,2,619.0,0.3333333333333333,2,object_02,5,63,0,6,3,restaurant_7,1,memory-2step-stake-s,501,1128553,0.0-19.0-0.0-0.7,A2XGVGSG5WR173,32CXT5U15JJVAEXBU2XNZL8A76W8U1,3IQ1VMJRYX0EVT0HJRRCO0NEELK9AA,7,8
8,1,object_09,object_08,551.0,1,1,522.0,0.6666666666666666,1,object_01,1,69,0,6,2,desert_5,1,memory-2step-stake-s,502,1136977,0.0-19.0-0.0-0.8,A2XGVGSG5WR173,32CXT5U15JJVAEXBU2XNZL8A76W8U1,3IQ1VMJRYX0EVT0HJRRCO0NEELK9AA,1,2
9,3,object_06,object_07,588.0,5,2,428.0,0.4444444444444444,1,object_01,5,89,0,4,1,library_8,1,memory-2step-stake-s,503,1145098,0.0-19.0-0.0-0.9,A2XGVGSG5WR173,32CXT5U15JJVAEXBU2XNZL8A76W8U1,3IQ1VMJRYX0EVT0HJRRCO0NEELK9AA,6,5
10,2,object_04,object_10,435.0,4,1,679.0,0.2222222222222222,2,object_02,1,91,0,1,2,forest_4,1,memory-2step-stake-s,504,1153262,0.0-19.0-0.0-0.10,A2XGVGSG5WR173,32CXT5U15JJVAEXBU2XNZL8A76W8U1,3IQ1VMJRYX0EVT0HJRRCO0NEELK9AA,4,3
11,3,object_07,object_06,320.0,6,2,686.0,0.1111111111111111,2,object_02,5,96,0,1,1,library_6,1,memory-2step-stake-s,505,1161325,0.0-19.0-0.0-0.11,A2XGVGSG5WR173,32CXT5U15JJVAEXBU2XNZL8A76W8U1,3IQ1VMJRYX0EVT0HJRRCO0NEELK9AA,5,6
12,1,object_09,object_08,706.0,1,1,722.0,0.4444444444444444,1,object_01,1,100,0,4,1,desert_2,1,memory-2step-stake-s,506,1169736,0.0-19.0-0.0-0.12,A2XGVGSG5WR173,32CXT5U15JJVAEXBU2XNZL8A76W8U1,3IQ1VMJRYX0EVT0HJRRCO0NEELK9AA,1,2
13,2,object_04,object_10,528.0,3,2,491.0,0.4444444444444444,1,object_01,1,104,0,4,0,forest_3,1,memory-2step-stake-s,507,1177911,0.0-19.0-0.0-0.13,A2XGVGSG5WR173,32CXT5U15JJVAEXBU2XNZL8A76W8U1,3IQ1VMJRYX0EVT0HJRRCO0NEELK9AA,4,3
14,2,object_04,object_10,341.0,4,1,1038.0,0.2222222222222222,2,object_02,1,106,0,6,2,forest_3,1,memory-2step-stake-s,508,1186427,0.0-19.0-0.0-0.14,A2XGVGSG5WR173,32CXT5U15JJVAEXBU2XNZL8A76W8U1,3IQ1VMJRYX0EVT0HJRRCO0NEELK9AA,4,3
15,3,object_06,object_07,491.0,5,2,400.0,0.8888888888888888,1,object_01,5,146,0,8,3,library_8,1,memory-2step-stake-s,509,1194946,0.0-19.0-0.0-0.15,A2XGVGSG5WR173,32CXT5U15JJVAEXBU2XNZL8A76W8U1,3IQ1VMJRYX0EVT0HJRRCO0NEELK9AA,6,5
16,1,object_09,object_08,553.0,1,1,-1.0,0.0,1,object_01,1,146,0,5,0,desert_2,1,memory-2step-stake-s,510,1203502,0.0-19.0-0.0-0.16,A2XGVGSG5WR173,32CXT5U15JJVAEXBU2XNZL8A76W8U1,3IQ1VMJRYX0EVT0HJRRCO0NEELK9AA,1,2
17,4,object_05,object_03,356.0,7,2,470.0,0.5555555555555556,1,object_01,5,171,0,5,2,restaurant_1,1,memory-2step-stake-s,511,1211786,0.0-19.0-0.0-0.17,A2XGVGSG5WR173,32CXT5U15JJVAEXBU2XNZL8A76W8U1,3IQ1VMJRYX0EVT0HJRRCO0NEELK9AA,8,7
18,2,object_10,object_04,305.0,3,1,574.0,0.5555555555555556,1,object_01,1,176,0,5,0,forest_4,1,memory-2step-stake-s,512,1220159,0.0-19.0-0.0-0.18,A2XGVGSG5WR173,32CXT5U15JJVAEXBU2XNZL8A76W8U1,3IQ1VMJRYX0EVT0HJRRCO0NEELK9AA,3,4
19,3,object_06,object_07,601.0,5,2,740.0,0.5555555555555556,1,object_01,1,181,0,5,4,library_4,1,memory-2step-stake-s,513,1228708,0.0-19.0-0.0-0.19,A2XGVGSG5WR173,32CXT5U15JJVAEXBU2XNZL8A76W8U1,3IQ1VMJRYX0EVT0HJRRCO0NEELK9AA,6,5
20,3,object_06,object_07,381.0,6,1,1394.0,0.8888888888888888,2,object_02,5,221,0,9,8,library_2,1,memory-2step-stake-s,514,1238297,0.0-19.0-0.0-0.20,A2XGVGSG5WR173,32CXT5U15JJVAEXBU2XNZL8A76W8U1,3IQ1VMJRYX0EVT0HJRRCO0NEELK9AA,6,5
21,4,object_05,object_03,362.0,7,2,-1.0,0.0,1,object_01,5,221,0,6,5,restaurant_1,1,memory-2step-stake-s,515,1246879,0.0-19.0-0.0-0.21,A2XGVGSG5WR173,32CXT5U15JJVAEXBU2XNZL8A76W8U1,3IQ1VMJRYX0EVT0HJRRCO0NEELK9AA,8,7
22,4,object_05,object_03,319.0,8,1,670.0,0.7777777777777778,2,object_02,5,256,0,4,7,restaurant_7,1,memory-2step-stake-s,516,1255599,0.0-19.0-0.0-0.22,A2XGVGSG5WR173,32CXT5U15JJVAEXBU2XNZL8A76W8U1,3IQ1VMJRYX0EVT0HJRRCO0NEELK9AA,8,7
23,3,object_07,object_06,344.0,6,2,704.0,0.7777777777777778,2,object_02,1,263,0,5,7,library_4,1,memory-2step-stake-s,517,1264331,0.0-19.0-0.0-0.23,A2XGVGSG5WR173,32CXT5U15JJVAEXBU2XNZL8A76W8U1,3IQ1VMJRYX0EVT0HJRRCO0NEELK9AA,5,6
24,4,object_03,object_05,421.0,7,1,787.0,0.4444444444444444,1,object_01,5,283,0,4,0,restaurant_6,1,memory-2step-stake-s,518,1272803,0.0-19.0-0.0-0.24,A2XGVGSG5WR173,32CXT5U15JJVAEXBU2XNZL8A76W8U1,3IQ1VMJRYX0EVT0HJRRCO0NEELK9AA,7,8
25,3,object_07,object_06,452.0,6,2,731.0,0.2222222222222222,2,object_02,5,293,0,4,2,library_6,1,memory-2step-stake-s,519,1281032,0.0-19.0-0.0-0.25,A2XGVGSG5WR173,32CXT5U15JJVAEXBU2XNZL8A76W8U1,3IQ1VMJRYX0EVT0HJRRCO0NEELK9AA,5,6
26,4,object_03,object_05,202.0,7,1,654.0,0.4444444444444444,1,object_01,5,313,0,4,4,restaurant_1,1,memory-2step-stake-s,520,1289393,0.0-19.0-0.0-0.26,A2XGVGSG5WR173,32CXT5U15JJVAEXBU2XNZL8A76W8U1,3IQ1VMJRYX0EVT0HJRRCO0NEELK9AA,7,8
27,4,object_05,object_03,438.0,8,1,695.0,0.3333333333333333,2,object_02,5,328,0,0,3,restaurant_1,1,memory-2step-stake-s,521,1297645,0.0-19.0-0.0-0.27,A2XGVGSG5WR173,32CXT5U15JJVAEXBU2XNZL8A76W8U1,3IQ1VMJRYX0EVT0HJRRCO0NEELK9AA,8,7
28,4,object_05,object_03,445.0,7,2,518.0,0.0,1,object_01,5,328,0,0,5,restaurant_3,1,memory-2step-stake-s,522,1305438,0.0-19.0-0.0-0.28,A2XGVGSG5WR173,32CXT5U15JJVAEXBU2XNZL8A76W8U1,3IQ1VMJRYX0EVT0HJRRCO0NEELK9AA,8,7
29,4,object_05,object_03,331.0,8,1,523.0,0.4444444444444444,2,object_02,5,348,0,6,4,restaurant_7,1,memory-2step-stake-s,523,1313664,0.0-19.0-0.0-0.29,A2XGVGSG5WR173,32CXT5U15JJVAEXBU2XNZL8A76W8U1,3IQ1VMJRYX0EVT0HJRRCO0NEELK9AA,8,7
30,1,object_09,object_08,466.0,1,1,452.0,0.3333333333333333,1,object_01,1,351,0,3,1,desert_4,1,memory-2step-stake-s,524,1321702,0.0-19.0-0.0-0.30,A2XGVGSG5WR173,32CXT5U15JJVAEXBU2XNZL8A76W8U1,3IQ1VMJRYX0EVT0HJRRCO0NEELK9AA,1,2
31,2,object_10,object_04,411.0,4,2,768.0,0.2222222222222222,2,object_02,1,353,0,4,2,forest_4,1,memory-2step-stake-s,525,1329948,0.0-19.0-0.0-0.31,A2XGVGSG5WR173,32CXT5U15JJVAEXBU2XNZL8A76W8U1,3IQ1VMJRYX0EVT0HJRRCO0NEELK9AA,3,4
32,3,object_07,object_06,357.0,5,1,350.0,0.4444444444444444,1,object_01,5,373,0,4,0,library_8,1,memory-2step-stake-s,526,1337999,0.0-19.0-0.0-0.32,A2XGVGSG5WR173,32CXT5U15JJVAEXBU2XNZL8A76W8U1,3IQ1VMJRYX0EVT0HJRRCO0NEELK9AA,5,6
33,2,object_10,object_04,435.0,4,2,447.0,0.0,2,object_02,1,373,0,3,0,forest_3,1,memory-2step-stake-s,527,1345739,0.0-19.0-0.0-0.33,A2XGVGSG5WR173,32CXT5U15JJVAEXBU2XNZL8A76W8U1,3IQ1VMJRYX0EVT0HJRRCO0NEELK9AA,3,4
34,1,object_08,object_09,299.0,2,1,936.0,0.0,2,object_02,1,373,0,0,0,desert_5,1,memory-2step-stake-s,528,1353919,0.0-19.0-0.0-0.34,A2XGVGSG5WR173,32CXT5U15JJVAEXBU2XNZL8A76W8U1,3IQ1VMJRYX0EVT0HJRRCO0NEELK9AA,2,1
35,2,object_04,object_10,347.0,3,2,415.0,0.1111111111111111,1,object_01,1,374,0,1,0,forest_4,1,memory-2step-stake-s,529,1361736,0.0-19.0-0.0-0.35,A2XGVGSG5WR173,32CXT5U15JJVAEXBU2XNZL8A76W8U1,3IQ1VMJRYX0EVT0HJRRCO0NEELK9AA,4,3
36,4,object_03,object_05,1432.0,8,2,436.0,0.1111111111111111,2,object_02,5,379,0,2,1,restaurant_3,1,memory-2step-stake-s,530,1369573,0.0-19.0-0.0-0.36,A2XGVGSG5WR173,32CXT5U15JJVAEXBU2XNZL8A76W8U1,3IQ1VMJRYX0EVT0HJRRCO0NEELK9AA,7,8
37,1,object_09,object_08,419.0,1,1,1473.0,0.3333333333333333,1,object_01,1,382,0,3,2,desert_2,1,memory-2step-stake-s,531,1378655,0.0-19.0-0.0-0.37,A2XGVGSG5WR173,32CXT5U15JJVAEXBU2XNZL8A76W8U1,3IQ1VMJRYX0EVT0HJRRCO0NEELK9AA,1,2
38,2,object_04,object_10,379.0,4,1,402.0,0.4444444444444444,2,object_02,1,386,0,3,4,forest_7,1,memory-2step-stake-s,532,1386748,0.0-19.0-0.0-0.38,A2XGVGSG5WR173,32CXT5U15JJVAEXBU2XNZL8A76W8U1,3IQ1VMJRYX0EVT0HJRRCO0NEELK9AA,4,3
39,2,object_10,object_04,544.0,4,2,781.0,0.5555555555555556,2,object_02,1,391,0,4,5,forest_2,1,memory-2step-stake-s,533,1395343,0.0-19.0-0.0-0.39,A2XGVGSG5WR173,32CXT5U15JJVAEXBU2XNZL8A76W8U1,3IQ1VMJRYX0EVT0HJRRCO0NEELK9AA,3,4
40,4,object_05,object_03,404.0,8,1,688.0,0.3333333333333333,2,object_02,5,406,0,4,3,restaurant_6,1,memory-2step-stake-s,534,1403624,0.0-19.0-0.0-0.40,A2XGVGSG5WR173,32CXT5U15JJVAEXBU2XNZL8A76W8U1,3IQ1VMJRYX0EVT0HJRRCO0NEELK9AA,8,7
41,2,object_10,object_04,354.0,4,2,463.0,0.2222222222222222,2,object_02,1,408,0,5,2,forest_3,1,memory-2step-stake-s,535,1411555,0.0-19.0-0.0-0.41,A2XGVGSG5WR173,32CXT5U15JJVAEXBU2XNZL8A76W8U1,3IQ1VMJRYX0EVT0HJRRCO0NEELK9AA,3,4
42,2,object_10,object_04,315.0,3,1,511.0,0.3333333333333333,1,object_01,5,423,0,3,1,forest_4,1,memory-2step-stake-s,536,1419634,0.0-19.0-0.0-0.42,A2XGVGSG5WR173,32CXT5U15JJVAEXBU2XNZL8A76W8U1,3IQ1VMJRYX0EVT0HJRRCO0NEELK9AA,3,4
43,3,object_06,object_07,336.0,5,2,600.0,0.4444444444444444,1,object_01,5,443,0,4,0,library_8,1,memory-2step-stake-s,537,1427937,0.0-19.0-0.0-0.43,A2XGVGSG5WR173,32CXT5U15JJVAEXBU2XNZL8A76W8U1,3IQ1VMJRYX0EVT0HJRRCO0NEELK9AA,6,5
44,3,object_07,object_06,370.0,5,1,532.0,0.7777777777777778,1,object_01,5,478,0,7,0,library_8,1,memory-2step-stake-s,538,1436495,0.0-19.0-0.0-0.44,A2XGVGSG5WR173,32CXT5U15JJVAEXBU2XNZL8A76W8U1,3IQ1VMJRYX0EVT0HJRRCO0NEELK9AA,5,6
45,1,object_09,object_08,330.0,2,2,458.0,0.1111111111111111,2,object_02,1,479,0,4,1,desert_2,1,memory-2step-stake-s,539,1444329,0.0-19.0-0.0-0.45,A2XGVGSG5WR173,32CXT5U15JJVAEXBU2XNZL8A76W8U1,3IQ1VMJRYX0EVT0HJRRCO0NEELK9AA,1,2
46,2,object_04,object_10,384.0,4,1,606.0,0.3333333333333333,2,object_02,5,494,0,8,3,forest_4,1,memory-2step-stake-s,540,1452569,0.0-19.0-0.0-0.46,A2XGVGSG5WR173,32CXT5U15JJVAEXBU2XNZL8A76W8U1,3IQ1VMJRYX0EVT0HJRRCO0NEELK9AA,4,3
47,1,object_08,object_09,305.0,1,2,797.0,0.5555555555555556,1,object_01,5,519,0,5,3,desert_5,1,memory-2step-stake-s,541,1461177,0.0-19.0-0.0-0.47,A2XGVGSG5WR173,32CXT5U15JJVAEXBU2XNZL8A76W8U1,3IQ1VMJRYX0EVT0HJRRCO0NEELK9AA,2,1
48,3,object_06,object_07,369.0,6,1,-1.0,0.0,2,object_02,5,519,0,2,2,library_2,1,memory-2step-stake-s,542,1469714,0.0-19.0-0.0-0.48,A2XGVGSG5WR173,32CXT5U15JJVAEXBU2XNZL8A76W8U1,3IQ1VMJRYX0EVT0HJRRCO0NEELK9AA,6,5
49,2,object_04,object_10,556.0,3,2,601.0,0.4444444444444444,1,object_01,1,523,0,4,1,forest_7,1,memory-2step-stake-s,543,1477998,0.0-19.0-0.0-0.49,A2XGVGSG5WR173,32CXT5U15JJVAEXBU2XNZL8A76W8U1,3IQ1VMJRYX0EVT0HJRRCO0NEELK9AA,4,3
50,4,object_05,object_03,459.0,8,1,-1.0,0.0,2,object_02,5,523,0,5,0,restaurant_3,1,memory-2step-stake-s,544,1486589,0.0-19.0-0.0-0.50,A2XGVGSG5WR173,32CXT5U15JJVAEXBU2XNZL8A76W8U1,3IQ1VMJRYX0EVT0HJRRCO0NEELK9AA,8,7
51,1,object_09,object_08,434.0,2,2,-1.0,0.0,2,object_02,1,523,0,4,2,desert_7,1,memory-2step-stake-s,545,1495179,0.0-19.0-0.0-0.51,A2XGVGSG5WR173,32CXT5U15JJVAEXBU2XNZL8A76W8U1,3IQ1VMJRYX0EVT0HJRRCO0NEELK9AA,1,2
52,3,object_07,object_06,464.0,5,1,652.0,0.5555555555555556,1,object_01,5,548,0,5,1,library_4,1,memory-2step-stake-s,546,1503640,0.0-19.0-0.0-0.52,A2XGVGSG5WR173,32CXT5U15JJVAEXBU2XNZL8A76W8U1,3IQ1VMJRYX0EVT0HJRRCO0NEELK9AA,5,6
53,1,object_09,object_08,696.0,2,2,667.0,0.2222222222222222,2,object_02,5,558,0,5,2,desert_4,1,memory-2step-stake-s,547,1511793,0.0-19.0-0.0-0.53,A2XGVGSG5WR173,32CXT5U15JJVAEXBU2XNZL8A76W8U1,3IQ1VMJRYX0EVT0HJRRCO0NEELK9AA,1,2
54,2,object_04,object_10,509.0,4,1,689.0,0.2222222222222222,2,object_02,1,560,0,4,2,forest_3,1,memory-2step-stake-s,548,1519965,0.0-19.0-0.0-0.54,A2XGVGSG5WR173,32CXT5U15JJVAEXBU2XNZL8A76W8U1,3IQ1VMJRYX0EVT0HJRRCO0NEELK9AA,4,3
55,1,object_09,object_08,467.0,2,2,714.0,0.2222222222222222,2,object_02,1,562,0,3,2,desert_7,1,memory-2step-stake-s,549,1528143,0.0-19.0-0.0-0.55,A2XGVGSG5WR173,32CXT5U15JJVAEXBU2XNZL8A76W8U1,3IQ1VMJRYX0EVT0HJRRCO0NEELK9AA,1,2
56,3,object_07,object_06,432.0,5,1,573.0,0.2222222222222222,1,object_01,5,572,0,2,2,library_6,1,memory-2step-stake-s,550,1536189,0.0-19.0-0.0-0.56,A2XGVGSG5WR173,32CXT5U15JJVAEXBU2XNZL8A76W8U1,3IQ1VMJRYX0EVT0HJRRCO0NEELK9AA,5,6
57,1,object_08,object_09,525.0,1,2,660.0,0.1111111111111111,1,object_01,5,577,0,1,2,desert_5,1,memory-2step-stake-s,551,1544201,0.0-19.0-0.0-0.57,A2XGVGSG5WR173,32CXT5U15JJVAEXBU2XNZL8A76W8U1,3IQ1VMJRYX0EVT0HJRRCO0NEELK9AA,2,1
58,4,object_05,object_03,369.0,8,1,750.0,0.6666666666666666,2,object_02,5,607,0,3,6,restaurant_3,1,memory-2step-stake-s,552,1552855,0.0-19.0-0.0-0.58,A2XGVGSG5WR173,32CXT5U15JJVAEXBU2XNZL8A76W8U1,3IQ1VMJRYX0EVT0HJRRCO0NEELK9AA,8,7
59,1,object_08,object_09,375.0,1,2,690.0,0.6666666666666666,1,object_01,1,613,0,6,7,desert_4,1,memory-2step-stake-s,553,1561447,0.0-19.0-0.0-0.59,A2XGVGSG5WR173,32CXT5U15JJVAEXBU2XNZL8A76W8U1,3IQ1VMJRYX0EVT0HJRRCO0NEELK9AA,2,1
60,1,object_09,object_08,401.0,1,1,728.0,0.3333333333333333,1,object_01,1,616,0,3,6,desert_5,1,memory-2step-stake-s,554,1569749,0.0-19.0-0.0-0.60,A2XGVGSG5WR173,32CXT5U15JJVAEXBU2XNZL8A76W8U1,3IQ1VMJRYX0EVT0HJRRCO0NEELK9AA,1,2
61,3,object_06,object_07,456.0,5,2,676.0,0.5555555555555556,1,object_01,5,641,0,5,7,library_6,1,memory-2step-stake-s,555,1578230,0.0-19.0-0.0-0.61,A2XGVGSG5WR173,32CXT5U15JJVAEXBU2XNZL8A76W8U1,3IQ1VMJRYX0EVT0HJRRCO0NEELK9AA,6,5
62,1,object_08,object_09,453.0,2,1,593.0,0.7777777777777778,2,object_02,1,648,0,5,7,desert_4,1,memory-2step-stake-s,556,1586867,0.0-19.0-0.0-0.62,A2XGVGSG5WR173,32CXT5U15JJVAEXBU2XNZL8A76W8U1,3IQ1VMJRYX0EVT0HJRRCO0NEELK9AA,2,1
63,4,object_05,object_03,412.0,7,2,675.0,0.5555555555555556,1,object_01,5,673,0,5,7,restaurant_1,1,memory-2step-stake-s,557,1595354,0.0-19.0-0.0-0.63,A2XGVGSG5WR173,32CXT5U15JJVAEXBU2XNZL8A76W8U1,3IQ1VMJRYX0EVT0HJRRCO0NEELK9AA,8,7
64,3,object_06,object_07,440.0,6,1,797.0,0.6666666666666666,2,object_02,5,703,0,1,6,library_4,1,memory-2step-stake-s,558,1604056,0.0-19.0-0.0-0.64,A2XGVGSG5WR173,32CXT5U15JJVAEXBU2XNZL8A76W8U1,3IQ1VMJRYX0EVT0HJRRCO0NEELK9AA,6,5
65,1,object_08,object_09,497.0,1,2,495.0,0.4444444444444444,1,object_01,5,723,0,4,8,desert_7,1,memory-2step-stake-s,559,1612229,0.0-19.0-0.0-0.65,A2XGVGSG5WR173,32CXT5U15JJVAEXBU2XNZL8A76W8U1,3IQ1VMJRYX0EVT0HJRRCO0NEELK9AA,2,1
66,1,object_08,object_09,406.0,1,2,473.0,0.6666666666666666,1,object_01,5,753,0,6,8,desert_2,1,memory-2step-stake-s,560,1620614,0.0-19.0-0.0-0.66,A2XGVGSG5WR173,32CXT5U15JJVAEXBU2XNZL8A76W8U1,3IQ1VMJRYX0EVT0HJRRCO0NEELK9AA,2,1
67,3,object_06,object_07,358.0,6,1,540.0,0.6666666666666666,2,object_02,5,783,0,5,6,library_4,1,memory-2step-stake-s,561,1629044,0.0-19.0-0.0-0.67,A2XGVGSG5WR173,32CXT5U15JJVAEXBU2XNZL8A76W8U1,3IQ1VMJRYX0EVT0HJRRCO0NEELK9AA,6,5
68,4,object_03,object_05,336.0,8,2,500.0,0.6666666666666666,2,object_02,5,813,0,6,6,restaurant_6,1,memory-2step-stake-s,562,1637459,0.0-19.0-0.0-0.68,A2XGVGSG5WR173,32CXT5U15JJVAEXBU2XNZL8A76W8U1,3IQ1VMJRYX0EVT0HJRRCO0NEELK9AA,7,8
69,3,object_07,object_06,376.0,6,2,1027.0,0.7777777777777778,2,object_02,5,848,0,4,7,library_2,1,memory-2step-stake-s,563,1646500,0.0-19.0-0.0-0.69,A2XGVGSG5WR173,32CXT5U15JJVAEXBU2XNZL8A76W8U1,3IQ1VMJRYX0EVT0HJRRCO0NEELK9AA,5,6
70,2,object_04,object_10,381.0,4,1,460.0,1.0,2,object_02,1,857,0,8,9,forest_2,1,memory-2step-stake-s,564,1655256,0.0-19.0-0.0-0.70,A2XGVGSG5WR173,32CXT5U15JJVAEXBU2XNZL8A76W8U1,3IQ1VMJRYX0EVT0HJRRCO0NEELK9AA,4,3
71,4,object_03,object_05,545.0,8,2,589.0,0.8888888888888888,2,object_02,5,897,0,7,8,restaurant_7,1,memory-2step-stake-s,565,1663966,0.0-19.0-0.0-0.71,A2XGVGSG5WR173,32CXT5U15JJVAEXBU2XNZL8A76W8U1,3IQ1VMJRYX0EVT0HJRRCO0NEELK9AA,7,8
72,1,object_08,object_09,398.0,2,1,970.0,1.0,2,object_02,1,906,0,9,9,desert_4,1,memory-2step-stake-s,566,1673163,0.0-19.0-0.0-0.72,A2XGVGSG5WR173,32CXT5U15JJVAEXBU2XNZL8A76W8U1,3IQ1VMJRYX0EVT0HJRRCO0NEELK9AA,2,1
73,1,object_09,object_08,447.0,1,1,565.0,1.0,1,object_01,5,951,0,9,7,desert_5,1,memory-2step-stake-s,567,1681954,0.0-19.0-0.0-0.73,A2XGVGSG5WR173,32CXT5U15JJVAEXBU2XNZL8A76W8U1,3IQ1VMJRYX0EVT0HJRRCO0NEELK9AA,1,2
74,3,object_06,object_07,410.0,5,2,530.0,0.5555555555555556,1,object_01,5,976,0,5,6,library_8,1,memory-2step-stake-s,568,1690286,0.0-19.0-0.0-0.74,A2XGVGSG5WR173,32CXT5U15JJVAEXBU2XNZL8A76W8U1,3IQ1VMJRYX0EVT0HJRRCO0NEELK9AA,6,5
75,3,object_06,object_07,397.0,6,1,842.0,0.7777777777777778,2,object_02,1,983,0,2,7,library_8,1,memory-2step-stake-s,569,1699144,0.0-19.0-0.0-0.75,A2XGVGSG5WR173,32CXT5U15JJVAEXBU2XNZL8A76W8U1,3IQ1VMJRYX0EVT0HJRRCO0NEELK9AA,6,5
76,1,object_09,object_08,332.0,2,2,247.0,0.8888888888888888,2,object_02,5,1023,0,0,8,desert_4,1,memory-2step-stake-s,570,1707503,0.0-19.0-0.0-0.76,A2XGVGSG5WR173,32CXT5U15JJVAEXBU2XNZL8A76W8U1,3IQ1VMJRYX0EVT0HJRRCO0NEELK9AA,1,2
77,4,object_03,object_05,317.0,7,1,428.0,0.1111111111111111,1,object_01,5,1028,0,1,8,restaurant_3,1,memory-2step-stake-s,571,1715309,0.0-19.0-0.0-0.77,A2XGVGSG5WR173,32CXT5U15JJVAEXBU2XNZL8A76W8U1,3IQ1VMJRYX0EVT0HJRRCO0NEELK9AA,7,8
78,3,object_06,object_07,358.0,6,1,502.0,0.6666666666666666,2,object_02,5,1058,0,1,6,library_2,1,memory-2step-stake-s,572,1723729,0.0-19.0-0.0-0.78,A2XGVGSG5WR173,32CXT5U15JJVAEXBU2XNZL8A76W8U1,3IQ1VMJRYX0EVT0HJRRCO0NEELK9AA,6,5
79,2,object_10,object_04,436.0,4,2,1032.0,0.6666666666666666,2,object_02,1,1064,0,2,6,forest_7,1,memory-2step-stake-s,573,1732704,0.0-19.0-0.0-0.79,A2XGVGSG5WR173,32CXT5U15JJVAEXBU2XNZL8A76W8U1,3IQ1VMJRYX0EVT0HJRRCO0NEELK9AA,3,4
80,1,object_09,object_08,552.0,1,1,803.0,0.3333333333333333,1,object_01,1,1067,0,3,8,desert_4,1,memory-2step-stake-s,574,1741103,0.0-19.0-0.0-0.80,A2XGVGSG5WR173,32CXT5U15JJVAEXBU2XNZL8A76W8U1,3IQ1VMJRYX0EVT0HJRRCO0NEELK9AA,1,2
81,2,object_04,object_10,428.0,3,2,658.0,0.4444444444444444,1,object_01,1,1071,0,4,7,forest_3,1,memory-2step-stake-s,575,1749443,0.0-19.0-0.0-0.81,A2XGVGSG5WR173,32CXT5U15JJVAEXBU2XNZL8A76W8U1,3IQ1VMJRYX0EVT0HJRRCO0NEELK9AA,4,3
82,3,object_07,object_06,297.0,5,1,462.0,0.4444444444444444,1,object_01,1,1075,0,4,9,library_2,1,memory-2step-stake-s,576,1757601,0.0-19.0-0.0-0.82,A2XGVGSG5WR173,32CXT5U15JJVAEXBU2XNZL8A76W8U1,3IQ1VMJRYX0EVT0HJRRCO0NEELK9AA,5,6
83,3,object_06,object_07,309.0,5,2,706.0,0.6666666666666666,1,object_01,1,1081,0,6,5,library_8,1,memory-2step-stake-s,577,1766213,0.0-19.0-0.0-0.83,A2XGVGSG5WR173,32CXT5U15JJVAEXBU2XNZL8A76W8U1,3IQ1VMJRYX0EVT0HJRRCO0NEELK9AA,6,5
84,1,object_08,object_09,504.0,2,1,883.0,0.4444444444444444,2,object_02,1,1085,0,7,4,desert_7,1,memory-2step-stake-s,578,1774783,0.0-19.0-0.0-0.84,A2XGVGSG5WR173,32CXT5U15JJVAEXBU2XNZL8A76W8U1,3IQ1VMJRYX0EVT0HJRRCO0NEELK9AA,2,1
85,3,object_06,object_07,591.0,5,2,454.0,0.5555555555555556,1,object_01,5,1110,0,5,4,library_4,1,memory-2step-stake-s,579,1783069,0.0-19.0-0.0-0.85,A2XGVGSG5WR173,32CXT5U15JJVAEXBU2XNZL8A76W8U1,3IQ1VMJRYX0EVT0HJRRCO0NEELK9AA,6,5
86,3,object_07,object_06,1021.0,5,1,674.0,0.4444444444444444,1,object_01,5,1130,0,4,1,library_6,1,memory-2step-stake-s,580,1791469,0.0-19.0-0.0-0.86,A2XGVGSG5WR173,32CXT5U15JJVAEXBU2XNZL8A76W8U1,3IQ1VMJRYX0EVT0HJRRCO0NEELK9AA,5,6
87,3,object_06,object_07,431.0,5,2,1081.0,0.3333333333333333,1,object_01,5,1145,0,3,3,library_2,1,memory-2step-stake-s,581,1800161,0.0-19.0-0.0-0.87,A2XGVGSG5WR173,32CXT5U15JJVAEXBU2XNZL8A76W8U1,3IQ1VMJRYX0EVT0HJRRCO0NEELK9AA,6,5
88,2,object_04,object_10,464.0,4,1,641.0,0.1111111111111111,2,object_02,1,1146,0,4,1,forest_7,1,memory-2step-stake-s,582,1808187,0.0-19.0-0.0-0.88,A2XGVGSG5WR173,32CXT5U15JJVAEXBU2XNZL8A76W8U1,3IQ1VMJRYX0EVT0HJRRCO0NEELK9AA,4,3
89,4,object_05,object_03,365.0,7,2,726.0,0.1111111111111111,1,object_01,5,1151,0,1,6,restaurant_7,1,memory-2step-stake-s,583,1816274,0.0-19.0-0.0-0.89,A2XGVGSG5WR173,32CXT5U15JJVAEXBU2XNZL8A76W8U1,3IQ1VMJRYX0EVT0HJRRCO0NEELK9AA,8,7
90,4,object_05,object_03,308.0,8,1,604.0,1.0,2,object_02,1,1160,0,4,9,restaurant_6,1,memory-2step-stake-s,584,1825132,0.0-19.0-0.0-0.90,A2XGVGSG5WR173,32CXT5U15JJVAEXBU2XNZL8A76W8U1,3IQ1VMJRYX0EVT0HJRRCO0NEELK9AA,8,7
91,4,object_03,object_05,310.0,8,2,569.0,1.0,2,object_02,5,1205,0,5,9,restaurant_1,1,memory-2step-stake-s,585,1833929,0.0-19.0-0.0-0.91,A2XGVGSG5WR173,32CXT5U15JJVAEXBU2XNZL8A76W8U1,3IQ1VMJRYX0EVT0HJRRCO0NEELK9AA,7,8
92,4,object_05,object_03,569.0,8,1,830.0,1.0,2,object_02,5,1250,0,5,9,restaurant_6,1,memory-2step-stake-s,586,1842983,0.0-19.0-0.0-0.92,A2XGVGSG5WR173,32CXT5U15JJVAEXBU2XNZL8A76W8U1,3IQ1VMJRYX0EVT0HJRRCO0NEELK9AA,8,7
93,3,object_06,object_07,443.0,6,1,756.0,0.7777777777777778,2,object_02,5,1285,0,6,7,library_6,1,memory-2step-stake-s,587,1851763,0.0-19.0-0.0-0.93,A2XGVGSG5WR173,32CXT5U15JJVAEXBU2XNZL8A76W8U1,3IQ1VMJRYX0EVT0HJRRCO0NEELK9AA,6,5
94,2,object_04,object_10,838.0,3,2,1143.0,0.7777777777777778,1,object_01,1,1292,0,7,6,forest_2,1,memory-2step-stake-s,588,1860950,0.0-19.0-0.0-0.94,A2XGVGSG5WR173,32CXT5U15JJVAEXBU2XNZL8A76W8U1,3IQ1VMJRYX0EVT0HJRRCO0NEELK9AA,4,3
95,2,object_10,object_04,350.0,3,1,581.0,0.7777777777777778,1,object_01,1,1299,0,7,6,forest_4,1,memory-2step-stake-s,589,1869550,0.0-19.0-0.0-0.95,A2XGVGSG5WR173,32CXT5U15JJVAEXBU2XNZL8A76W8U1,3IQ1VMJRYX0EVT0HJRRCO0NEELK9AA,3,4
96,4,object_03,object_05,482.0,8,2,525.0,0.6666666666666666,2,object_02,5,1329,0,7,6,restaurant_3,1,memory-2step-stake-s,590,1877979,0.0-19.0-0.0-0.96,A2XGVGSG5WR173,32CXT5U15JJVAEXBU2XNZL8A76W8U1,3IQ1VMJRYX0EVT0HJRRCO0NEELK9AA,7,8
97,3,object_07,object_06,624.0,5,1,1316.0,0.8888888888888888,1,object_01,5,1369,0,8,4,library_8,1,memory-2step-stake-s,591,1887478,0.0-19.0-0.0-0.97,A2XGVGSG5WR173,32CXT5U15JJVAEXBU2XNZL8A76W8U1,3IQ1VMJRYX0EVT0HJRRCO0NEELK9AA,5,6
98,2,object_04,object_10,400.0,3,2,1280.0,0.5555555555555556,1,object_01,1,1374,0,5,3,forest_7,1,memory-2step-stake-s,592,1896640,0.0-19.0-0.0-0.98,A2XGVGSG5WR173,32CXT5U15JJVAEXBU2XNZL8A76W8U1,3IQ1VMJRYX0EVT0HJRRCO0NEELK9AA,4,3
99,1,object_08,object_09,887.0,2,1,1380.0,0.2222222222222222,2,object_02,1,1376,0,8,2,desert_7,1,memory-2step-stake-s,593,1905506,0.0-19.0-0.0-0.99,A2XGVGSG5WR173,32CXT5U15JJVAEXBU2XNZL8A76W8U1,3IQ1VMJRYX0EVT0HJRRCO0NEELK9AA,2,1
100,2,object_04,object_10,659.0,4,1,822.0,0.4444444444444444,2,object_02,1,1380,0,8,4,forest_7,1,memory-2step-stake-s,594,1914020,0.0-19.0-0.0-0.100,A2XGVGSG5WR173,32CXT5U15JJVAEXBU2XNZL8A76W8U1,3IQ1VMJRYX0EVT0HJRRCO0NEELK9AA,4,3
101,2,object_04,object_10,638.0,3,2,718.0,0.7777777777777778,1,object_01,1,1387,0,7,3,forest_3,1,memory-2step-stake-s,595,1922765,0.0-19.0-0.0-0.101,A2XGVGSG5WR173,32CXT5U15JJVAEXBU2XNZL8A76W8U1,3IQ1VMJRYX0EVT0HJRRCO0NEELK9AA,4,3
102,3,object_06,object_07,352.0,6,1,-1.0,0.0,2,object_02,1,1387,0,7,3,library_8,1,memory-2step-stake-s,596,1931311,0.0-19.0-0.0-0.102,A2XGVGSG5WR173,32CXT5U15JJVAEXBU2XNZL8A76W8U1,3IQ1VMJRYX0EVT0HJRRCO0NEELK9AA,6,5
103,2,object_04,object_10,387.0,4,1,709.0,0.4444444444444444,2,object_02,1,1391,0,5,4,forest_2,1,memory-2step-stake-s,597,1939714,0.0-19.0-0.0-0.103,A2XGVGSG5WR173,32CXT5U15JJVAEXBU2XNZL8A76W8U1,3IQ1VMJRYX0EVT0HJRRCO0NEELK9AA,4,3
104,2,object_10,object_04,349.0,4,2,641.0,0.5555555555555556,2,object_02,1,1396,0,6,5,forest_3,1,memory-2step-stake-s,598,1948172,0.0-19.0-0.0-0.104,A2XGVGSG5WR173,32CXT5U15JJVAEXBU2XNZL8A76W8U1,3IQ1VMJRYX0EVT0HJRRCO0NEELK9AA,3,4
105,3,object_06,object_07,1150.0,5,2,951.0,0.8888888888888888,1,object_01,5,1436,0,8,5,library_6,1,memory-2step-stake-s,599,1957282,0.0-19.0-0.0-0.105,A2XGVGSG5WR173,32CXT5U15JJVAEXBU2XNZL8A76W8U1,3IQ1VMJRYX0EVT0HJRRCO0NEELK9AA,6,5
106,1,object_09,object_08,379.0,1,1,903.0,0.5555555555555556,1,object_01,1,1441,0,5,5,desert_2,1,memory-2step-stake-s,600,1966008,0.0-19.0-0.0-0.106,A2XGVGSG5WR173,32CXT5U15JJVAEXBU2XNZL8A76W8U1,3IQ1VMJRYX0EVT0HJRRCO0NEELK9AA,1,2
107,3,object_06,object_07,333.0,5,2,1085.0,0.6666666666666666,1,object_01,1,1447,0,6,8,library_4,1,memory-2step-stake-s,601,1975006,0.0-19.0-0.0-0.107,A2XGVGSG5WR173,32CXT5U15JJVAEXBU2XNZL8A76W8U1,3IQ1VMJRYX0EVT0HJRRCO0NEELK9AA,6,5
108,4,object_05,object_03,343.0,8,1,668.0,0.5555555555555556,2,object_02,5,1472,0,6,5,restaurant_6,1,memory-2step-stake-s,602,1983475,0.0-19.0-0.0-0.108,A2XGVGSG5WR173,32CXT5U15JJVAEXBU2XNZL8A76W8U1,3IQ1VMJRYX0EVT0HJRRCO0NEELK9AA,8,7
109,1,object_09,object_08,327.0,2,2,407.0,0.5555555555555556,2,object_02,1,1477,0,7,5,desert_4,1,memory-2step-stake-s,603,1991681,0.0-19.0-0.0-0.109,A2XGVGSG5WR173,32CXT5U15JJVAEXBU2XNZL8A76W8U1,3IQ1VMJRYX0EVT0HJRRCO0NEELK9AA,1,2
110,4,object_03,object_05,367.0,7,1,483.0,0.7777777777777778,1,object_01,5,1512,0,7,7,restaurant_1,1,memory-2step-stake-s,604,2000186,0.0-19.0-0.0-0.110,A2XGVGSG5WR173,32CXT5U15JJVAEXBU2XNZL8A76W8U1,3IQ1VMJRYX0EVT0HJRRCO0NEELK9AA,7,8
111,4,object_05,object_03,541.0,7,2,751.0,0.6666666666666666,1,object_01,1,1518,0,6,6,restaurant_7,1,memory-2step-stake-s,605,2008853,0.0-19.0-0.0-0.111,A2XGVGSG5WR173,32CXT5U15JJVAEXBU2XNZL8A76W8U1,3IQ1VMJRYX0EVT0HJRRCO0NEELK9AA,8,7
112,2,object_04,object_10,684.0,4,1,1125.0,0.8888888888888888,2,object_02,1,1526,0,4,8,forest_7,1,memory-2step-stake-s,606,2018118,0.0-19.0-0.0-0.112,A2XGVGSG5WR173,32CXT5U15JJVAEXBU2XNZL8A76W8U1,3IQ1VMJRYX0EVT0HJRRCO0NEELK9AA,4,3
113,2,object_10,object_04,662.0,3,1,1399.0,0.3333333333333333,1,object_01,1,1529,0,3,9,forest_3,1,memory-2step-stake-s,607,2027113,0.0-19.0-0.0-0.113,A2XGVGSG5WR173,32CXT5U15JJVAEXBU2XNZL8A76W8U1,3IQ1VMJRYX0EVT0HJRRCO0NEELK9AA,3,4
114,4,object_05,object_03,652.0,7,2,719.0,0.3333333333333333,1,object_01,5,1544,0,3,6,restaurant_1,1,memory-2step-stake-s,608,2035421,0.0-19.0-0.0-0.114,A2XGVGSG5WR173,32CXT5U15JJVAEXBU2XNZL8A76W8U1,3IQ1VMJRYX0EVT0HJRRCO0NEELK9AA,8,7
115,1,object_09,object_08,665.0,1,1,-1.0,0.0,1,object_01,1,1544,0,3,5,desert_2,1,memory-2step-stake-s,609,2043967,0.0-19.0-0.0-0.115,A2XGVGSG5WR173,32CXT5U15JJVAEXBU2XNZL8A76W8U1,3IQ1VMJRYX0EVT0HJRRCO0NEELK9AA,1,2
116,2,object_04,object_10,503.0,3,2,702.0,0.4444444444444444,1,object_01,1,1548,0,4,4,forest_4,1,memory-2step-stake-s,610,2052377,0.0-19.0-0.0-0.116,A2XGVGSG5WR173,32CXT5U15JJVAEXBU2XNZL8A76W8U1,3IQ1VMJRYX0EVT0HJRRCO0NEELK9AA,4,3
117,3,object_07,object_06,392.0,5,1,370.0,0.1111111111111111,1,object_01,1,1549,0,1,3,library_4,1,memory-2step-stake-s,611,2060117,0.0-19.0-0.0-0.117,A2XGVGSG5WR173,32CXT5U15JJVAEXBU2XNZL8A76W8U1,3IQ1VMJRYX0EVT0HJRRCO0NEELK9AA,5,6
118,4,object_05,object_03,310.0,7,2,378.0,0.1111111111111111,1,object_01,5,1554,0,1,1,restaurant_7,1,memory-2step-stake-s,612,2067854,0.0-19.0-0.0-0.118,A2XGVGSG5WR173,32CXT5U15JJVAEXBU2XNZL8A76W8U1,3IQ1VMJRYX0EVT0HJRRCO0NEELK9AA,8,7
119,3,object_06,object_07,344.0,6,1,625.0,0.1111111111111111,2,object_02,5,1559,0,2,1,library_2,1,memory-2step-stake-s,613,2075867,0.0-19.0-0.0-0.119,A2XGVGSG5WR173,32CXT5U15JJVAEXBU2XNZL8A76W8U1,3IQ1VMJRYX0EVT0HJRRCO0NEELK9AA,6,5
120,2,object_10,object_04,800.0,4,2,522.0,0.0,2,object_02,1,1559,0,6,0,forest_7,1,memory-2step-stake-s,614,2083639,0.0-19.0-0.0-0.120,A2XGVGSG5WR173,32CXT5U15JJVAEXBU2XNZL8A76W8U1,3IQ1VMJRYX0EVT0HJRRCO0NEELK9AA,3,4
121,1,object_09,object_08,285.0,2,2,-1.0,0.0,2,object_02,5,1559,0,4,1,desert_5,1,memory-2step-stake-s,615,2092207,0.0-19.0-0.0-0.121,A2XGVGSG5WR173,32CXT5U15JJVAEXBU2XNZL8A76W8U1,3IQ1VMJRYX0EVT0HJRRCO0NEELK9AA,1,2
122,2,object_04,object_10,319.0,4,1,531.0,0.0,2,object_02,1,1559,0,3,0,forest_2,1,memory-2step-stake-s,616,2100007,0.0-19.0-0.0-0.122,A2XGVGSG5WR173,32CXT5U15JJVAEXBU2XNZL8A76W8U1,3IQ1VMJRYX0EVT0HJRRCO0NEELK9AA,4,3
123,3,object_06,object_07,301.0,6,1,401.0,0.2222222222222222,2,object_02,5,1569,0,4,2,library_8,1,memory-2step-stake-s,617,2107878,0.0-19.0-0.0-0.123,A2XGVGSG5WR173,32CXT5U15JJVAEXBU2XNZL8A76W8U1,3IQ1VMJRYX0EVT0HJRRCO0NEELK9AA,6,5
124,2,object_10,object_04,356.0,4,2,761.0,0.4444444444444444,2,object_02,1,1573,0,4,4,forest_7,1,memory-2step-stake-s,618,2116333,0.0-19.0-0.0-0.124,A2XGVGSG5WR173,32CXT5U15JJVAEXBU2XNZL8A76W8U1,3IQ1VMJRYX0EVT0HJRRCO0NEELK9AA,3,4
125,1,object_08,object_09,288.0,2,1,868.0,0.4444444444444444,2,object_02,1,1577,0,9,4,desert_7,1,memory-2step-stake-s,619,2124885,0.0-19.0-0.0-0.125,A2XGVGSG5WR173,32CXT5U15JJVAEXBU2XNZL8A76W8U1,3IQ1VMJRYX0EVT0HJRRCO0NEELK9AA,2,1
126,3,object_07,object_06,342.0,6,2,1043.0,0.3333333333333333,2,object_02,5,1592,0,8,3,library_6,1,memory-2step-stake-s,620,2133498,0.0-19.0-0.0-0.126,A2XGVGSG5WR173,32CXT5U15JJVAEXBU2XNZL8A76W8U1,3IQ1VMJRYX0EVT0HJRRCO0NEELK9AA,5,6
127,4,object_03,object_05,312.0,7,1,696.0,0.8888888888888888,1,object_01,5,1632,0,8,4,restaurant_3,1,memory-2step-stake-s,621,2142319,0.0-19.0-0.0-0.127,A2XGVGSG5WR173,32CXT5U15JJVAEXBU2XNZL8A76W8U1,3IQ1VMJRYX0EVT0HJRRCO0NEELK9AA,7,8
128,3,object_06,object_07,485.0,5,2,382.0,0.6666666666666666,1,object_01,5,1662,0,6,2,library_6,1,memory-2step-stake-s,623,2304012,0.0-19.0-0.1-0.128,A2XGVGSG5WR173,32CXT5U15JJVAEXBU2XNZL8A76W8U1,3IQ1VMJRYX0EVT0HJRRCO0NEELK9AA,6,5
129,2,object_10,object_04,379.0,3,1,435.0,0.8888888888888888,1,object_01,1,1670,0,8,4,forest_4,1,memory-2step-stake-s,624,2312589,0.0-19.0-0.1-0.129,A2XGVGSG5WR173,32CXT5U15JJVAEXBU2XNZL8A76W8U1,3IQ1VMJRYX0EVT0HJRRCO0NEELK9AA,3,4
130,3,object_07,object_06,308.0,6,2,419.0,0.3333333333333333,2,object_02,5,1685,0,8,3,library_6,1,memory-2step-stake-s,625,2320596,0.0-19.0-0.1-0.130,A2XGVGSG5WR173,32CXT5U15JJVAEXBU2XNZL8A76W8U1,3IQ1VMJRYX0EVT0HJRRCO0NEELK9AA,5,6
131,4,object_05,object_03,509.0,7,2,738.0,0.8888888888888888,1,object_01,5,1725,0,8,2,restaurant_6,1,memory-2step-stake-s,626,2329470,0.0-19.0-0.1-0.131,A2XGVGSG5WR173,32CXT5U15JJVAEXBU2XNZL8A76W8U1,3IQ1VMJRYX0EVT0HJRRCO0NEELK9AA,8,7
132,4,object_05,object_03,299.0,8,1,511.0,0.4444444444444444,2,object_02,1,1729,0,8,4,restaurant_7,1,memory-2step-stake-s,627,2337690,0.0-19.0-0.1-0.132,A2XGVGSG5WR173,32CXT5U15JJVAEXBU2XNZL8A76W8U1,3IQ1VMJRYX0EVT0HJRRCO0NEELK9AA,8,7
133,4,object_03,object_05,357.0,8,2,986.0,0.4444444444444444,2,object_02,5,1749,0,6,4,restaurant_3,1,memory-2step-stake-s,628,2346377,0.0-19.0-0.1-0.133,A2XGVGSG5WR173,32CXT5U15JJVAEXBU2XNZL8A76W8U1,3IQ1VMJRYX0EVT0HJRRCO0NEELK9AA,7,8
134,3,object_07,object_06,439.0,5,1,678.0,0.8888888888888888,1,object_01,5,1789,0,8,2,library_4,1,memory-2step-stake-s,629,2355186,0.0-19.0-0.1-0.134,A2XGVGSG5WR173,32CXT5U15JJVAEXBU2XNZL8A76W8U1,3IQ1VMJRYX0EVT0HJRRCO0NEELK9AA,5,6
135,4,object_05,object_03,436.0,7,2,585.0,0.7777777777777778,1,object_01,1,1796,0,7,2,restaurant_6,1,memory-2step-stake-s,630,2363778,0.0-19.0-0.1-0.135,A2XGVGSG5WR173,32CXT5U15JJVAEXBU2XNZL8A76W8U1,3IQ1VMJRYX0EVT0HJRRCO0NEELK9AA,8,7
136,1,object_09,object_08,509.0,1,1,535.0,0.6666666666666666,1,object_01,1,1802,0,6,2,desert_4,1,memory-2step-stake-s,631,2372216,0.0-19.0-0.1-0.136,A2XGVGSG5WR173,32CXT5U15JJVAEXBU2XNZL8A76W8U1,3IQ1VMJRYX0EVT0HJRRCO0NEELK9AA,1,2
137,1,object_09,object_08,801.0,2,2,614.0,0.0,2,object_02,1,1802,0,7,0,desert_5,1,memory-2step-stake-s,632,2380074,0.0-19.0-0.1-0.137,A2XGVGSG5WR173,32CXT5U15JJVAEXBU2XNZL8A76W8U1,3IQ1VMJRYX0EVT0HJRRCO0NEELK9AA,1,2
138,2,object_10,object_04,312.0,3,1,350.0,1.0,1,object_01,5,1847,0,9,1,forest_2,1,memory-2step-stake-s,633,2388672,0.0-19.0-0.1-0.138,A2XGVGSG5WR173,32CXT5U15JJVAEXBU2XNZL8A76W8U1,3IQ1VMJRYX0EVT0HJRRCO0NEELK9AA,3,4
139,4,object_03,object_05,366.0,8,2,562.0,0.1111111111111111,2,object_02,5,1852,0,7,1,restaurant_1,1,memory-2step-stake-s,634,2396599,0.0-19.0-0.1-0.139,A2XGVGSG5WR173,32CXT5U15JJVAEXBU2XNZL8A76W8U1,3IQ1VMJRYX0EVT0HJRRCO0NEELK9AA,7,8
140,2,object_04,object_10,309.0,4,1,691.0,0.0,2,object_02,1,1852,0,8,0,forest_3,1,memory-2step-stake-s,635,2404536,0.0-19.0-0.1-0.140,A2XGVGSG5WR173,32CXT5U15JJVAEXBU2XNZL8A76W8U1,3IQ1VMJRYX0EVT0HJRRCO0NEELK9AA,4,3
141,4,object_05,object_03,310.0,8,1,406.0,0.3333333333333333,2,object_02,5,1867,0,5,3,restaurant_3,1,memory-2step-stake-s,636,2412515,0.0-19.0-0.1-0.141,A2XGVGSG5WR173,32CXT5U15JJVAEXBU2XNZL8A76W8U1,3IQ1VMJRYX0EVT0HJRRCO0NEELK9AA,8,7
142,3,object_06,object_07,470.0,5,2,371.0,1.0,1,object_01,5,1912,0,9,3,library_8,1,memory-2step-stake-s,637,2421100,0.0-19.0-0.1-0.142,A2XGVGSG5WR173,32CXT5U15JJVAEXBU2XNZL8A76W8U1,3IQ1VMJRYX0EVT0HJRRCO0NEELK9AA,6,5
143,4,object_05,object_03,313.0,8,1,561.0,0.2222222222222222,2,object_02,5,1922,0,6,2,restaurant_1,1,memory-2step-stake-s,638,2429138,0.0-19.0-0.1-0.143,A2XGVGSG5WR173,32CXT5U15JJVAEXBU2XNZL8A76W8U1,3IQ1VMJRYX0EVT0HJRRCO0NEELK9AA,8,7
144,2,object_10,object_04,526.0,4,2,590.0,0.4444444444444444,2,object_02,1,1926,0,4,4,forest_2,1,memory-2step-stake-s,639,2437423,0.0-19.0-0.1-0.144,A2XGVGSG5WR173,32CXT5U15JJVAEXBU2XNZL8A76W8U1,3IQ1VMJRYX0EVT0HJRRCO0NEELK9AA,3,4
145,1,object_09,object_08,284.0,1,1,446.0,0.5555555555555556,1,object_01,1,1931,0,5,7,desert_7,1,memory-2step-stake-s,640,2445656,0.0-19.0-0.1-0.145,A2XGVGSG5WR173,32CXT5U15JJVAEXBU2XNZL8A76W8U1,3IQ1VMJRYX0EVT0HJRRCO0NEELK9AA,1,2
146,1,object_08,object_09,239.0,2,1,637.0,0.8888888888888888,2,object_02,1,1939,0,8,8,desert_5,1,memory-2step-stake-s,641,2454433,0.0-19.0-0.1-0.146,A2XGVGSG5WR173,32CXT5U15JJVAEXBU2XNZL8A76W8U1,3IQ1VMJRYX0EVT0HJRRCO0NEELK9AA,2,1
147,1,object_09,object_08,336.0,1,1,576.0,0.8888888888888888,1,object_01,1,1947,0,8,5,desert_7,1,memory-2step-stake-s,642,2463140,0.0-19.0-0.1-0.147,A2XGVGSG5WR173,32CXT5U15JJVAEXBU2XNZL8A76W8U1,3IQ1VMJRYX0EVT0HJRRCO0NEELK9AA,1,2
148,4,object_05,object_03,736.0,8,1,492.0,0.4444444444444444,2,object_02,5,1967,0,6,4,restaurant_3,1,memory-2step-stake-s,643,2471320,0.0-19.0-0.1-0.148,A2XGVGSG5WR173,32CXT5U15JJVAEXBU2XNZL8A76W8U1,3IQ1VMJRYX0EVT0HJRRCO0NEELK9AA,8,7
149,2,object_10,object_04,1191.0,4,2,-1.0,0.0,2,object_02,1,1967,0,6,5,forest_2,1,memory-2step-stake-s,644,2479860,0.0-19.0-0.1-0.149,A2XGVGSG5WR173,32CXT5U15JJVAEXBU2XNZL8A76W8U1,3IQ1VMJRYX0EVT0HJRRCO0NEELK9AA,3,4
150,3,object_06,object_07,458.0,6,1,639.0,0.5555555555555556,2,object_02,5,1992,0,8,5,library_6,1,memory-2step-stake-s,645,2488300,0.0-19.0-0.1-0.150,A2XGVGSG5WR173,32CXT5U15JJVAEXBU2XNZL8A76W8U1,3IQ1VMJRYX0EVT0HJRRCO0NEELK9AA,6,5
151,4,object_05,object_03,815.0,7,2,600.0,0.8888888888888888,1,object_01,1,2000,0,8,3,restaurant_6,1,memory-2step-stake-s,646,2497120,0.0-19.0-0.1-0.151,A2XGVGSG5WR173,32CXT5U15JJVAEXBU2XNZL8A76W8U1,3IQ1VMJRYX0EVT0HJRRCO0NEELK9AA,8,7
152,3,object_06,object_07,356.0,6,1,595.0,0.2222222222222222,2,object_02,5,2010,0,7,2,library_2,1,memory-2step-stake-s,647,2505211,0.0-19.0-0.1-0.152,A2XGVGSG5WR173,32CXT5U15JJVAEXBU2XNZL8A76W8U1,3IQ1VMJRYX0EVT0HJRRCO0NEELK9AA,6,5
153,3,object_07,object_06,408.0,6,2,462.0,0.4444444444444444,2,object_02,5,2030,0,8,4,library_6,1,memory-2step-stake-s,648,2513400,0.0-19.0-0.1-0.153,A2XGVGSG5WR173,32CXT5U15JJVAEXBU2XNZL8A76W8U1,3IQ1VMJRYX0EVT0HJRRCO0NEELK9AA,5,6
154,4,object_05,object_03,378.0,8,1,680.0,0.4444444444444444,2,object_02,1,2034,0,6,4,restaurant_6,1,memory-2step-stake-s,649,2521778,0.0-19.0-0.1-0.154,A2XGVGSG5WR173,32CXT5U15JJVAEXBU2XNZL8A76W8U1,3IQ1VMJRYX0EVT0HJRRCO0NEELK9AA,8,7
155,1,object_08,object_09,449.0,1,2,490.0,0.4444444444444444,1,object_01,1,2038,0,4,2,desert_5,1,memory-2step-stake-s,650,2529954,0.0-19.0-0.1-0.155,A2XGVGSG5WR173,32CXT5U15JJVAEXBU2XNZL8A76W8U1,3IQ1VMJRYX0EVT0HJRRCO0NEELK9AA,2,1
156,1,object_08,object_09,413.0,2,1,997.0,0.2222222222222222,2,object_02,1,2040,0,3,2,desert_2,1,memory-2step-stake-s,651,2538421,0.0-19.0-0.1-0.156,A2XGVGSG5WR173,32CXT5U15JJVAEXBU2XNZL8A76W8U1,3IQ1VMJRYX0EVT0HJRRCO0NEELK9AA,2,1
157,3,object_06,object_07,424.0,5,2,853.0,0.3333333333333333,1,object_01,5,2055,0,3,3,library_4,1,memory-2step-stake-s,652,2546836,0.0-19.0-0.1-0.157,A2XGVGSG5WR173,32CXT5U15JJVAEXBU2XNZL8A76W8U1,3IQ1VMJRYX0EVT0HJRRCO0NEELK9AA,6,5
158,3,object_06,object_07,334.0,6,1,391.0,0.3333333333333333,2,object_02,5,2070,0,0,3,library_2,1,memory-2step-stake-s,653,2554826,0.0-19.0-0.1-0.158,A2XGVGSG5WR173,32CXT5U15JJVAEXBU2XNZL8A76W8U1,3IQ1VMJRYX0EVT0HJRRCO0NEELK9AA,6,5
159,2,object_10,object_04,451.0,4,2,766.0,0.0,2,object_02,5,2070,0,1,0,forest_2,1,memory-2step-stake-s,654,2562856,0.0-19.0-0.1-0.159,A2XGVGSG5WR173,32CXT5U15JJVAEXBU2XNZL8A76W8U1,3IQ1VMJRYX0EVT0HJRRCO0NEELK9AA,3,4
160,3,object_07,object_06,572.0,6,2,741.0,0.2222222222222222,2,object_02,5,2080,0,1,2,library_4,1,memory-2step-stake-s,655,2571081,0.0-19.0-0.1-0.160,A2XGVGSG5WR173,32CXT5U15JJVAEXBU2XNZL8A76W8U1,3IQ1VMJRYX0EVT0HJRRCO0NEELK9AA,5,6
161,1,object_09,object_08,445.0,1,1,852.0,0.1111111111111111,1,object_01,1,2081,0,1,0,desert_5,1,memory-2step-stake-s,656,2579281,0.0-19.0-0.1-0.161,A2XGVGSG5WR173,32CXT5U15JJVAEXBU2XNZL8A76W8U1,3IQ1VMJRYX0EVT0HJRRCO0NEELK9AA,1,2
162,3,object_07,object_06,415.0,6,2,651.0,0.1111111111111111,2,object_02,5,2086,0,0,1,library_2,1,memory-2step-stake-s,657,2587299,0.0-19.0-0.1-0.162,A2XGVGSG5WR173,32CXT5U15JJVAEXBU2XNZL8A76W8U1,3IQ1VMJRYX0EVT0HJRRCO0NEELK9AA,5,6
163,3,object_06,object_07,365.0,6,1,734.0,0.1111111111111111,2,object_02,5,2091,0,1,1,library_4,1,memory-2step-stake-s,658,2595411,0.0-19.0-0.1-0.163,A2XGVGSG5WR173,32CXT5U15JJVAEXBU2XNZL8A76W8U1,3IQ1VMJRYX0EVT0HJRRCO0NEELK9AA,6,5
164,1,object_08,object_09,328.0,1,2,396.0,0.1111111111111111,1,object_01,5,2096,0,1,2,desert_4,1,memory-2step-stake-s,659,2603162,0.0-19.0-0.1-0.164,A2XGVGSG5WR173,32CXT5U15JJVAEXBU2XNZL8A76W8U1,3IQ1VMJRYX0EVT0HJRRCO0NEELK9AA,2,1
165,1,object_08,object_09,590.0,2,1,1173.0,0.4444444444444444,2,object_02,5,2116,0,0,4,desert_7,1,memory-2step-stake-s,660,2612025,0.0-19.0-0.1-0.165,A2XGVGSG5WR173,32CXT5U15JJVAEXBU2XNZL8A76W8U1,3IQ1VMJRYX0EVT0HJRRCO0NEELK9AA,2,1
166,3,object_06,object_07,340.0,5,2,923.0,0.2222222222222222,1,object_01,5,2126,0,2,5,library_6,1,memory-2step-stake-s,661,2620433,0.0-19.0-0.1-0.166,A2XGVGSG5WR173,32CXT5U15JJVAEXBU2XNZL8A76W8U1,3IQ1VMJRYX0EVT0HJRRCO0NEELK9AA,6,5
167,1,object_09,object_08,345.0,1,1,840.0,0.2222222222222222,1,object_01,5,2136,0,2,3,desert_2,1,memory-2step-stake-s,662,2628754,0.0-19.0-0.1-0.167,A2XGVGSG5WR173,32CXT5U15JJVAEXBU2XNZL8A76W8U1,3IQ1VMJRYX0EVT0HJRRCO0NEELK9AA,1,2
168,1,object_08,object_09,416.0,2,1,1065.0,0.7777777777777778,2,object_02,5,2171,0,4,7,desert_5,1,memory-2step-stake-s,663,2637857,0.0-19.0-0.1-0.168,A2XGVGSG5WR173,32CXT5U15JJVAEXBU2XNZL8A76W8U1,3IQ1VMJRYX0EVT0HJRRCO0NEELK9AA,2,1
169,1,object_08,object_09,525.0,2,1,-1.0,0.0,2,object_02,1,2171,0,4,8,desert_2,1,memory-2step-stake-s,664,2646431,0.0-19.0-0.1-0.169,A2XGVGSG5WR173,32CXT5U15JJVAEXBU2XNZL8A76W8U1,3IQ1VMJRYX0EVT0HJRRCO0NEELK9AA,2,1
170,4,object_05,object_03,317.0,7,2,711.0,0.6666666666666666,1,object_01,5,2201,0,6,9,restaurant_1,1,memory-2step-stake-s,665,2655055,0.0-19.0-0.1-0.170,A2XGVGSG5WR173,32CXT5U15JJVAEXBU2XNZL8A76W8U1,3IQ1VMJRYX0EVT0HJRRCO0NEELK9AA,8,7
171,1,object_08,object_09,271.0,2,1,704.0,0.6666666666666666,2,object_02,1,2207,0,8,6,desert_7,1,memory-2step-stake-s,666,2663681,0.0-19.0-0.1-0.171,A2XGVGSG5WR173,32CXT5U15JJVAEXBU2XNZL8A76W8U1,3IQ1VMJRYX0EVT0HJRRCO0NEELK9AA,2,1
172,2,object_04,object_10,599.0,3,2,688.0,0.5555555555555556,1,object_01,1,2212,0,5,5,forest_3,1,memory-2step-stake-s,667,2672211,0.0-19.0-0.1-0.172,A2XGVGSG5WR173,32CXT5U15JJVAEXBU2XNZL8A76W8U1,3IQ1VMJRYX0EVT0HJRRCO0NEELK9AA,4,3
173,2,object_04,object_10,345.0,4,1,649.0,0.5555555555555556,2,object_02,1,2217,0,9,5,forest_2,1,memory-2step-stake-s,668,2680684,0.0-19.0-0.1-0.173,A2XGVGSG5WR173,32CXT5U15JJVAEXBU2XNZL8A76W8U1,3IQ1VMJRYX0EVT0HJRRCO0NEELK9AA,4,3
174,4,object_03,object_05,391.0,8,2,494.0,0.5555555555555556,2,object_02,5,2242,0,9,5,restaurant_3,1,memory-2step-stake-s,669,2688970,0.0-19.0-0.1-0.174,A2XGVGSG5WR173,32CXT5U15JJVAEXBU2XNZL8A76W8U1,3IQ1VMJRYX0EVT0HJRRCO0NEELK9AA,7,8
175,3,object_07,object_06,310.0,5,1,402.0,0.8888888888888888,1,object_01,5,2282,0,8,5,library_8,1,memory-2step-stake-s,670,2697554,0.0-19.0-0.1-0.175,A2XGVGSG5WR173,32CXT5U15JJVAEXBU2XNZL8A76W8U1,3IQ1VMJRYX0EVT0HJRRCO0NEELK9AA,5,6
176,4,object_03,object_05,298.0,8,2,-1.0,0.0,2,object_02,5,2282,0,8,5,restaurant_3,1,memory-2step-stake-s,671,2706091,0.0-19.0-0.1-0.176,A2XGVGSG5WR173,32CXT5U15JJVAEXBU2XNZL8A76W8U1,3IQ1VMJRYX0EVT0HJRRCO0NEELK9AA,7,8
177,4,object_03,object_05,410.0,7,1,510.0,0.8888888888888888,1,object_01,5,2322,0,8,2,restaurant_1,1,memory-2step-stake-s,672,2714727,0.0-19.0-0.1-0.177,A2XGVGSG5WR173,32CXT5U15JJVAEXBU2XNZL8A76W8U1,3IQ1VMJRYX0EVT0HJRRCO0NEELK9AA,7,8
178,3,object_07,object_06,-1.0,-1,-1,-1.0,0.0,-,0,1,2322,0,7,0,library_6,1,memory-2step-stake-s,673,2721264,0.0-19.0-0.1-0.178,A2XGVGSG5WR173,32CXT5U15JJVAEXBU2XNZL8A76W8U1,3IQ1VMJRYX0EVT0HJRRCO0NEELK9AA,5,6
179,2,object_10,object_04,438.0,3,1,564.0,0.5555555555555556,1,object_01,1,2327,0,5,4,forest_2,1,memory-2step-stake-s,674,2729626,0.0-19.0-0.1-0.179,A2XGVGSG5WR173,32CXT5U15JJVAEXBU2XNZL8A76W8U1,3IQ1VMJRYX0EVT0HJRRCO0NEELK9AA,3,4
180,3,object_06,object_07,1354.0,5,2,-1.0,0.0,1,object_01,1,2327,0,4,5,library_4,1,memory-2step-stake-s,675,2738190,0.0-19.0-0.1-0.180,A2XGVGSG5WR173,32CXT5U15JJVAEXBU2XNZL8A76W8U1,3IQ1VMJRYX0EVT0HJRRCO0NEELK9AA,6,5
181,3,object_07,object_06,418.0,5,1,1014.0,0.7777777777777778,1,object_01,1,2334,0,7,2,library_2,1,memory-2step-stake-s,676,2747235,0.0-19.0-0.1-0.181,A2XGVGSG5WR173,32CXT5U15JJVAEXBU2XNZL8A76W8U1,3IQ1VMJRYX0EVT0HJRRCO0NEELK9AA,5,6
182,2,object_04,object_10,429.0,3,2,-1.0,0.0,1,object_01,1,2334,0,7,2,forest_4,1,memory-2step-stake-s,677,2755799,0.0-19.0-0.1-0.182,A2XGVGSG5WR173,32CXT5U15JJVAEXBU2XNZL8A76W8U1,3IQ1VMJRYX0EVT0HJRRCO0NEELK9AA,4,3
183,1,object_08,object_09,282.0,2,1,552.0,0.2222222222222222,2,object_02,1,2336,0,5,2,desert_5,1,memory-2step-stake-s,678,2763844,0.0-19.0-0.1-0.183,A2XGVGSG5WR173,32CXT5U15JJVAEXBU2XNZL8A76W8U1,3IQ1VMJRYX0EVT0HJRRCO0NEELK9AA,2,1
184,2,object_04,object_10,473.0,3,2,610.0,0.5555555555555556,1,object_01,1,2341,0,5,1,forest_4,1,memory-2step-stake-s,679,2772280,0.0-19.0-0.1-0.184,A2XGVGSG5WR173,32CXT5U15JJVAEXBU2XNZL8A76W8U1,3IQ1VMJRYX0EVT0HJRRCO0NEELK9AA,4,3
185,1,object_08,object_09,336.0,2,1,1220.0,0.0,2,object_02,1,2341,0,5,0,desert_7,1,memory-2step-stake-s,680,2780765,0.0-19.0-0.1-0.185,A2XGVGSG5WR173,32CXT5U15JJVAEXBU2XNZL8A76W8U1,3IQ1VMJRYX0EVT0HJRRCO0NEELK9AA,2,1
186,2,object_04,object_10,462.0,3,2,506.0,1.0,1,object_01,1,2350,0,9,1,forest_4,1,memory-2step-stake-s,681,2789505,0.0-19.0-0.1-0.186,A2XGVGSG5WR173,32CXT5U15JJVAEXBU2XNZL8A76W8U1,3IQ1VMJRYX0EVT0HJRRCO0NEELK9AA,4,3
187,2,object_10,object_04,721.0,3,1,1358.0,0.7777777777777778,1,object_01,1,2357,0,7,0,forest_4,1,memory-2step-stake-s,682,2798860,0.0-19.0-0.1-0.187,A2XGVGSG5WR173,32CXT5U15JJVAEXBU2XNZL8A76W8U1,3IQ1VMJRYX0EVT0HJRRCO0NEELK9AA,3,4
188,3,object_06,object_07,485.0,5,2,-1.0,0.0,1,object_01,1,2357,0,3,0,library_2,1,memory-2step-stake-s,683,2807410,0.0-19.0-0.1-0.188,A2XGVGSG5WR173,32CXT5U15JJVAEXBU2XNZL8A76W8U1,3IQ1VMJRYX0EVT0HJRRCO0NEELK9AA,6,5
189,3,object_06,object_07,572.0,5,2,-1.0,0.0,1,object_01,5,2357,0,1,3,library_6,1,memory-2step-stake-s,684,2815954,0.0-19.0-0.1-0.189,A2XGVGSG5WR173,32CXT5U15JJVAEXBU2XNZL8A76W8U1,3IQ1VMJRYX0EVT0HJRRCO0NEELK9AA,6,5
190,2,object_04,object_10,381.0,4,1,-1.0,0.0,2,object_02,1,2357,0,3,8,forest_4,1,memory-2step-stake-s,685,2824507,0.0-19.0-0.1-0.190,A2XGVGSG5WR173,32CXT5U15JJVAEXBU2XNZL8A76W8U1,3IQ1VMJRYX0EVT0HJRRCO0NEELK9AA,4,3
191,4,object_05,object_03,448.0,8,1,-1.0,0.0,2,object_02,1,2357,0,1,3,restaurant_6,1,memory-2step-stake-s,686,2833060,0.0-19.0-0.1-0.191,A2XGVGSG5WR173,32CXT5U15JJVAEXBU2XNZL8A76W8U1,3IQ1VMJRYX0EVT0HJRRCO0NEELK9AA,8,7
192,4,object_05,object_03,462.0,7,2,731.0,0.3333333333333333,1,object_01,5,2372,0,3,7,restaurant_6,1,memory-2step-stake-s,687,2841400,0.0-19.0-0.1-0.192,A2XGVGSG5WR173,32CXT5U15JJVAEXBU2XNZL8A76W8U1,3IQ1VMJRYX0EVT0HJRRCO0NEELK9AA,8,7
193,4,object_03,object_05,566.0,7,1,934.0,0.3333333333333333,1,object_01,5,2387,0,3,4,restaurant_7,1,memory-2step-stake-s,688,2849937,0.0-19.0-0.1-0.193,A2XGVGSG5WR173,32CXT5U15JJVAEXBU2XNZL8A76W8U1,3IQ1VMJRYX0EVT0HJRRCO0NEELK9AA,7,8
194,2,object_04,object_10,371.0,4,1,957.0,0.4444444444444444,2,object_02,1,2391,0,3,4,forest_4,1,memory-2step-stake-s,689,2858580,0.0-19.0-0.1-0.194,A2XGVGSG5WR173,32CXT5U15JJVAEXBU2XNZL8A76W8U1,3IQ1VMJRYX0EVT0HJRRCO0NEELK9AA,4,3
195,1,object_09,object_08,585.0,1,1,696.0,0.1111111111111111,1,object_01,1,2392,0,1,3,desert_2,1,memory-2step-stake-s,690,2866660,0.0-19.0-0.1-0.195,A2XGVGSG5WR173,32CXT5U15JJVAEXBU2XNZL8A76W8U1,3IQ1VMJRYX0EVT0HJRRCO0NEELK9AA,1,2
196,2,object_10,object_04,456.0,3,1,514.0,0.1111111111111111,1,object_01,1,2393,0,1,6,forest_2,1,memory-2step-stake-s,691,2874551,0.0-19.0-0.1-0.196,A2XGVGSG5WR173,32CXT5U15JJVAEXBU2XNZL8A76W8U1,3IQ1VMJRYX0EVT0HJRRCO0NEELK9AA,3,4
197,4,object_05,object_03,628.0,8,1,535.0,1.0,2,object_02,1,2402,0,2,9,restaurant_1,1,memory-2step-stake-s,692,2883324,0.0-19.0-0.1-0.197,A2XGVGSG5WR173,32CXT5U15JJVAEXBU2XNZL8A76W8U1,3IQ1VMJRYX0EVT0HJRRCO0NEELK9AA,8,7
198,4,object_03,object_05,571.0,8,2,741.0,1.0,2,object_02,1,2411,0,1,9,restaurant_6,1,memory-2step-stake-s,693,2892306,0.0-19.0-0.1-0.198,A2XGVGSG5WR173,32CXT5U15JJVAEXBU2XNZL8A76W8U1,3IQ1VMJRYX0EVT0HJRRCO0NEELK9AA,7,8
199,1,object_08,object_09,408.0,2,1,737.0,0.7777777777777778,2,object_02,1,2418,0,3,7,desert_2,1,memory-2step-stake-s,694,2901073,0.0-19.0-0.1-0.199,A2XGVGSG5WR173,32CXT5U15JJVAEXBU2XNZL8A76W8U1,3IQ1VMJRYX0EVT0HJRRCO0NEELK9AA,2,1
200,3,object_07,object_06,604.0,5,1,699.0,0.4444444444444444,1,object_01,5,2438,0,4,6,library_8,1,memory-2step-stake-s,695,2909477,0.0-19.0-0.1-0.200,A2XGVGSG5WR173,32CXT5U15JJVAEXBU2XNZL8A76W8U1,3IQ1VMJRYX0EVT0HJRRCO0NEELK9AA,5,6
201,1,object_09,object_08,592.0,2,2,797.0,0.4444444444444444,2,object_02,1,2442,0,5,4,desert_2,1,memory-2step-stake-s,696,2917964,0.0-19.0-0.1-0.201,A2XGVGSG5WR173,32CXT5U15JJVAEXBU2XNZL8A76W8U1,3IQ1VMJRYX0EVT0HJRRCO0NEELK9AA,1,2
202,1,object_08,object_09,492.0,2,1,1249.0,0.1111111111111111,2,object_02,1,2443,0,5,1,desert_4,1,memory-2step-stake-s,697,2926590,0.0-19.0-0.1-0.202,A2XGVGSG5WR173,32CXT5U15JJVAEXBU2XNZL8A76W8U1,3IQ1VMJRYX0EVT0HJRRCO0NEELK9AA,2,1
203,2,object_04,object_10,569.0,3,2,926.0,0.6666666666666666,1,object_01,1,2449,0,6,1,forest_3,1,memory-2step-stake-s,698,2935418,0.0-19.0-0.1-0.203,A2XGVGSG5WR173,32CXT5U15JJVAEXBU2XNZL8A76W8U1,3IQ1VMJRYX0EVT0HJRRCO0NEELK9AA,4,3
204,4,object_03,object_05,433.0,7,1,688.0,0.5555555555555556,1,object_01,1,2454,0,5,1,restaurant_6,1,memory-2step-stake-s,699,2943900,0.0-19.0-0.1-0.204,A2XGVGSG5WR173,32CXT5U15JJVAEXBU2XNZL8A76W8U1,3IQ1VMJRYX0EVT0HJRRCO0NEELK9AA,7,8
205,4,object_03,object_05,514.0,7,1,603.0,0.8888888888888888,1,object_01,5,2494,0,8,2,restaurant_1,1,memory-2step-stake-s,700,2952665,0.0-19.0-0.1-0.205,A2XGVGSG5WR173,32CXT5U15JJVAEXBU2XNZL8A76W8U1,3IQ1VMJRYX0EVT0HJRRCO0NEELK9AA,7,8
206,3,object_07,object_06,528.0,5,1,672.0,0.6666666666666666,1,object_01,5,2524,0,6,1,library_4,1,memory-2step-stake-s,701,2961298,0.0-19.0-0.1-0.206,A2XGVGSG5WR173,32CXT5U15JJVAEXBU2XNZL8A76W8U1,3IQ1VMJRYX0EVT0HJRRCO0NEELK9AA,5,6
207,1,object_09,object_08,601.0,1,1,1141.0,0.6666666666666666,1,object_01,1,2530,0,6,3,desert_2,1,memory-2step-stake-s,702,2970371,0.0-19.0-0.1-0.207,A2XGVGSG5WR173,32CXT5U15JJVAEXBU2XNZL8A76W8U1,3IQ1VMJRYX0EVT0HJRRCO0NEELK9AA,1,2
208,1,object_08,object_09,632.0,1,2,619.0,0.7777777777777778,1,object_01,1,2537,0,7,2,desert_4,1,memory-2step-stake-s,703,2979080,0.0-19.0-0.1-0.208,A2XGVGSG5WR173,32CXT5U15JJVAEXBU2XNZL8A76W8U1,3IQ1VMJRYX0EVT0HJRRCO0NEELK9AA,2,1
209,4,object_03,object_05,541.0,8,2,760.0,0.4444444444444444,2,object_02,5,2557,0,8,4,restaurant_1,1,memory-2step-stake-s,704,2987541,0.0-19.0-0.1-0.209,A2XGVGSG5WR173,32CXT5U15JJVAEXBU2XNZL8A76W8U1,3IQ1VMJRYX0EVT0HJRRCO0NEELK9AA,7,8
210,2,object_04,object_10,396.0,4,1,1012.0,0.1111111111111111,2,object_02,1,2558,0,7,1,forest_7,1,memory-2step-stake-s,705,2995941,0.0-19.0-0.1-0.210,A2XGVGSG5WR173,32CXT5U15JJVAEXBU2XNZL8A76W8U1,3IQ1VMJRYX0EVT0HJRRCO0NEELK9AA,4,3
211,3,object_07,object_06,477.0,6,2,498.0,0.5555555555555556,2,object_02,5,2583,0,6,5,library_8,1,memory-2step-stake-s,706,3004242,0.0-19.0-0.1-0.211,A2XGVGSG5WR173,32CXT5U15JJVAEXBU2XNZL8A76W8U1,3IQ1VMJRYX0EVT0HJRRCO0NEELK9AA,5,6
212,2,object_04,object_10,339.0,4,1,872.0,0.3333333333333333,2,object_02,1,2586,0,3,3,forest_2,1,memory-2step-stake-s,707,3012701,0.0-19.0-0.1-0.212,A2XGVGSG5WR173,32CXT5U15JJVAEXBU2XNZL8A76W8U1,3IQ1VMJRYX0EVT0HJRRCO0NEELK9AA,4,3
213,1,object_09,object_08,684.0,2,2,954.0,0.3333333333333333,2,object_02,1,2589,0,1,3,desert_4,1,memory-2step-stake-s,708,3021222,0.0-19.0-0.1-0.213,A2XGVGSG5WR173,32CXT5U15JJVAEXBU2XNZL8A76W8U1,3IQ1VMJRYX0EVT0HJRRCO0NEELK9AA,1,2
214,1,object_09,object_08,516.0,1,1,725.0,0.1111111111111111,1,object_01,5,2594,0,1,4,desert_5,1,memory-2step-stake-s,709,3029324,0.0-19.0-0.1-0.214,A2XGVGSG5WR173,32CXT5U15JJVAEXBU2XNZL8A76W8U1,3IQ1VMJRYX0EVT0HJRRCO0NEELK9AA,1,2
215,2,object_04,object_10,548.0,4,1,909.0,0.6666666666666666,2,object_02,1,2600,0,1,6,forest_7,1,memory-2step-stake-s,710,3038147,0.0-19.0-0.1-0.215,A2XGVGSG5WR173,32CXT5U15JJVAEXBU2XNZL8A76W8U1,3IQ1VMJRYX0EVT0HJRRCO0NEELK9AA,4,3
216,1,object_09,object_08,566.0,1,1,795.0,0.2222222222222222,1,object_01,1,2602,0,2,6,desert_7,1,memory-2step-stake-s,711,3046421,0.0-19.0-0.1-0.216,A2XGVGSG5WR173,32CXT5U15JJVAEXBU2XNZL8A76W8U1,3IQ1VMJRYX0EVT0HJRRCO0NEELK9AA,1,2
217,1,object_09,object_08,535.0,1,1,762.0,0.1111111111111111,1,object_01,1,2603,0,1,8,desert_5,1,memory-2step-stake-s,712,3054562,0.0-19.0-0.1-0.217,A2XGVGSG5WR173,32CXT5U15JJVAEXBU2XNZL8A76W8U1,3IQ1VMJRYX0EVT0HJRRCO0NEELK9AA,1,2
218,2,object_10,object_04,1127.0,4,2,655.0,1.0,2,object_02,5,2648,0,3,9,forest_7,1,memory-2step-stake-s,713,3063451,0.0-19.0-0.1-0.218,A2XGVGSG5WR173,32CXT5U15JJVAEXBU2XNZL8A76W8U1,3IQ1VMJRYX0EVT0HJRRCO0NEELK9AA,3,4
219,2,object_04,object_10,596.0,3,2,614.0,0.4444444444444444,1,object_01,1,2652,0,4,7,forest_7,1,memory-2step-stake-s,714,3071758,0.0-19.0-0.1-0.219,A2XGVGSG5WR173,32CXT5U15JJVAEXBU2XNZL8A76W8U1,3IQ1VMJRYX0EVT0HJRRCO0NEELK9AA,4,3
220,4,object_03,object_05,597.0,7,1,470.0,0.5555555555555556,1,object_01,5,2677,0,5,6,restaurant_7,1,memory-2step-stake-s,715,3080048,0.0-19.0-0.1-0.220,A2XGVGSG5WR173,32CXT5U15JJVAEXBU2XNZL8A76W8U1,3IQ1VMJRYX0EVT0HJRRCO0NEELK9AA,7,8
221,1,object_09,object_08,1062.0,2,2,997.0,0.3333333333333333,2,object_02,1,2680,0,8,3,desert_7,1,memory-2step-stake-s,716,3088634,0.0-19.0-0.1-0.221,A2XGVGSG5WR173,32CXT5U15JJVAEXBU2XNZL8A76W8U1,3IQ1VMJRYX0EVT0HJRRCO0NEELK9AA,1,2
222,3,object_07,object_06,416.0,5,1,758.0,1.0,1,object_01,5,2725,0,9,1,library_6,1,memory-2step-stake-s,717,3097637,0.0-19.0-0.1-0.222,A2XGVGSG5WR173,32CXT5U15JJVAEXBU2XNZL8A76W8U1,3IQ1VMJRYX0EVT0HJRRCO0NEELK9AA,5,6
223,2,object_10,object_04,325.0,3,1,1052.0,0.7777777777777778,1,object_01,1,2732,0,7,2,forest_3,1,memory-2step-stake-s,718,3106707,0.0-19.0-0.1-0.223,A2XGVGSG5WR173,32CXT5U15JJVAEXBU2XNZL8A76W8U1,3IQ1VMJRYX0EVT0HJRRCO0NEELK9AA,3,4
224,3,object_06,object_07,1373.0,5,2,-1.0,0.0,1,object_01,5,2732,0,9,1,library_4,1,memory-2step-stake-s,719,3115262,0.0-19.0-0.1-0.224,A2XGVGSG5WR173,32CXT5U15JJVAEXBU2XNZL8A76W8U1,3IQ1VMJRYX0EVT0HJRRCO0NEELK9AA,6,5
225,3,object_06,object_07,437.0,5,2,954.0,0.6666666666666666,1,object_01,5,2762,0,6,0,library_2,1,memory-2step-stake-s,720,3124126,0.0-19.0-0.1-0.225,A2XGVGSG5WR173,32CXT5U15JJVAEXBU2XNZL8A76W8U1,3IQ1VMJRYX0EVT0HJRRCO0NEELK9AA,6,5
226,2,object_10,object_04,305.0,3,1,669.0,0.8888888888888888,1,object_01,1,2770,0,8,2,forest_3,1,memory-2step-stake-s,721,3132914,0.0-19.0-0.1-0.226,A2XGVGSG5WR173,32CXT5U15JJVAEXBU2XNZL8A76W8U1,3IQ1VMJRYX0EVT0HJRRCO0NEELK9AA,3,4
227,4,object_05,object_03,364.0,7,2,358.0,0.8888888888888888,1,object_01,5,2810,0,8,1,restaurant_3,1,memory-2step-stake-s,722,3141390,0.0-19.0-0.1-0.227,A2XGVGSG5WR173,32CXT5U15JJVAEXBU2XNZL8A76W8U1,3IQ1VMJRYX0EVT0HJRRCO0NEELK9AA,8,7
228,2,object_04,object_10,388.0,4,1,601.0,0.2222222222222222,2,object_02,5,2820,0,8,2,forest_7,1,memory-2step-stake-s,723,3149475,0.0-19.0-0.1-0.228,A2XGVGSG5WR173,32CXT5U15JJVAEXBU2XNZL8A76W8U1,3IQ1VMJRYX0EVT0HJRRCO0NEELK9AA,4,3
229,1,object_09,object_08,337.0,2,2,684.0,0.2222222222222222,2,object_02,1,2822,0,9,2,desert_4,1,memory-2step-stake-s,724,3157634,0.0-19.0-0.1-0.229,A2XGVGSG5WR173,32CXT5U15JJVAEXBU2XNZL8A76W8U1,3IQ1VMJRYX0EVT0HJRRCO0NEELK9AA,1,2
230,2,object_10,object_04,452.0,3,1,552.0,0.7777777777777778,1,object_01,1,2829,0,7,2,forest_7,1,memory-2step-stake-s,725,3166196,0.0-19.0-0.1-0.230,A2XGVGSG5WR173,32CXT5U15JJVAEXBU2XNZL8A76W8U1,3IQ1VMJRYX0EVT0HJRRCO0NEELK9AA,3,4
231,2,object_10,object_04,470.0,4,2,684.0,0.2222222222222222,2,object_02,1,2831,0,8,2,forest_7,1,memory-2step-stake-s,726,3174351,0.0-19.0-0.1-0.231,A2XGVGSG5WR173,32CXT5U15JJVAEXBU2XNZL8A76W8U1,3IQ1VMJRYX0EVT0HJRRCO0NEELK9AA,3,4
232,4,object_05,object_03,316.0,8,1,566.0,0.1111111111111111,2,object_02,5,2836,0,9,1,restaurant_1,1,memory-2step-stake-s,727,3182288,0.0-19.0-0.1-0.232,A2XGVGSG5WR173,32CXT5U15JJVAEXBU2XNZL8A76W8U1,3IQ1VMJRYX0EVT0HJRRCO0NEELK9AA,8,7
233,1,object_08,object_09,520.0,2,1,623.0,0.1111111111111111,2,object_02,1,2837,0,7,1,desert_4,1,memory-2step-stake-s,728,3190272,0.0-19.0-0.1-0.233,A2XGVGSG5WR173,32CXT5U15JJVAEXBU2XNZL8A76W8U1,3IQ1VMJRYX0EVT0HJRRCO0NEELK9AA,2,1
234,4,object_03,object_05,331.0,8,2,625.0,0.3333333333333333,2,object_02,1,2840,0,4,3,restaurant_3,1,memory-2step-stake-s,729,3198501,0.0-19.0-0.1-0.234,A2XGVGSG5WR173,32CXT5U15JJVAEXBU2XNZL8A76W8U1,3IQ1VMJRYX0EVT0HJRRCO0NEELK9AA,7,8
235,4,object_03,object_05,577.0,7,1,512.0,0.8888888888888888,1,object_01,5,2880,0,8,2,restaurant_7,1,memory-2step-stake-s,730,3207120,0.0-19.0-0.1-0.235,A2XGVGSG5WR173,32CXT5U15JJVAEXBU2XNZL8A76W8U1,3IQ1VMJRYX0EVT0HJRRCO0NEELK9AA,7,8
236,4,object_03,object_05,467.0,8,2,419.0,0.1111111111111111,2,object_02,1,2881,0,7,1,restaurant_7,1,memory-2step-stake-s,731,3214901,0.0-19.0-0.1-0.236,A2XGVGSG5WR173,32CXT5U15JJVAEXBU2XNZL8A76W8U1,3IQ1VMJRYX0EVT0HJRRCO0NEELK9AA,7,8
237,1,object_08,object_09,507.0,2,1,324.0,0.3333333333333333,2,object_02,1,2884,0,8,3,desert_5,1,memory-2step-stake-s,732,3222840,0.0-19.0-0.1-0.237,A2XGVGSG5WR173,32CXT5U15JJVAEXBU2XNZL8A76W8U1,3IQ1VMJRYX0EVT0HJRRCO0NEELK9AA,2,1
238,4,object_03,object_05,303.0,8,2,498.0,0.3333333333333333,2,object_02,5,2899,0,7,3,restaurant_6,1,memory-2step-stake-s,733,3230922,0.0-19.0-0.1-0.238,A2XGVGSG5WR173,32CXT5U15JJVAEXBU2XNZL8A76W8U1,3IQ1VMJRYX0EVT0HJRRCO0NEELK9AA,7,8
239,2,object_04,object_10,386.0,4,1,382.0,0.2222222222222222,2,object_02,5,2909,0,8,2,forest_3,1,memory-2step-stake-s,734,3238814,0.0-19.0-0.1-0.239,A2XGVGSG5WR173,32CXT5U15JJVAEXBU2XNZL8A76W8U1,3IQ1VMJRYX0EVT0HJRRCO0NEELK9AA,4,3
240,4,object_05,object_03,319.0,7,2,546.0,0.8888888888888888,1,object_01,1,2917,0,8,0,restaurant_7,1,memory-2step-stake-s,735,3247491,0.0-19.0-0.1-0.240,A2XGVGSG5WR173,32CXT5U15JJVAEXBU2XNZL8A76W8U1,3IQ1VMJRYX0EVT0HJRRCO0NEELK9AA,8,7
241,1,object_08,object_09,434.0,1,2,493.0,0.8888888888888888,1,object_01,1,2925,0,8,1,desert_2,1,memory-2step-stake-s,736,3256099,0.0-19.0-0.1-0.241,A2XGVGSG5WR173,32CXT5U15JJVAEXBU2XNZL8A76W8U1,3IQ1VMJRYX0EVT0HJRRCO0NEELK9AA,2,1
242,1,object_09,object_08,584.0,1,1,464.0,0.7777777777777778,1,object_01,1,2932,0,7,3,desert_7,1,memory-2step-stake-s,737,3264598,0.0-19.0-0.1-0.242,A2XGVGSG5WR173,32CXT5U15JJVAEXBU2XNZL8A76W8U1,3IQ1VMJRYX0EVT0HJRRCO0NEELK9AA,1,2
243,2,object_10,object_04,452.0,4,2,570.0,0.2222222222222222,2,object_02,5,2942,0,8,2,forest_4,1,memory-2step-stake-s,738,3272631,0.0-19.0-0.1-0.243,A2XGVGSG5WR173,32CXT5U15JJVAEXBU2XNZL8A76W8U1,3IQ1VMJRYX0EVT0HJRRCO0NEELK9AA,3,4
244,3,object_06,object_07,438.0,6,1,907.0,0.1111111111111111,2,object_02,1,2943,0,7,1,library_4,1,memory-2step-stake-s,739,3280906,0.0-19.0-0.1-0.244,A2XGVGSG5WR173,32CXT5U15JJVAEXBU2XNZL8A76W8U1,3IQ1VMJRYX0EVT0HJRRCO0NEELK9AA,6,5
245,2,object_04,object_10,376.0,3,2,820.0,0.8888888888888888,1,object_01,1,2951,0,8,2,forest_2,1,memory-2step-stake-s,740,3289855,0.0-19.0-0.1-0.245,A2XGVGSG5WR173,32CXT5U15JJVAEXBU2XNZL8A76W8U1,3IQ1VMJRYX0EVT0HJRRCO0NEELK9AA,4,3
246,2,object_10,object_04,350.0,3,1,519.0,0.8888888888888888,1,object_01,1,2959,0,8,6,forest_2,1,memory-2step-stake-s,741,3298516,0.0-19.0-0.1-0.246,A2XGVGSG5WR173,32CXT5U15JJVAEXBU2XNZL8A76W8U1,3IQ1VMJRYX0EVT0HJRRCO0NEELK9AA,3,4
247,4,object_03,object_05,317.0,7,1,336.0,0.7777777777777778,1,object_01,5,2994,0,7,5,restaurant_7,1,memory-2step-stake-s,742,3306871,0.0-19.0-0.1-0.247,A2XGVGSG5WR173,32CXT5U15JJVAEXBU2XNZL8A76W8U1,3IQ1VMJRYX0EVT0HJRRCO0NEELK9AA,7,8
248,3,object_07,object_06,331.0,6,2,976.0,0.7777777777777778,2,object_02,5,3029,0,8,7,library_2,1,memory-2step-stake-s,743,3315852,0.0-19.0-0.1-0.248,A2XGVGSG5WR173,32CXT5U15JJVAEXBU2XNZL8A76W8U1,3IQ1VMJRYX0EVT0HJRRCO0NEELK9AA,5,6
249,4,object_03,object_05,357.0,7,1,587.0,0.6666666666666666,1,object_01,5,3059,0,6,8,restaurant_7,1,memory-2step-stake-s,744,3324340,0.0-19.0-0.1-0.249,A2XGVGSG5WR173,32CXT5U15JJVAEXBU2XNZL8A76W8U1,3IQ1VMJRYX0EVT0HJRRCO0NEELK9AA,7,8
250,3,object_06,object_07,319.0,5,2,142.0,0.6666666666666666,1,object_01,1,3065,0,6,7,library_8,1,memory-2step-stake-s,745,3332407,0.0-19.0-0.1-0.250,A2XGVGSG5WR173,32CXT5U15JJVAEXBU2XNZL8A76W8U1,3IQ1VMJRYX0EVT0HJRRCO0NEELK9AA,6,5
251,1,object_09,object_08,403.0,1,1,342.0,0.5555555555555556,1,object_01,1,3070,0,5,7,desert_7,1,memory-2step-stake-s,746,3340535,0.0-19.0-0.1-0.251,A2XGVGSG5WR173,32CXT5U15JJVAEXBU2XNZL8A76W8U1,3IQ1VMJRYX0EVT0HJRRCO0NEELK9AA,1,2
252,4,object_05,object_03,474.0,7,2,945.0,0.5555555555555556,1,object_01,5,3095,0,5,5,restaurant_6,1,memory-2step-stake-s,747,3349299,0.0-19.0-0.1-0.252,A2XGVGSG5WR173,32CXT5U15JJVAEXBU2XNZL8A76W8U1,3IQ1VMJRYX0EVT0HJRRCO0NEELK9AA,8,7
253,3,object_07,object_06,467.0,5,1,436.0,0.4444444444444444,1,object_01,1,3099,0,4,5,library_2,1,memory-2step-stake-s,748,3357429,0.0-19.0-0.1-0.253,A2XGVGSG5WR173,32CXT5U15JJVAEXBU2XNZL8A76W8U1,3IQ1VMJRYX0EVT0HJRRCO0NEELK9AA,5,6
254,1,object_09,object_08,421.0,1,1,592.0,0.4444444444444444,1,object_01,5,3119,0,4,8,desert_2,1,memory-2step-stake-s,749,3365708,0.0-19.0-0.1-0.254,A2XGVGSG5WR173,32CXT5U15JJVAEXBU2XNZL8A76W8U1,3IQ1VMJRYX0EVT0HJRRCO0NEELK9AA,1,2
255,1,object_08,object_09,514.0,1,2,857.0,0.6666666666666666,1,object_01,1,3125,0,6,9,desert_7,1,memory-2step-stake-s,750,3374466,0.0-19.0-0.1-0.255,A2XGVGSG5WR173,32CXT5U15JJVAEXBU2XNZL8A76W8U1,3IQ1VMJRYX0EVT0HJRRCO0NEELK9AA,2,1
