,state1,stim_left,stim_right,rt_1,choice1,response1,rt_2,points,state2,stim_state2,stake,score,practice,rews1,rews2,background,high_arm,trial_type,trial_index,time_elapsed,internal_node_id,subid,hitid,assignmentid,stim_left_num,stim_right_num
0,1,object_08,object_03,1130.5,2,1,803.5,0.7777777777777778,2,object_09,1,7,0,1,7,desert_5,2,memory-2step-stake-s,489,1067242,0.0-19.0-0.0-0.0,A2JXPT39AWRES7,31KPKEKW5DTYWQJ2Z73D1GA4ZNDB00,3WQ3B2KGECW1PY2ELSCF45P1YRK1BR,2,1
1,1,object_08,object_03,813.29999995232,2,1,501.60000002384,0.8888888888888888,2,object_09,5,47,0,0,8,desert_3,2,memory-2step-stake-s,490,1075825,0.0-19.0-0.0-0.1,A2JXPT39AWRES7,31KPKEKW5DTYWQJ2Z73D1GA4ZNDB00,3WQ3B2KGECW1PY2ELSCF45P1YRK1BR,2,1
2,3,object_10,object_02,740.39999997616,5,2,888.90000009537,0.2222222222222222,1,object_06,1,49,0,2,7,library_4,2,memory-2step-stake-s,491,1084157,0.0-19.0-0.0-0.2,A2JXPT39AWRES7,31KPKEKW5DTYWQJ2Z73D1GA4ZNDB00,3WQ3B2KGECW1PY2ELSCF45P1YRK1BR,6,5
3,3,object_10,object_02,-1.0,-1,-1,-1.0,0.0,-,0,5,49,0,4,6,library_3,2,memory-2step-stake-s,492,1090700,0.0-19.0-0.0-0.3,A2JXPT39AWRES7,31KPKEKW5DTYWQJ2Z73D1GA4ZNDB00,3WQ3B2KGECW1PY2ELSCF45P1YRK1BR,6,5
4,4,object_04,object_05,1013.4000000954,7,1,456.39999997616,0.1111111111111111,1,object_06,1,50,0,1,8,restaurant_3,2,memory-2step-stake-s,493,1098518,0.0-19.0-0.0-0.4,A2JXPT39AWRES7,31KPKEKW5DTYWQJ2Z73D1GA4ZNDB00,3WQ3B2KGECW1PY2ELSCF45P1YRK1BR,7,8
5,3,object_02,object_10,608.30000007153,5,1,375.89999997616,0.1111111111111111,1,object_06,1,51,0,1,9,library_3,2,memory-2step-stake-s,494,1106252,0.0-19.0-0.0-0.5,A2JXPT39AWRES7,31KPKEKW5DTYWQJ2Z73D1GA4ZNDB00,3WQ3B2KGECW1PY2ELSCF45P1YRK1BR,5,6
6,4,object_04,object_05,500.30000007153,7,1,461.10000002384,0.1111111111111111,1,object_06,1,52,0,1,8,restaurant_2,2,memory-2step-stake-s,495,1114065,0.0-19.0-0.0-0.6,A2JXPT39AWRES7,31KPKEKW5DTYWQJ2Z73D1GA4ZNDB00,3WQ3B2KGECW1PY2ELSCF45P1YRK1BR,7,8
7,1,object_03,object_08,451.0,2,2,374.0,0.7777777777777778,2,object_09,1,59,0,3,7,desert_8,2,memory-2step-stake-s,496,1122411,0.0-19.0-0.0-0.7,A2JXPT39AWRES7,31KPKEKW5DTYWQJ2Z73D1GA4ZNDB00,3WQ3B2KGECW1PY2ELSCF45P1YRK1BR,1,2
8,1,object_03,object_08,764.30000007153,2,2,470.89999997616,0.8888888888888888,2,object_09,5,99,0,5,8,desert_8,2,memory-2step-stake-s,497,1130945,0.0-19.0-0.0-0.8,A2JXPT39AWRES7,31KPKEKW5DTYWQJ2Z73D1GA4ZNDB00,3WQ3B2KGECW1PY2ELSCF45P1YRK1BR,1,2
9,3,object_02,object_10,618.20000004768,5,1,427.5,0.3333333333333333,1,object_06,1,102,0,3,4,library_6,2,memory-2step-stake-s,498,1138947,0.0-19.0-0.0-0.9,A2JXPT39AWRES7,31KPKEKW5DTYWQJ2Z73D1GA4ZNDB00,3WQ3B2KGECW1PY2ELSCF45P1YRK1BR,5,6
10,4,object_04,object_05,834.10000002384,7,1,271.30000007153,0.4444444444444444,1,object_06,1,106,0,4,5,restaurant_5,2,memory-2step-stake-s,499,1146861,0.0-19.0-0.0-0.10,A2JXPT39AWRES7,31KPKEKW5DTYWQJ2Z73D1GA4ZNDB00,3WQ3B2KGECW1PY2ELSCF45P1YRK1BR,7,8
11,2,object_01,object_07,955.29999995232,3,1,271.5,0.7777777777777778,1,object_06,5,141,0,7,8,forest_1,2,memory-2step-stake-s,500,1155110,0.0-19.0-0.0-0.11,A2JXPT39AWRES7,31KPKEKW5DTYWQJ2Z73D1GA4ZNDB00,3WQ3B2KGECW1PY2ELSCF45P1YRK1BR,3,4
12,4,object_04,object_05,514.89999997616,7,1,450.39999997616,0.7777777777777778,1,object_06,5,176,0,7,5,restaurant_8,2,memory-2step-stake-s,501,1163560,0.0-19.0-0.0-0.12,A2JXPT39AWRES7,31KPKEKW5DTYWQJ2Z73D1GA4ZNDB00,3WQ3B2KGECW1PY2ELSCF45P1YRK1BR,7,8
13,3,object_10,object_02,1389.0999999046,6,1,612.40000009537,0.7777777777777778,2,object_09,1,183,0,8,7,library_4,2,memory-2step-stake-s,502,1172166,0.0-19.0-0.0-0.13,A2JXPT39AWRES7,31KPKEKW5DTYWQJ2Z73D1GA4ZNDB00,3WQ3B2KGECW1PY2ELSCF45P1YRK1BR,6,5
14,1,object_08,object_03,471.39999997616,2,1,201.60000002384,0.8888888888888888,2,object_09,1,191,0,8,8,desert_8,2,memory-2step-stake-s,503,1180462,0.0-19.0-0.0-0.14,A2JXPT39AWRES7,31KPKEKW5DTYWQJ2Z73D1GA4ZNDB00,3WQ3B2KGECW1PY2ELSCF45P1YRK1BR,2,1
15,2,object_01,object_07,236.10000002384,3,1,190.60000002384,0.8888888888888888,1,object_06,5,231,0,8,7,forest_4,2,memory-2step-stake-s,504,1188731,0.0-19.0-0.0-0.15,A2JXPT39AWRES7,31KPKEKW5DTYWQJ2Z73D1GA4ZNDB00,3WQ3B2KGECW1PY2ELSCF45P1YRK1BR,3,4
16,2,object_01,object_07,256.39999997616,3,1,-1.0,0.0,1,object_06,5,231,0,7,8,forest_1,2,memory-2step-stake-s,505,1197300,0.0-19.0-0.0-0.16,A2JXPT39AWRES7,31KPKEKW5DTYWQJ2Z73D1GA4ZNDB00,3WQ3B2KGECW1PY2ELSCF45P1YRK1BR,3,4
17,2,object_01,object_07,877.69999992847,3,1,135.29999995232,0.5555555555555556,1,object_06,5,256,0,5,9,forest_6,2,memory-2step-stake-s,506,1205211,0.0-19.0-0.0-0.17,A2JXPT39AWRES7,31KPKEKW5DTYWQJ2Z73D1GA4ZNDB00,3WQ3B2KGECW1PY2ELSCF45P1YRK1BR,3,4
18,4,object_05,object_04,226.5,7,2,887.89999997616,0.5555555555555556,1,object_06,1,261,0,5,9,restaurant_2,2,memory-2step-stake-s,507,1213869,0.0-19.0-0.0-0.18,A2JXPT39AWRES7,31KPKEKW5DTYWQJ2Z73D1GA4ZNDB00,3WQ3B2KGECW1PY2ELSCF45P1YRK1BR,8,7
19,4,object_04,object_05,999.5,7,1,522.10000002384,0.4444444444444444,1,object_06,5,281,0,4,8,restaurant_3,2,memory-2step-stake-s,508,1222071,0.0-19.0-0.0-0.19,A2JXPT39AWRES7,31KPKEKW5DTYWQJ2Z73D1GA4ZNDB00,3WQ3B2KGECW1PY2ELSCF45P1YRK1BR,7,8
20,4,object_05,object_04,574.0,8,1,382.69999992847,0.7777777777777778,2,object_09,1,288,0,3,7,restaurant_2,2,memory-2step-stake-s,509,1230437,0.0-19.0-0.0-0.20,A2JXPT39AWRES7,31KPKEKW5DTYWQJ2Z73D1GA4ZNDB00,3WQ3B2KGECW1PY2ELSCF45P1YRK1BR,8,7
21,3,object_02,object_10,258.39999997616,5,1,335.69999992847,0.2222222222222222,1,object_06,5,298,0,2,7,library_3,2,memory-2step-stake-s,510,1238251,0.0-19.0-0.0-0.21,A2JXPT39AWRES7,31KPKEKW5DTYWQJ2Z73D1GA4ZNDB00,3WQ3B2KGECW1PY2ELSCF45P1YRK1BR,5,6
22,4,object_04,object_05,897.90000009537,8,2,480.79999995232,0.5555555555555556,2,object_09,1,303,0,0,5,restaurant_8,2,memory-2step-stake-s,511,1246490,0.0-19.0-0.0-0.22,A2JXPT39AWRES7,31KPKEKW5DTYWQJ2Z73D1GA4ZNDB00,3WQ3B2KGECW1PY2ELSCF45P1YRK1BR,7,8
23,1,object_08,object_03,919.39999997616,2,1,372.09999990463,0.7777777777777778,2,object_09,5,338,0,1,7,desert_4,2,memory-2step-stake-s,512,1254838,0.0-19.0-0.0-0.23,A2JXPT39AWRES7,31KPKEKW5DTYWQJ2Z73D1GA4ZNDB00,3WQ3B2KGECW1PY2ELSCF45P1YRK1BR,2,1
24,2,object_01,object_07,568.29999995232,3,1,471.39999997616,0.2222222222222222,1,object_06,5,348,0,2,7,forest_1,2,memory-2step-stake-s,513,1262739,0.0-19.0-0.0-0.24,A2JXPT39AWRES7,31KPKEKW5DTYWQJ2Z73D1GA4ZNDB00,3WQ3B2KGECW1PY2ELSCF45P1YRK1BR,3,4
25,2,object_01,object_07,867.10000002384,3,1,448.5,0.3333333333333333,1,object_06,5,363,0,3,6,forest_4,2,memory-2step-stake-s,514,1270739,0.0-19.0-0.0-0.25,A2JXPT39AWRES7,31KPKEKW5DTYWQJ2Z73D1GA4ZNDB00,3WQ3B2KGECW1PY2ELSCF45P1YRK1BR,3,4
26,1,object_08,object_03,688.39999997616,2,1,320.69999992847,0.6666666666666666,2,object_09,5,393,0,6,6,desert_4,2,memory-2step-stake-s,515,1278909,0.0-19.0-0.0-0.26,A2JXPT39AWRES7,31KPKEKW5DTYWQJ2Z73D1GA4ZNDB00,3WQ3B2KGECW1PY2ELSCF45P1YRK1BR,2,1
27,1,object_03,object_08,744.89999997616,2,2,224.19999992847,0.6666666666666666,2,object_09,1,399,0,7,6,desert_4,2,memory-2step-stake-s,516,1286996,0.0-19.0-0.0-0.27,A2JXPT39AWRES7,31KPKEKW5DTYWQJ2Z73D1GA4ZNDB00,3WQ3B2KGECW1PY2ELSCF45P1YRK1BR,1,2
28,1,object_03,object_08,1164.2000000477,2,2,343.19999992847,1.0,2,object_09,5,444,0,7,9,desert_3,2,memory-2step-stake-s,517,1295532,0.0-19.0-0.0-0.28,A2JXPT39AWRES7,31KPKEKW5DTYWQJ2Z73D1GA4ZNDB00,3WQ3B2KGECW1PY2ELSCF45P1YRK1BR,1,2
29,4,object_05,object_04,1026.8999999762,7,2,342.89999997616,0.8888888888888888,1,object_06,1,452,0,8,6,restaurant_2,2,memory-2step-stake-s,518,1303959,0.0-19.0-0.0-0.29,A2JXPT39AWRES7,31KPKEKW5DTYWQJ2Z73D1GA4ZNDB00,3WQ3B2KGECW1PY2ELSCF45P1YRK1BR,8,7
30,2,object_01,object_07,951.39999997616,3,1,483.19999992847,0.7777777777777778,1,object_06,5,487,0,7,5,forest_4,2,memory-2step-stake-s,519,1312421,0.0-19.0-0.0-0.30,A2JXPT39AWRES7,31KPKEKW5DTYWQJ2Z73D1GA4ZNDB00,3WQ3B2KGECW1PY2ELSCF45P1YRK1BR,3,4
31,4,object_04,object_05,1020.7000000477,8,2,441.30000007153,0.6666666666666666,2,object_09,1,493,0,5,6,restaurant_8,2,memory-2step-stake-s,520,1320735,0.0-19.0-0.0-0.31,A2JXPT39AWRES7,31KPKEKW5DTYWQJ2Z73D1GA4ZNDB00,3WQ3B2KGECW1PY2ELSCF45P1YRK1BR,7,8
32,1,object_08,object_03,704.5,2,1,221.39999997616,0.5555555555555556,2,object_09,5,518,0,4,5,desert_3,2,memory-2step-stake-s,521,1328705,0.0-19.0-0.0-0.32,A2JXPT39AWRES7,31KPKEKW5DTYWQJ2Z73D1GA4ZNDB00,3WQ3B2KGECW1PY2ELSCF45P1YRK1BR,2,1
33,4,object_04,object_05,557.5,7,1,216.10000002384,0.5555555555555556,1,object_06,5,543,0,5,6,restaurant_2,2,memory-2step-stake-s,522,1336654,0.0-19.0-0.0-0.33,A2JXPT39AWRES7,31KPKEKW5DTYWQJ2Z73D1GA4ZNDB00,3WQ3B2KGECW1PY2ELSCF45P1YRK1BR,7,8
34,1,object_03,object_08,530.39999997616,2,2,398.30000007153,0.7777777777777778,2,object_09,5,578,0,8,7,desert_5,2,memory-2step-stake-s,523,1345038,0.0-19.0-0.0-0.34,A2JXPT39AWRES7,31KPKEKW5DTYWQJ2Z73D1GA4ZNDB00,3WQ3B2KGECW1PY2ELSCF45P1YRK1BR,1,2
35,3,object_02,object_10,1165.2999999523,5,1,719.0,1.0,1,object_06,5,623,0,9,9,library_6,2,memory-2step-stake-s,524,1353912,0.0-19.0-0.0-0.35,A2JXPT39AWRES7,31KPKEKW5DTYWQJ2Z73D1GA4ZNDB00,3WQ3B2KGECW1PY2ELSCF45P1YRK1BR,5,6
36,4,object_04,object_05,1317.8999999762,8,2,349.20000004768,0.8888888888888888,2,object_09,1,631,0,8,8,restaurant_2,2,memory-2step-stake-s,525,1362337,0.0-19.0-0.0-0.36,A2JXPT39AWRES7,31KPKEKW5DTYWQJ2Z73D1GA4ZNDB00,3WQ3B2KGECW1PY2ELSCF45P1YRK1BR,7,8
37,3,object_10,object_02,-1.0,-1,-1,-1.0,0.0,-,0,5,631,0,5,7,library_6,2,memory-2step-stake-s,526,1368869,0.0-19.0-0.0-0.37,A2JXPT39AWRES7,31KPKEKW5DTYWQJ2Z73D1GA4ZNDB00,3WQ3B2KGECW1PY2ELSCF45P1YRK1BR,6,5
38,4,object_05,object_04,570.5,8,1,571.60000002384,0.6666666666666666,2,object_09,5,661,0,5,6,restaurant_8,2,memory-2step-stake-s,527,1377301,0.0-19.0-0.0-0.38,A2JXPT39AWRES7,31KPKEKW5DTYWQJ2Z73D1GA4ZNDB00,3WQ3B2KGECW1PY2ELSCF45P1YRK1BR,8,7
39,3,object_10,object_02,538.70000004768,6,1,1046.1000000238,0.5555555555555556,2,object_09,1,666,0,4,5,library_7,2,memory-2step-stake-s,528,1386121,0.0-19.0-0.0-0.39,A2JXPT39AWRES7,31KPKEKW5DTYWQJ2Z73D1GA4ZNDB00,3WQ3B2KGECW1PY2ELSCF45P1YRK1BR,6,5
40,3,object_02,object_10,575.09999990463,6,2,486.0,0.3333333333333333,2,object_09,1,669,0,3,3,library_4,2,memory-2step-stake-s,529,1394147,0.0-19.0-0.0-0.40,A2JXPT39AWRES7,31KPKEKW5DTYWQJ2Z73D1GA4ZNDB00,3WQ3B2KGECW1PY2ELSCF45P1YRK1BR,5,6
41,3,object_02,object_10,570.20000004768,5,1,286.60000002384,0.2222222222222222,1,object_06,5,679,0,2,3,library_4,2,memory-2step-stake-s,530,1401907,0.0-19.0-0.0-0.41,A2JXPT39AWRES7,31KPKEKW5DTYWQJ2Z73D1GA4ZNDB00,3WQ3B2KGECW1PY2ELSCF45P1YRK1BR,5,6
42,1,object_08,object_03,633.89999997616,1,2,241.79999995232,0.2222222222222222,1,object_06,5,689,0,2,3,desert_3,2,memory-2step-stake-s,531,1409613,0.0-19.0-0.0-0.42,A2JXPT39AWRES7,31KPKEKW5DTYWQJ2Z73D1GA4ZNDB00,3WQ3B2KGECW1PY2ELSCF45P1YRK1BR,2,1
43,2,object_07,object_01,402.69999992847,4,1,393.19999992847,0.3333333333333333,2,object_09,5,704,0,4,3,forest_8,2,memory-2step-stake-s,532,1417563,0.0-19.0-0.0-0.43,A2JXPT39AWRES7,31KPKEKW5DTYWQJ2Z73D1GA4ZNDB00,3WQ3B2KGECW1PY2ELSCF45P1YRK1BR,4,3
44,2,object_01,object_07,496.60000002384,3,1,644.20000004768,0.8888888888888888,1,object_06,5,744,0,8,1,forest_6,2,memory-2step-stake-s,533,1426276,0.0-19.0-0.0-0.44,A2JXPT39AWRES7,31KPKEKW5DTYWQJ2Z73D1GA4ZNDB00,3WQ3B2KGECW1PY2ELSCF45P1YRK1BR,3,4
45,2,object_01,object_07,379.70000004768,4,2,240.59999990463,0.1111111111111111,2,object_09,5,749,0,7,1,forest_1,2,memory-2step-stake-s,534,1433878,0.0-19.0-0.0-0.45,A2JXPT39AWRES7,31KPKEKW5DTYWQJ2Z73D1GA4ZNDB00,3WQ3B2KGECW1PY2ELSCF45P1YRK1BR,3,4
46,1,object_08,object_03,554.70000004768,2,1,221.79999995232,0.3333333333333333,2,object_09,5,764,0,8,3,desert_3,2,memory-2step-stake-s,535,1441644,0.0-19.0-0.0-0.46,A2JXPT39AWRES7,31KPKEKW5DTYWQJ2Z73D1GA4ZNDB00,3WQ3B2KGECW1PY2ELSCF45P1YRK1BR,2,1
47,3,object_02,object_10,493.10000002384,6,2,283.60000002384,0.0,2,object_09,1,764,0,9,0,library_3,2,memory-2step-stake-s,536,1449185,0.0-19.0-0.0-0.47,A2JXPT39AWRES7,31KPKEKW5DTYWQJ2Z73D1GA4ZNDB00,3WQ3B2KGECW1PY2ELSCF45P1YRK1BR,5,6
48,4,object_05,object_04,480.39999997616,7,2,213.19999992847,0.8888888888888888,1,object_06,1,772,0,8,3,restaurant_5,2,memory-2step-stake-s,537,1457465,0.0-19.0-0.0-0.48,A2JXPT39AWRES7,31KPKEKW5DTYWQJ2Z73D1GA4ZNDB00,3WQ3B2KGECW1PY2ELSCF45P1YRK1BR,8,7
49,1,object_03,object_08,552.79999995232,1,1,275.39999997616,0.4444444444444444,1,object_06,5,792,0,4,4,desert_3,2,memory-2step-stake-s,538,1465392,0.0-19.0-0.0-0.49,A2JXPT39AWRES7,31KPKEKW5DTYWQJ2Z73D1GA4ZNDB00,3WQ3B2KGECW1PY2ELSCF45P1YRK1BR,1,2
50,4,object_04,object_05,-1.0,-1,-1,-1.0,0.0,-,0,1,792,0,3,2,restaurant_5,2,memory-2step-stake-s,539,1471933,0.0-19.0-0.0-0.50,A2JXPT39AWRES7,31KPKEKW5DTYWQJ2Z73D1GA4ZNDB00,3WQ3B2KGECW1PY2ELSCF45P1YRK1BR,7,8
51,4,object_04,object_05,425.70000004768,8,2,419.70000004768,0.0,2,object_09,1,792,0,4,0,restaurant_3,2,memory-2step-stake-s,540,1479590,0.0-19.0-0.0-0.51,A2JXPT39AWRES7,31KPKEKW5DTYWQJ2Z73D1GA4ZNDB00,3WQ3B2KGECW1PY2ELSCF45P1YRK1BR,7,8
52,3,object_02,object_10,529.39999997616,5,1,539.79999995232,0.4444444444444444,1,object_06,5,812,0,4,0,library_3,2,memory-2step-stake-s,541,1487793,0.0-19.0-0.0-0.52,A2JXPT39AWRES7,31KPKEKW5DTYWQJ2Z73D1GA4ZNDB00,3WQ3B2KGECW1PY2ELSCF45P1YRK1BR,5,6
53,2,object_01,object_07,163.70000004768,3,1,178.59999990463,0.7777777777777778,1,object_06,5,847,0,7,4,forest_8,2,memory-2step-stake-s,542,1495943,0.0-19.0-0.0-0.53,A2JXPT39AWRES7,31KPKEKW5DTYWQJ2Z73D1GA4ZNDB00,3WQ3B2KGECW1PY2ELSCF45P1YRK1BR,3,4
54,2,object_07,object_01,451.89999997616,4,1,273.39999997616,0.1111111111111111,2,object_09,1,848,0,9,1,forest_6,2,memory-2step-stake-s,543,1503584,0.0-19.0-0.0-0.54,A2JXPT39AWRES7,31KPKEKW5DTYWQJ2Z73D1GA4ZNDB00,3WQ3B2KGECW1PY2ELSCF45P1YRK1BR,4,3
55,1,object_03,object_08,367.09999990463,2,2,199.5,0.2222222222222222,2,object_09,5,858,0,8,2,desert_3,2,memory-2step-stake-s,544,1511253,0.0-19.0-0.0-0.55,A2JXPT39AWRES7,31KPKEKW5DTYWQJ2Z73D1GA4ZNDB00,3WQ3B2KGECW1PY2ELSCF45P1YRK1BR,1,2
56,4,object_04,object_05,586.39999997616,7,1,206.0,0.7777777777777778,1,object_06,1,865,0,7,1,restaurant_2,2,memory-2step-stake-s,545,1519407,0.0-19.0-0.0-0.56,A2JXPT39AWRES7,31KPKEKW5DTYWQJ2Z73D1GA4ZNDB00,3WQ3B2KGECW1PY2ELSCF45P1YRK1BR,7,8
57,1,object_03,object_08,631.70000004768,1,1,237.79999995232,1.0,1,object_06,5,910,0,9,2,desert_5,2,memory-2step-stake-s,546,1527806,0.0-19.0-0.0-0.57,A2JXPT39AWRES7,31KPKEKW5DTYWQJ2Z73D1GA4ZNDB00,3WQ3B2KGECW1PY2ELSCF45P1YRK1BR,1,2
58,1,object_03,object_08,403.29999995232,2,2,263.89999997616,0.1111111111111111,2,object_09,5,915,0,7,1,desert_8,2,memory-2step-stake-s,547,1535405,0.0-19.0-0.0-0.58,A2JXPT39AWRES7,31KPKEKW5DTYWQJ2Z73D1GA4ZNDB00,3WQ3B2KGECW1PY2ELSCF45P1YRK1BR,1,2
59,2,object_07,object_01,630.70000004768,3,2,249.20000004768,0.4444444444444444,1,object_06,5,935,0,4,3,forest_8,2,memory-2step-stake-s,548,1543302,0.0-19.0-0.0-0.59,A2JXPT39AWRES7,31KPKEKW5DTYWQJ2Z73D1GA4ZNDB00,3WQ3B2KGECW1PY2ELSCF45P1YRK1BR,4,3
60,1,object_08,object_03,729.20000004768,2,1,332.19999992847,0.3333333333333333,2,object_09,5,950,0,1,3,desert_8,2,memory-2step-stake-s,549,1551185,0.0-19.0-0.0-0.60,A2JXPT39AWRES7,31KPKEKW5DTYWQJ2Z73D1GA4ZNDB00,3WQ3B2KGECW1PY2ELSCF45P1YRK1BR,2,1
61,1,object_03,object_08,922.79999995232,1,1,360.10000002384,0.0,1,object_06,5,950,0,0,6,desert_3,2,memory-2step-stake-s,550,1558786,0.0-19.0-0.0-0.61,A2JXPT39AWRES7,31KPKEKW5DTYWQJ2Z73D1GA4ZNDB00,3WQ3B2KGECW1PY2ELSCF45P1YRK1BR,1,2
62,4,object_05,object_04,503.30000007153,7,2,302.20000004768,0.1111111111111111,1,object_06,1,951,0,1,7,restaurant_2,2,memory-2step-stake-s,551,1566465,0.0-19.0-0.0-0.62,A2JXPT39AWRES7,31KPKEKW5DTYWQJ2Z73D1GA4ZNDB00,3WQ3B2KGECW1PY2ELSCF45P1YRK1BR,8,7
63,2,object_07,object_01,51.299999952316,4,1,493.79999995232,0.8888888888888888,2,object_09,5,991,0,0,8,forest_8,2,memory-2step-stake-s,552,1575012,0.0-19.0-0.0-0.63,A2JXPT39AWRES7,31KPKEKW5DTYWQJ2Z73D1GA4ZNDB00,3WQ3B2KGECW1PY2ELSCF45P1YRK1BR,4,3
64,2,object_07,object_01,600.70000004768,3,2,181.20000004768,0.1111111111111111,1,object_06,5,996,0,1,8,forest_4,2,memory-2step-stake-s,553,1582566,0.0-19.0-0.0-0.64,A2JXPT39AWRES7,31KPKEKW5DTYWQJ2Z73D1GA4ZNDB00,3WQ3B2KGECW1PY2ELSCF45P1YRK1BR,4,3
65,1,object_03,object_08,856.60000002384,1,1,276.30000007153,0.1111111111111111,1,object_06,5,1001,0,1,6,desert_8,2,memory-2step-stake-s,554,1590204,0.0-19.0-0.0-0.65,A2JXPT39AWRES7,31KPKEKW5DTYWQJ2Z73D1GA4ZNDB00,3WQ3B2KGECW1PY2ELSCF45P1YRK1BR,1,2
66,3,object_10,object_02,655.79999995232,5,2,372.30000007153,0.2222222222222222,1,object_06,5,1011,0,2,6,library_7,2,memory-2step-stake-s,555,1598033,0.0-19.0-0.0-0.66,A2JXPT39AWRES7,31KPKEKW5DTYWQJ2Z73D1GA4ZNDB00,3WQ3B2KGECW1PY2ELSCF45P1YRK1BR,6,5
67,2,object_07,object_01,552.0,4,1,644.69999992847,0.3333333333333333,2,object_09,1,1014,0,0,3,forest_6,2,memory-2step-stake-s,556,1606255,0.0-19.0-0.0-0.67,A2JXPT39AWRES7,31KPKEKW5DTYWQJ2Z73D1GA4ZNDB00,3WQ3B2KGECW1PY2ELSCF45P1YRK1BR,4,3
68,1,object_03,object_08,272.59999990463,1,1,330.5,0.1111111111111111,1,object_06,5,1019,0,1,3,desert_5,2,memory-2step-stake-s,557,1613946,0.0-19.0-0.0-0.68,A2JXPT39AWRES7,31KPKEKW5DTYWQJ2Z73D1GA4ZNDB00,3WQ3B2KGECW1PY2ELSCF45P1YRK1BR,1,2
69,4,object_05,object_04,698.0,7,2,743.10000002384,0.3333333333333333,1,object_06,1,1022,0,3,4,restaurant_5,2,memory-2step-stake-s,558,1622239,0.0-19.0-0.0-0.69,A2JXPT39AWRES7,31KPKEKW5DTYWQJ2Z73D1GA4ZNDB00,3WQ3B2KGECW1PY2ELSCF45P1YRK1BR,8,7
70,4,object_04,object_05,567.5,7,1,630.10000002384,0.2222222222222222,1,object_06,1,1024,0,2,4,restaurant_3,2,memory-2step-stake-s,559,1630330,0.0-19.0-0.0-0.70,A2JXPT39AWRES7,31KPKEKW5DTYWQJ2Z73D1GA4ZNDB00,3WQ3B2KGECW1PY2ELSCF45P1YRK1BR,7,8
71,4,object_05,object_04,737.10000002384,7,2,251.20000004768,0.3333333333333333,1,object_06,1,1027,0,3,1,restaurant_8,2,memory-2step-stake-s,560,1638158,0.0-19.0-0.0-0.71,A2JXPT39AWRES7,31KPKEKW5DTYWQJ2Z73D1GA4ZNDB00,3WQ3B2KGECW1PY2ELSCF45P1YRK1BR,8,7
72,1,object_08,object_03,820.29999995232,2,1,433.89999997616,0.2222222222222222,2,object_09,5,1037,0,5,2,desert_8,2,memory-2step-stake-s,561,1646056,0.0-19.0-0.0-0.72,A2JXPT39AWRES7,31KPKEKW5DTYWQJ2Z73D1GA4ZNDB00,3WQ3B2KGECW1PY2ELSCF45P1YRK1BR,2,1
73,1,object_03,object_08,745.60000002384,2,2,679.0,0.2222222222222222,2,object_09,1,1039,0,4,2,desert_4,2,memory-2step-stake-s,562,1654175,0.0-19.0-0.0-0.73,A2JXPT39AWRES7,31KPKEKW5DTYWQJ2Z73D1GA4ZNDB00,3WQ3B2KGECW1PY2ELSCF45P1YRK1BR,1,2
74,3,object_10,object_02,862.89999997616,6,1,359.0,0.3333333333333333,2,object_09,1,1042,0,4,3,library_3,2,memory-2step-stake-s,563,1662107,0.0-19.0-0.0-0.74,A2JXPT39AWRES7,31KPKEKW5DTYWQJ2Z73D1GA4ZNDB00,3WQ3B2KGECW1PY2ELSCF45P1YRK1BR,6,5
75,2,object_01,object_07,942.70000004768,4,2,520.19999992847,0.4444444444444444,2,object_09,5,1062,0,5,4,forest_4,2,memory-2step-stake-s,564,1670308,0.0-19.0-0.0-0.75,A2JXPT39AWRES7,31KPKEKW5DTYWQJ2Z73D1GA4ZNDB00,3WQ3B2KGECW1PY2ELSCF45P1YRK1BR,3,4
76,3,object_10,object_02,713.40000009537,6,1,82.5,0.3333333333333333,2,object_09,1,1065,0,3,3,library_4,2,memory-2step-stake-s,565,1677966,0.0-19.0-0.0-0.76,A2JXPT39AWRES7,31KPKEKW5DTYWQJ2Z73D1GA4ZNDB00,3WQ3B2KGECW1PY2ELSCF45P1YRK1BR,6,5
77,2,object_01,object_07,663.0,3,1,40.100000023842,0.3333333333333333,1,object_06,5,1080,0,3,7,forest_1,2,memory-2step-stake-s,566,1685567,0.0-19.0-0.0-0.77,A2JXPT39AWRES7,31KPKEKW5DTYWQJ2Z73D1GA4ZNDB00,3WQ3B2KGECW1PY2ELSCF45P1YRK1BR,3,4
78,2,object_01,object_07,1484.5999999046,4,2,566.60000002384,0.4444444444444444,2,object_09,5,1100,0,4,4,forest_8,2,memory-2step-stake-s,567,1693800,0.0-19.0-0.0-0.78,A2JXPT39AWRES7,31KPKEKW5DTYWQJ2Z73D1GA4ZNDB00,3WQ3B2KGECW1PY2ELSCF45P1YRK1BR,3,4
79,2,object_01,object_07,533.70000004768,4,2,94.800000071526,0.1111111111111111,2,object_09,5,1105,0,1,1,forest_8,2,memory-2step-stake-s,568,1701251,0.0-19.0-0.0-0.79,A2JXPT39AWRES7,31KPKEKW5DTYWQJ2Z73D1GA4ZNDB00,3WQ3B2KGECW1PY2ELSCF45P1YRK1BR,3,4
80,3,object_10,object_02,953.60000002384,6,1,561.69999992847,0.2222222222222222,2,object_09,1,1107,0,0,2,library_7,2,memory-2step-stake-s,569,1709269,0.0-19.0-0.0-0.80,A2JXPT39AWRES7,31KPKEKW5DTYWQJ2Z73D1GA4ZNDB00,3WQ3B2KGECW1PY2ELSCF45P1YRK1BR,6,5
81,3,object_02,object_10,526.59999990463,6,2,137.10000002384,0.3333333333333333,2,object_09,5,1122,0,1,3,library_3,2,memory-2step-stake-s,570,1716963,0.0-19.0-0.0-0.81,A2JXPT39AWRES7,31KPKEKW5DTYWQJ2Z73D1GA4ZNDB00,3WQ3B2KGECW1PY2ELSCF45P1YRK1BR,5,6
82,4,object_04,object_05,1108.1000000238,7,1,204.60000002384,0.1111111111111111,1,object_06,1,1123,0,1,3,restaurant_5,2,memory-2step-stake-s,571,1724530,0.0-19.0-0.0-0.82,A2JXPT39AWRES7,31KPKEKW5DTYWQJ2Z73D1GA4ZNDB00,3WQ3B2KGECW1PY2ELSCF45P1YRK1BR,7,8
83,3,object_10,object_02,110.60000002384,5,2,350.89999997616,0.0,1,object_06,1,1123,0,0,5,library_3,2,memory-2step-stake-s,572,1732135,0.0-19.0-0.0-0.83,A2JXPT39AWRES7,31KPKEKW5DTYWQJ2Z73D1GA4ZNDB00,3WQ3B2KGECW1PY2ELSCF45P1YRK1BR,6,5
84,3,object_10,object_02,436.69999992847,6,1,813.70000004768,0.5555555555555556,2,object_09,1,1128,0,0,5,library_7,2,memory-2step-stake-s,573,1740714,0.0-19.0-0.0-0.84,A2JXPT39AWRES7,31KPKEKW5DTYWQJ2Z73D1GA4ZNDB00,3WQ3B2KGECW1PY2ELSCF45P1YRK1BR,6,5
85,2,object_07,object_01,1163.7999999523,3,2,592.20000004768,0.2222222222222222,1,object_06,5,1138,0,2,7,forest_6,2,memory-2step-stake-s,574,1748766,0.0-19.0-0.0-0.85,A2JXPT39AWRES7,31KPKEKW5DTYWQJ2Z73D1GA4ZNDB00,3WQ3B2KGECW1PY2ELSCF45P1YRK1BR,4,3
86,3,object_02,object_10,595.5,6,2,175.70000004768,0.5555555555555556,2,object_09,1,1143,0,1,5,library_4,2,memory-2step-stake-s,575,1756682,0.0-19.0-0.0-0.86,A2JXPT39AWRES7,31KPKEKW5DTYWQJ2Z73D1GA4ZNDB00,3WQ3B2KGECW1PY2ELSCF45P1YRK1BR,5,6
87,1,object_08,object_03,-1.0,-1,-1,-1.0,0.0,-,0,5,1143,0,3,6,desert_3,2,memory-2step-stake-s,576,1763211,0.0-19.0-0.0-0.87,A2JXPT39AWRES7,31KPKEKW5DTYWQJ2Z73D1GA4ZNDB00,3WQ3B2KGECW1PY2ELSCF45P1YRK1BR,2,1
88,4,object_05,object_04,1250.6999999285,7,2,682.79999995232,0.1111111111111111,1,object_06,1,1144,0,1,7,restaurant_3,2,memory-2step-stake-s,577,1771253,0.0-19.0-0.0-0.88,A2JXPT39AWRES7,31KPKEKW5DTYWQJ2Z73D1GA4ZNDB00,3WQ3B2KGECW1PY2ELSCF45P1YRK1BR,8,7
89,2,object_07,object_01,993.60000002384,4,1,-1.0,0.0,2,object_09,5,1144,0,1,9,forest_4,2,memory-2step-stake-s,578,1779801,0.0-19.0-0.0-0.89,A2JXPT39AWRES7,31KPKEKW5DTYWQJ2Z73D1GA4ZNDB00,3WQ3B2KGECW1PY2ELSCF45P1YRK1BR,4,3
90,2,object_01,object_07,318.70000004768,3,1,273.0,0.0,1,object_06,5,1144,0,0,9,forest_1,2,memory-2step-stake-s,579,1787338,0.0-19.0-0.0-0.90,A2JXPT39AWRES7,31KPKEKW5DTYWQJ2Z73D1GA4ZNDB00,3WQ3B2KGECW1PY2ELSCF45P1YRK1BR,3,4
91,1,object_03,object_08,338.10000002384,1,1,241.70000004768,0.1111111111111111,1,object_06,5,1149,0,1,9,desert_8,2,memory-2step-stake-s,580,1794938,0.0-19.0-0.0-0.91,A2JXPT39AWRES7,31KPKEKW5DTYWQJ2Z73D1GA4ZNDB00,3WQ3B2KGECW1PY2ELSCF45P1YRK1BR,1,2
92,4,object_04,object_05,512.60000002384,7,1,97.5,0.5555555555555556,1,object_06,5,1174,0,5,9,restaurant_8,2,memory-2step-stake-s,581,1802797,0.0-19.0-0.0-0.92,A2JXPT39AWRES7,31KPKEKW5DTYWQJ2Z73D1GA4ZNDB00,3WQ3B2KGECW1PY2ELSCF45P1YRK1BR,7,8
93,1,object_03,object_08,254.0,1,1,378.70000004768,0.7777777777777778,1,object_06,1,1181,0,7,8,desert_3,2,memory-2step-stake-s,582,1811137,0.0-19.0-0.0-0.93,A2JXPT39AWRES7,31KPKEKW5DTYWQJ2Z73D1GA4ZNDB00,3WQ3B2KGECW1PY2ELSCF45P1YRK1BR,1,2
94,2,object_07,object_01,794.5,3,2,292.60000002384,0.8888888888888888,1,object_06,1,1189,0,8,8,forest_6,2,memory-2step-stake-s,583,1819506,0.0-19.0-0.0-0.94,A2JXPT39AWRES7,31KPKEKW5DTYWQJ2Z73D1GA4ZNDB00,3WQ3B2KGECW1PY2ELSCF45P1YRK1BR,4,3
95,1,object_03,object_08,995.09999990463,1,1,201.70000004768,0.5555555555555556,1,object_06,5,1214,0,5,8,desert_5,2,memory-2step-stake-s,584,1827483,0.0-19.0-0.0-0.95,A2JXPT39AWRES7,31KPKEKW5DTYWQJ2Z73D1GA4ZNDB00,3WQ3B2KGECW1PY2ELSCF45P1YRK1BR,1,2
96,3,object_10,object_02,454.19999992847,5,2,319.79999995232,0.6666666666666666,1,object_06,1,1220,0,6,9,library_7,2,memory-2step-stake-s,585,1835673,0.0-19.0-0.0-0.96,A2JXPT39AWRES7,31KPKEKW5DTYWQJ2Z73D1GA4ZNDB00,3WQ3B2KGECW1PY2ELSCF45P1YRK1BR,6,5
97,3,object_02,object_10,1259.8999999762,6,2,309.0,0.7777777777777778,2,object_09,1,1227,0,8,7,library_3,2,memory-2step-stake-s,586,1843974,0.0-19.0-0.0-0.97,A2JXPT39AWRES7,31KPKEKW5DTYWQJ2Z73D1GA4ZNDB00,3WQ3B2KGECW1PY2ELSCF45P1YRK1BR,5,6
98,4,object_05,object_04,1384.2000000477,8,1,803.10000002384,0.7777777777777778,2,object_09,1,1234,0,8,7,restaurant_3,2,memory-2step-stake-s,587,1852742,0.0-19.0-0.0-0.98,A2JXPT39AWRES7,31KPKEKW5DTYWQJ2Z73D1GA4ZNDB00,3WQ3B2KGECW1PY2ELSCF45P1YRK1BR,8,7
99,2,object_07,object_01,787.19999992847,4,1,282.59999990463,0.3333333333333333,2,object_09,5,1249,0,7,3,forest_1,2,memory-2step-stake-s,588,1860568,0.0-19.0-0.0-0.99,A2JXPT39AWRES7,31KPKEKW5DTYWQJ2Z73D1GA4ZNDB00,3WQ3B2KGECW1PY2ELSCF45P1YRK1BR,4,3
100,3,object_10,object_02,310.89999997616,5,2,242.70000004768,0.7777777777777778,1,object_06,1,1256,0,7,3,library_6,2,memory-2step-stake-s,589,1868801,0.0-19.0-0.0-0.100,A2JXPT39AWRES7,31KPKEKW5DTYWQJ2Z73D1GA4ZNDB00,3WQ3B2KGECW1PY2ELSCF45P1YRK1BR,6,5
101,4,object_05,object_04,818.09999990463,8,1,217.20000004768,0.5555555555555556,2,object_09,1,1261,0,7,5,restaurant_5,2,memory-2step-stake-s,590,1876774,0.0-19.0-0.0-0.101,A2JXPT39AWRES7,31KPKEKW5DTYWQJ2Z73D1GA4ZNDB00,3WQ3B2KGECW1PY2ELSCF45P1YRK1BR,8,7
102,2,object_07,object_01,415.20000004768,3,2,428.5,0.6666666666666666,1,object_06,5,1291,0,6,8,forest_6,2,memory-2step-stake-s,591,1885062,0.0-19.0-0.0-0.102,A2JXPT39AWRES7,31KPKEKW5DTYWQJ2Z73D1GA4ZNDB00,3WQ3B2KGECW1PY2ELSCF45P1YRK1BR,4,3
103,3,object_02,object_10,355.70000004768,5,1,231.60000002384,0.4444444444444444,1,object_06,5,1311,0,4,8,library_4,2,memory-2step-stake-s,592,1892947,0.0-19.0-0.0-0.103,A2JXPT39AWRES7,31KPKEKW5DTYWQJ2Z73D1GA4ZNDB00,3WQ3B2KGECW1PY2ELSCF45P1YRK1BR,5,6
104,1,object_08,object_03,556.70000004768,2,1,353.89999997616,0.7777777777777778,2,object_09,5,1346,0,8,7,desert_5,2,memory-2step-stake-s,593,1901279,0.0-19.0-0.0-0.104,A2JXPT39AWRES7,31KPKEKW5DTYWQJ2Z73D1GA4ZNDB00,3WQ3B2KGECW1PY2ELSCF45P1YRK1BR,2,1
105,3,object_10,object_02,882.20000004768,6,1,484.90000009537,0.8888888888888888,2,object_09,1,1354,0,8,8,library_7,2,memory-2step-stake-s,594,1909829,0.0-19.0-0.0-0.105,A2JXPT39AWRES7,31KPKEKW5DTYWQJ2Z73D1GA4ZNDB00,3WQ3B2KGECW1PY2ELSCF45P1YRK1BR,6,5
106,1,object_08,object_03,1184.2999999523,2,1,360.80000007153,0.7777777777777778,2,object_09,5,1389,0,6,7,desert_4,2,memory-2step-stake-s,595,1918159,0.0-19.0-0.0-0.106,A2JXPT39AWRES7,31KPKEKW5DTYWQJ2Z73D1GA4ZNDB00,3WQ3B2KGECW1PY2ELSCF45P1YRK1BR,2,1
107,1,object_08,object_03,576.5,2,1,318.70000004768,0.7777777777777778,2,object_09,5,1424,0,2,7,desert_4,2,memory-2step-stake-s,596,1926462,0.0-19.0-0.0-0.107,A2JXPT39AWRES7,31KPKEKW5DTYWQJ2Z73D1GA4ZNDB00,3WQ3B2KGECW1PY2ELSCF45P1YRK1BR,2,1
108,3,object_02,object_10,898.0,6,2,255.89999997616,0.5555555555555556,2,object_09,5,1449,0,2,5,library_6,2,memory-2step-stake-s,597,1934481,0.0-19.0-0.0-0.108,A2JXPT39AWRES7,31KPKEKW5DTYWQJ2Z73D1GA4ZNDB00,3WQ3B2KGECW1PY2ELSCF45P1YRK1BR,5,6
109,4,object_04,object_05,594.0,7,1,218.60000002384,0.6666666666666666,1,object_06,1,1455,0,6,4,restaurant_5,2,memory-2step-stake-s,598,1942556,0.0-19.0-0.0-0.109,A2JXPT39AWRES7,31KPKEKW5DTYWQJ2Z73D1GA4ZNDB00,3WQ3B2KGECW1PY2ELSCF45P1YRK1BR,7,8
110,3,object_02,object_10,1225.8000000715,6,2,244.09999990463,0.4444444444444444,2,object_09,1,1459,0,5,4,library_7,2,memory-2step-stake-s,599,1950455,0.0-19.0-0.0-0.110,A2JXPT39AWRES7,31KPKEKW5DTYWQJ2Z73D1GA4ZNDB00,3WQ3B2KGECW1PY2ELSCF45P1YRK1BR,5,6
111,4,object_04,object_05,497.10000002384,7,1,208.40000009537,0.6666666666666666,1,object_06,5,1489,0,6,6,restaurant_8,2,memory-2step-stake-s,600,1958541,0.0-19.0-0.0-0.111,A2JXPT39AWRES7,31KPKEKW5DTYWQJ2Z73D1GA4ZNDB00,3WQ3B2KGECW1PY2ELSCF45P1YRK1BR,7,8
112,4,object_04,object_05,814.79999995232,8,2,245.90000009537,0.5555555555555556,2,object_09,1,1494,0,8,5,restaurant_5,2,memory-2step-stake-s,601,1966545,0.0-19.0-0.0-0.112,A2JXPT39AWRES7,31KPKEKW5DTYWQJ2Z73D1GA4ZNDB00,3WQ3B2KGECW1PY2ELSCF45P1YRK1BR,7,8
113,3,object_02,object_10,780.70000004768,6,2,288.39999997616,0.4444444444444444,2,object_09,1,1498,0,4,4,library_6,2,memory-2step-stake-s,602,1974501,0.0-19.0-0.0-0.113,A2JXPT39AWRES7,31KPKEKW5DTYWQJ2Z73D1GA4ZNDB00,3WQ3B2KGECW1PY2ELSCF45P1YRK1BR,5,6
114,3,object_10,object_02,-1.0,-1,-1,-1.0,0.0,-,0,5,1498,0,4,4,library_3,2,memory-2step-stake-s,603,1981026,0.0-19.0-0.0-0.114,A2JXPT39AWRES7,31KPKEKW5DTYWQJ2Z73D1GA4ZNDB00,3WQ3B2KGECW1PY2ELSCF45P1YRK1BR,6,5
115,2,object_07,object_01,1000.2999999523,3,2,244.29999995232,0.5555555555555556,1,object_06,1,1503,0,5,6,forest_4,2,memory-2step-stake-s,604,1989014,0.0-19.0-0.0-0.115,A2JXPT39AWRES7,31KPKEKW5DTYWQJ2Z73D1GA4ZNDB00,3WQ3B2KGECW1PY2ELSCF45P1YRK1BR,4,3
116,3,object_02,object_10,350.79999995232,5,1,376.5,0.4444444444444444,1,object_06,1,1507,0,4,5,library_6,2,memory-2step-stake-s,605,1997059,0.0-19.0-0.0-0.116,A2JXPT39AWRES7,31KPKEKW5DTYWQJ2Z73D1GA4ZNDB00,3WQ3B2KGECW1PY2ELSCF45P1YRK1BR,5,6
117,3,object_02,object_10,1503.6999999285,6,2,337.89999997616,0.4444444444444444,2,object_09,1,1511,0,5,4,library_3,2,memory-2step-stake-s,606,2005068,0.0-19.0-0.0-0.117,A2JXPT39AWRES7,31KPKEKW5DTYWQJ2Z73D1GA4ZNDB00,3WQ3B2KGECW1PY2ELSCF45P1YRK1BR,5,6
118,2,object_07,object_01,337.60000002384,4,1,64.5,0.2222222222222222,2,object_09,5,1521,0,3,2,forest_8,2,memory-2step-stake-s,607,2012569,0.0-19.0-0.0-0.118,A2JXPT39AWRES7,31KPKEKW5DTYWQJ2Z73D1GA4ZNDB00,3WQ3B2KGECW1PY2ELSCF45P1YRK1BR,4,3
119,2,object_01,object_07,587.29999995232,4,2,27.099999904633,0.1111111111111111,2,object_09,5,1526,0,1,1,forest_8,2,memory-2step-stake-s,608,2019961,0.0-19.0-0.0-0.119,A2JXPT39AWRES7,31KPKEKW5DTYWQJ2Z73D1GA4ZNDB00,3WQ3B2KGECW1PY2ELSCF45P1YRK1BR,3,4
120,3,object_10,object_02,611.39999997616,5,2,221.39999997616,0.1111111111111111,1,object_06,1,1527,0,1,0,library_4,2,memory-2step-stake-s,609,2027544,0.0-19.0-0.0-0.120,A2JXPT39AWRES7,31KPKEKW5DTYWQJ2Z73D1GA4ZNDB00,3WQ3B2KGECW1PY2ELSCF45P1YRK1BR,6,5
121,3,object_02,object_10,820.0,6,2,147.10000002384,0.3333333333333333,2,object_09,1,1530,0,2,3,library_7,2,memory-2step-stake-s,610,2035262,0.0-19.0-0.0-0.121,A2JXPT39AWRES7,31KPKEKW5DTYWQJ2Z73D1GA4ZNDB00,3WQ3B2KGECW1PY2ELSCF45P1YRK1BR,5,6
122,3,object_02,object_10,364.39999997616,5,1,283.29999995232,0.1111111111111111,1,object_06,5,1535,0,1,6,library_6,2,memory-2step-stake-s,611,2042899,0.0-19.0-0.0-0.122,A2JXPT39AWRES7,31KPKEKW5DTYWQJ2Z73D1GA4ZNDB00,3WQ3B2KGECW1PY2ELSCF45P1YRK1BR,5,6
123,2,object_07,object_01,441.5,3,2,244.39999997616,0.3333333333333333,1,object_06,5,1550,0,3,5,forest_8,2,memory-2step-stake-s,612,2050706,0.0-19.0-0.0-0.123,A2JXPT39AWRES7,31KPKEKW5DTYWQJ2Z73D1GA4ZNDB00,3WQ3B2KGECW1PY2ELSCF45P1YRK1BR,4,3
124,2,object_01,object_07,789.19999992847,4,2,298.19999992847,0.4444444444444444,2,object_09,5,1570,0,4,4,forest_6,2,memory-2step-stake-s,613,2058667,0.0-19.0-0.0-0.124,A2JXPT39AWRES7,31KPKEKW5DTYWQJ2Z73D1GA4ZNDB00,3WQ3B2KGECW1PY2ELSCF45P1YRK1BR,3,4
125,2,object_01,object_07,620.60000002384,4,2,809.39999997616,0.1111111111111111,2,object_09,5,1575,0,4,1,forest_6,2,memory-2step-stake-s,614,2066841,0.0-19.0-0.0-0.125,A2JXPT39AWRES7,31KPKEKW5DTYWQJ2Z73D1GA4ZNDB00,3WQ3B2KGECW1PY2ELSCF45P1YRK1BR,3,4
126,1,object_03,object_08,630.29999995232,2,2,280.80000007153,0.7777777777777778,2,object_09,1,1582,0,5,7,desert_4,2,memory-2step-stake-s,615,2075097,0.0-19.0-0.0-0.126,A2JXPT39AWRES7,31KPKEKW5DTYWQJ2Z73D1GA4ZNDB00,3WQ3B2KGECW1PY2ELSCF45P1YRK1BR,1,2
127,3,object_10,object_02,685.5,5,2,349.30000007153,0.7777777777777778,1,object_06,1,1589,0,7,5,library_7,2,memory-2step-stake-s,616,2083431,0.0-19.0-0.0-0.127,A2JXPT39AWRES7,31KPKEKW5DTYWQJ2Z73D1GA4ZNDB00,3WQ3B2KGECW1PY2ELSCF45P1YRK1BR,6,5
128,2,object_01,object_07,604.90000009537,4,2,490.60000002384,0.5555555555555556,2,object_09,5,1614,0,8,5,forest_1,2,memory-2step-stake-s,618,2096714,0.0-19.0-0.1-0.128,A2JXPT39AWRES7,31KPKEKW5DTYWQJ2Z73D1GA4ZNDB00,3WQ3B2KGECW1PY2ELSCF45P1YRK1BR,3,4
129,4,object_05,object_04,709.70000004768,7,2,491.70000004768,0.6666666666666666,1,object_06,1,1620,0,6,7,restaurant_8,2,memory-2step-stake-s,619,2105097,0.0-19.0-0.1-0.129,A2JXPT39AWRES7,31KPKEKW5DTYWQJ2Z73D1GA4ZNDB00,3WQ3B2KGECW1PY2ELSCF45P1YRK1BR,8,7
130,3,object_10,object_02,581.20000004768,6,1,583.59999990463,0.7777777777777778,2,object_09,1,1627,0,7,7,library_7,2,memory-2step-stake-s,620,2113673,0.0-19.0-0.1-0.130,A2JXPT39AWRES7,31KPKEKW5DTYWQJ2Z73D1GA4ZNDB00,3WQ3B2KGECW1PY2ELSCF45P1YRK1BR,6,5
131,2,object_01,object_07,96.299999952316,4,2,122.20000004768,0.5555555555555556,2,object_09,5,1652,0,4,5,forest_1,2,memory-2step-stake-s,621,2121559,0.0-19.0-0.1-0.131,A2JXPT39AWRES7,31KPKEKW5DTYWQJ2Z73D1GA4ZNDB00,3WQ3B2KGECW1PY2ELSCF45P1YRK1BR,3,4
132,2,object_01,object_07,378.29999995232,3,1,610.89999997616,0.3333333333333333,1,object_06,1,1655,0,3,6,forest_6,2,memory-2step-stake-s,622,2129757,0.0-19.0-0.1-0.132,A2JXPT39AWRES7,31KPKEKW5DTYWQJ2Z73D1GA4ZNDB00,3WQ3B2KGECW1PY2ELSCF45P1YRK1BR,3,4
133,4,object_04,object_05,259.20000004768,8,2,288.69999992847,0.6666666666666666,2,object_09,1,1661,0,2,6,restaurant_8,2,memory-2step-stake-s,623,2137935,0.0-19.0-0.1-0.133,A2JXPT39AWRES7,31KPKEKW5DTYWQJ2Z73D1GA4ZNDB00,3WQ3B2KGECW1PY2ELSCF45P1YRK1BR,7,8
134,2,object_01,object_07,1052.3999999762,3,1,321.0,0.5555555555555556,1,object_06,5,1686,0,5,8,forest_8,2,memory-2step-stake-s,624,2146016,0.0-19.0-0.1-0.134,A2JXPT39AWRES7,31KPKEKW5DTYWQJ2Z73D1GA4ZNDB00,3WQ3B2KGECW1PY2ELSCF45P1YRK1BR,3,4
135,4,object_05,object_04,160.5,7,2,746.69999992847,0.3333333333333333,1,object_06,1,1689,0,3,9,restaurant_2,2,memory-2step-stake-s,625,2154322,0.0-19.0-0.1-0.135,A2JXPT39AWRES7,31KPKEKW5DTYWQJ2Z73D1GA4ZNDB00,3WQ3B2KGECW1PY2ELSCF45P1YRK1BR,8,7
136,2,object_01,object_07,641.19999992847,4,2,679.69999992847,0.8888888888888888,2,object_09,1,1697,0,2,8,forest_6,2,memory-2step-stake-s,626,2163078,0.0-19.0-0.1-0.136,A2JXPT39AWRES7,31KPKEKW5DTYWQJ2Z73D1GA4ZNDB00,3WQ3B2KGECW1PY2ELSCF45P1YRK1BR,3,4
137,2,object_01,object_07,118.09999990463,3,1,740.5,0.4444444444444444,1,object_06,1,1701,0,4,7,forest_6,2,memory-2step-stake-s,627,2171475,0.0-19.0-0.1-0.137,A2JXPT39AWRES7,31KPKEKW5DTYWQJ2Z73D1GA4ZNDB00,3WQ3B2KGECW1PY2ELSCF45P1YRK1BR,3,4
138,3,object_02,object_10,470.59999990463,6,2,329.59999990463,0.6666666666666666,2,object_09,1,1707,0,6,6,library_6,2,memory-2step-stake-s,628,2179661,0.0-19.0-0.1-0.138,A2JXPT39AWRES7,31KPKEKW5DTYWQJ2Z73D1GA4ZNDB00,3WQ3B2KGECW1PY2ELSCF45P1YRK1BR,5,6
139,1,object_08,object_03,700.5,1,2,327.5,0.5555555555555556,1,object_06,5,1732,0,5,5,desert_5,2,memory-2step-stake-s,629,2187717,0.0-19.0-0.1-0.139,A2JXPT39AWRES7,31KPKEKW5DTYWQJ2Z73D1GA4ZNDB00,3WQ3B2KGECW1PY2ELSCF45P1YRK1BR,2,1
140,1,object_03,object_08,351.5,1,1,737.5,1.0,1,object_06,5,1777,0,9,4,desert_8,2,memory-2step-stake-s,630,2196645,0.0-19.0-0.1-0.140,A2JXPT39AWRES7,31KPKEKW5DTYWQJ2Z73D1GA4ZNDB00,3WQ3B2KGECW1PY2ELSCF45P1YRK1BR,1,2
141,1,object_08,object_03,686.80000007153,1,2,666.20000004768,0.8888888888888888,1,object_06,5,1817,0,8,5,desert_5,2,memory-2step-stake-s,631,2205392,0.0-19.0-0.1-0.141,A2JXPT39AWRES7,31KPKEKW5DTYWQJ2Z73D1GA4ZNDB00,3WQ3B2KGECW1PY2ELSCF45P1YRK1BR,2,1
142,2,object_01,object_07,689.5,4,2,557.90000009537,0.2222222222222222,2,object_09,5,1827,0,5,2,forest_4,2,memory-2step-stake-s,632,2213408,0.0-19.0-0.1-0.142,A2JXPT39AWRES7,31KPKEKW5DTYWQJ2Z73D1GA4ZNDB00,3WQ3B2KGECW1PY2ELSCF45P1YRK1BR,3,4
143,2,object_01,object_07,301.89999997616,3,1,469.89999997616,0.8888888888888888,1,object_06,1,1835,0,8,1,forest_8,2,memory-2step-stake-s,633,2221915,0.0-19.0-0.1-0.143,A2JXPT39AWRES7,31KPKEKW5DTYWQJ2Z73D1GA4ZNDB00,3WQ3B2KGECW1PY2ELSCF45P1YRK1BR,3,4
144,4,object_05,object_04,530.39999997616,7,2,718.79999995232,0.7777777777777778,1,object_06,5,1870,0,7,3,restaurant_5,2,memory-2step-stake-s,634,2230597,0.0-19.0-0.1-0.144,A2JXPT39AWRES7,31KPKEKW5DTYWQJ2Z73D1GA4ZNDB00,3WQ3B2KGECW1PY2ELSCF45P1YRK1BR,8,7
145,2,object_07,object_01,714.29999995232,3,2,536.39999997616,1.0,1,object_06,5,1915,0,9,3,forest_8,2,memory-2step-stake-s,635,2239298,0.0-19.0-0.1-0.145,A2JXPT39AWRES7,31KPKEKW5DTYWQJ2Z73D1GA4ZNDB00,3WQ3B2KGECW1PY2ELSCF45P1YRK1BR,4,3
146,4,object_05,object_04,883.40000009537,8,1,440.39999997616,0.4444444444444444,2,object_09,1,1919,0,9,4,restaurant_8,2,memory-2step-stake-s,636,2247392,0.0-19.0-0.1-0.146,A2JXPT39AWRES7,31KPKEKW5DTYWQJ2Z73D1GA4ZNDB00,3WQ3B2KGECW1PY2ELSCF45P1YRK1BR,8,7
147,2,object_07,object_01,556.20000004768,4,1,196.29999995232,0.3333333333333333,2,object_09,5,1934,0,8,3,forest_8,2,memory-2step-stake-s,637,2255152,0.0-19.0-0.1-0.147,A2JXPT39AWRES7,31KPKEKW5DTYWQJ2Z73D1GA4ZNDB00,3WQ3B2KGECW1PY2ELSCF45P1YRK1BR,4,3
148,1,object_08,object_03,719.10000002384,1,2,379.89999997616,0.8888888888888888,1,object_06,5,1974,0,8,2,desert_3,2,memory-2step-stake-s,638,2263627,0.0-19.0-0.1-0.148,A2JXPT39AWRES7,31KPKEKW5DTYWQJ2Z73D1GA4ZNDB00,3WQ3B2KGECW1PY2ELSCF45P1YRK1BR,2,1
149,3,object_10,object_02,739.19999992847,6,1,326.70000004768,0.4444444444444444,2,object_09,5,1994,0,9,4,library_4,2,memory-2step-stake-s,639,2271620,0.0-19.0-0.1-0.149,A2JXPT39AWRES7,31KPKEKW5DTYWQJ2Z73D1GA4ZNDB00,3WQ3B2KGECW1PY2ELSCF45P1YRK1BR,6,5
150,3,object_02,object_10,171.20000004768,6,2,250.39999997616,0.4444444444444444,2,object_09,1,1998,0,7,4,library_3,2,memory-2step-stake-s,640,2279534,0.0-19.0-0.1-0.150,A2JXPT39AWRES7,31KPKEKW5DTYWQJ2Z73D1GA4ZNDB00,3WQ3B2KGECW1PY2ELSCF45P1YRK1BR,5,6
151,3,object_02,object_10,209.19999992847,5,1,608.89999997616,0.8888888888888888,1,object_06,1,2006,0,8,2,library_3,2,memory-2step-stake-s,641,2288230,0.0-19.0-0.1-0.151,A2JXPT39AWRES7,31KPKEKW5DTYWQJ2Z73D1GA4ZNDB00,3WQ3B2KGECW1PY2ELSCF45P1YRK1BR,5,6
152,1,object_08,object_03,446.29999995232,1,2,690.79999995232,0.7777777777777778,1,object_06,5,2041,0,7,2,desert_5,2,memory-2step-stake-s,642,2296866,0.0-19.0-0.1-0.152,A2JXPT39AWRES7,31KPKEKW5DTYWQJ2Z73D1GA4ZNDB00,3WQ3B2KGECW1PY2ELSCF45P1YRK1BR,2,1
153,4,object_05,object_04,416.0,8,1,805.30000007153,0.1111111111111111,2,object_09,1,2042,0,9,1,restaurant_5,2,memory-2step-stake-s,643,2305027,0.0-19.0-0.1-0.153,A2JXPT39AWRES7,31KPKEKW5DTYWQJ2Z73D1GA4ZNDB00,3WQ3B2KGECW1PY2ELSCF45P1YRK1BR,8,7
154,3,object_02,object_10,833.20000004768,6,2,-1.0,0.0,2,object_09,1,2042,0,6,1,library_6,2,memory-2step-stake-s,644,2313573,0.0-19.0-0.1-0.154,A2JXPT39AWRES7,31KPKEKW5DTYWQJ2Z73D1GA4ZNDB00,3WQ3B2KGECW1PY2ELSCF45P1YRK1BR,5,6
155,3,object_10,object_02,835.90000009537,6,1,-1.0,0.0,2,object_09,1,2042,0,7,0,library_4,2,memory-2step-stake-s,645,2322121,0.0-19.0-0.1-0.155,A2JXPT39AWRES7,31KPKEKW5DTYWQJ2Z73D1GA4ZNDB00,3WQ3B2KGECW1PY2ELSCF45P1YRK1BR,6,5
156,2,object_07,object_01,728.60000002384,4,1,418.29999995232,0.1111111111111111,2,object_09,5,2047,0,5,1,forest_4,2,memory-2step-stake-s,646,2329886,0.0-19.0-0.1-0.156,A2JXPT39AWRES7,31KPKEKW5DTYWQJ2Z73D1GA4ZNDB00,3WQ3B2KGECW1PY2ELSCF45P1YRK1BR,4,3
157,4,object_04,object_05,648.40000009537,8,2,700.30000007153,0.0,2,object_09,1,2047,0,5,0,restaurant_3,2,memory-2step-stake-s,647,2337808,0.0-19.0-0.1-0.157,A2JXPT39AWRES7,31KPKEKW5DTYWQJ2Z73D1GA4ZNDB00,3WQ3B2KGECW1PY2ELSCF45P1YRK1BR,7,8
158,4,object_04,object_05,540.89999997616,8,2,815.0,0.2222222222222222,2,object_09,1,2049,0,3,2,restaurant_5,2,memory-2step-stake-s,648,2346074,0.0-19.0-0.1-0.158,A2JXPT39AWRES7,31KPKEKW5DTYWQJ2Z73D1GA4ZNDB00,3WQ3B2KGECW1PY2ELSCF45P1YRK1BR,7,8
159,4,object_04,object_05,864.60000002384,8,2,562.19999992847,0.2222222222222222,2,object_09,1,2051,0,2,2,restaurant_2,2,memory-2step-stake-s,649,2354075,0.0-19.0-0.1-0.159,A2JXPT39AWRES7,31KPKEKW5DTYWQJ2Z73D1GA4ZNDB00,3WQ3B2KGECW1PY2ELSCF45P1YRK1BR,7,8
160,2,object_07,object_01,894.39999997616,4,1,614.09999990463,0.2222222222222222,2,object_09,5,2061,0,1,2,forest_6,2,memory-2step-stake-s,650,2362150,0.0-19.0-0.1-0.160,A2JXPT39AWRES7,31KPKEKW5DTYWQJ2Z73D1GA4ZNDB00,3WQ3B2KGECW1PY2ELSCF45P1YRK1BR,4,3
161,4,object_05,object_04,545.69999992847,8,1,776.90000009537,0.2222222222222222,2,object_09,1,2063,0,0,2,restaurant_3,2,memory-2step-stake-s,651,2370386,0.0-19.0-0.1-0.161,A2JXPT39AWRES7,31KPKEKW5DTYWQJ2Z73D1GA4ZNDB00,3WQ3B2KGECW1PY2ELSCF45P1YRK1BR,8,7
162,3,object_02,object_10,817.5,6,2,550.10000002384,0.5555555555555556,2,object_09,1,2068,0,0,5,library_4,2,memory-2step-stake-s,652,2378702,0.0-19.0-0.1-0.162,A2JXPT39AWRES7,31KPKEKW5DTYWQJ2Z73D1GA4ZNDB00,3WQ3B2KGECW1PY2ELSCF45P1YRK1BR,5,6
163,4,object_05,object_04,770.70000004768,8,1,311.20000004768,0.5555555555555556,2,object_09,1,2073,0,2,5,restaurant_2,2,memory-2step-stake-s,653,2386792,0.0-19.0-0.1-0.163,A2JXPT39AWRES7,31KPKEKW5DTYWQJ2Z73D1GA4ZNDB00,3WQ3B2KGECW1PY2ELSCF45P1YRK1BR,8,7
164,3,object_02,object_10,714.19999992847,6,2,226.30000007153,0.4444444444444444,2,object_09,1,2077,0,1,4,library_3,2,memory-2step-stake-s,654,2394681,0.0-19.0-0.1-0.164,A2JXPT39AWRES7,31KPKEKW5DTYWQJ2Z73D1GA4ZNDB00,3WQ3B2KGECW1PY2ELSCF45P1YRK1BR,5,6
165,2,object_07,object_01,991.0,4,1,576.60000002384,0.3333333333333333,2,object_09,1,2080,0,3,3,forest_4,2,memory-2step-stake-s,655,2402817,0.0-19.0-0.1-0.165,A2JXPT39AWRES7,31KPKEKW5DTYWQJ2Z73D1GA4ZNDB00,3WQ3B2KGECW1PY2ELSCF45P1YRK1BR,4,3
166,1,object_08,object_03,1210.5,2,1,383.20000004768,0.5555555555555556,2,object_09,5,2105,0,1,5,desert_5,2,memory-2step-stake-s,656,2410964,0.0-19.0-0.1-0.166,A2JXPT39AWRES7,31KPKEKW5DTYWQJ2Z73D1GA4ZNDB00,3WQ3B2KGECW1PY2ELSCF45P1YRK1BR,2,1
167,4,object_04,object_05,1083.9000000954,7,1,341.29999995232,0.0,1,object_06,1,2105,0,0,6,restaurant_3,2,memory-2step-stake-s,657,2418548,0.0-19.0-0.1-0.167,A2JXPT39AWRES7,31KPKEKW5DTYWQJ2Z73D1GA4ZNDB00,3WQ3B2KGECW1PY2ELSCF45P1YRK1BR,7,8
168,4,object_04,object_05,1065.2999999523,7,1,280.10000002384,0.3333333333333333,1,object_06,5,2120,0,3,4,restaurant_5,2,memory-2step-stake-s,658,2426372,0.0-19.0-0.1-0.168,A2JXPT39AWRES7,31KPKEKW5DTYWQJ2Z73D1GA4ZNDB00,3WQ3B2KGECW1PY2ELSCF45P1YRK1BR,7,8
169,1,object_03,object_08,854.60000002384,2,2,327.29999995232,0.3333333333333333,2,object_09,5,2135,0,7,3,desert_5,2,memory-2step-stake-s,659,2434241,0.0-19.0-0.1-0.169,A2JXPT39AWRES7,31KPKEKW5DTYWQJ2Z73D1GA4ZNDB00,3WQ3B2KGECW1PY2ELSCF45P1YRK1BR,1,2
170,1,object_03,object_08,871.69999992847,1,1,232.5,1.0,1,object_06,5,2180,0,9,0,desert_3,2,memory-2step-stake-s,660,2442643,0.0-19.0-0.1-0.170,A2JXPT39AWRES7,31KPKEKW5DTYWQJ2Z73D1GA4ZNDB00,3WQ3B2KGECW1PY2ELSCF45P1YRK1BR,1,2
171,4,object_05,object_04,1093.3999999762,7,2,263.5,0.7777777777777778,1,object_06,1,2187,0,7,1,restaurant_2,2,memory-2step-stake-s,661,2450883,0.0-19.0-0.1-0.171,A2JXPT39AWRES7,31KPKEKW5DTYWQJ2Z73D1GA4ZNDB00,3WQ3B2KGECW1PY2ELSCF45P1YRK1BR,8,7
172,1,object_08,object_03,1037.5,2,1,294.79999995232,0.5555555555555556,2,object_09,5,2212,0,3,5,desert_4,2,memory-2step-stake-s,662,2458967,0.0-19.0-0.1-0.172,A2JXPT39AWRES7,31KPKEKW5DTYWQJ2Z73D1GA4ZNDB00,3WQ3B2KGECW1PY2ELSCF45P1YRK1BR,2,1
173,3,object_02,object_10,-1.0,-1,-1,-1.0,0.0,-,0,5,2212,0,3,8,library_4,2,memory-2step-stake-s,663,2465502,0.0-19.0-0.1-0.173,A2JXPT39AWRES7,31KPKEKW5DTYWQJ2Z73D1GA4ZNDB00,3WQ3B2KGECW1PY2ELSCF45P1YRK1BR,5,6
174,1,object_03,object_08,817.5,1,1,281.80000007153,0.3333333333333333,1,object_06,1,2215,0,3,9,desert_4,2,memory-2step-stake-s,664,2473337,0.0-19.0-0.1-0.174,A2JXPT39AWRES7,31KPKEKW5DTYWQJ2Z73D1GA4ZNDB00,3WQ3B2KGECW1PY2ELSCF45P1YRK1BR,1,2
175,1,object_08,object_03,1004.3000000715,2,1,584.89999997616,1.0,2,object_09,1,2224,0,5,9,desert_4,2,memory-2step-stake-s,665,2482100,0.0-19.0-0.1-0.175,A2JXPT39AWRES7,31KPKEKW5DTYWQJ2Z73D1GA4ZNDB00,3WQ3B2KGECW1PY2ELSCF45P1YRK1BR,2,1
176,2,object_01,object_07,928.60000002384,4,2,229.60000002384,1.0,2,object_09,5,2269,0,4,9,forest_6,2,memory-2step-stake-s,666,2490502,0.0-19.0-0.1-0.176,A2JXPT39AWRES7,31KPKEKW5DTYWQJ2Z73D1GA4ZNDB00,3WQ3B2KGECW1PY2ELSCF45P1YRK1BR,3,4
177,1,object_03,object_08,1053.3999999762,1,1,321.70000004768,0.1111111111111111,1,object_06,5,2274,0,1,7,desert_8,2,memory-2step-stake-s,667,2498195,0.0-19.0-0.1-0.177,A2JXPT39AWRES7,31KPKEKW5DTYWQJ2Z73D1GA4ZNDB00,3WQ3B2KGECW1PY2ELSCF45P1YRK1BR,1,2
178,3,object_10,object_02,936.29999995232,6,1,517.70000004768,1.0,2,object_09,1,2283,0,2,9,library_6,2,memory-2step-stake-s,668,2506918,0.0-19.0-0.1-0.178,A2JXPT39AWRES7,31KPKEKW5DTYWQJ2Z73D1GA4ZNDB00,3WQ3B2KGECW1PY2ELSCF45P1YRK1BR,6,5
179,3,object_02,object_10,621.39999997616,6,2,240.29999995232,0.8888888888888888,2,object_09,1,2291,0,0,8,library_4,2,memory-2step-stake-s,669,2515231,0.0-19.0-0.1-0.179,A2JXPT39AWRES7,31KPKEKW5DTYWQJ2Z73D1GA4ZNDB00,3WQ3B2KGECW1PY2ELSCF45P1YRK1BR,5,6
180,1,object_03,object_08,1128.1000000238,1,1,360.30000007153,0.1111111111111111,1,object_06,5,2296,0,1,9,desert_3,2,memory-2step-stake-s,670,2522927,0.0-19.0-0.1-0.180,A2JXPT39AWRES7,31KPKEKW5DTYWQJ2Z73D1GA4ZNDB00,3WQ3B2KGECW1PY2ELSCF45P1YRK1BR,1,2
181,4,object_05,object_04,988.79999995232,8,1,350.19999992847,1.0,2,object_09,5,2341,0,1,9,restaurant_5,2,memory-2step-stake-s,671,2531463,0.0-19.0-0.1-0.181,A2JXPT39AWRES7,31KPKEKW5DTYWQJ2Z73D1GA4ZNDB00,3WQ3B2KGECW1PY2ELSCF45P1YRK1BR,8,7
182,4,object_04,object_05,667.20000004768,7,1,530.10000002384,0.1111111111111111,1,object_06,1,2342,0,1,9,restaurant_8,2,memory-2step-stake-s,672,2539336,0.0-19.0-0.1-0.182,A2JXPT39AWRES7,31KPKEKW5DTYWQJ2Z73D1GA4ZNDB00,3WQ3B2KGECW1PY2ELSCF45P1YRK1BR,7,8
183,4,object_05,object_04,1265.1999999285,8,1,304.5,0.8888888888888888,2,object_09,1,2350,0,2,8,restaurant_5,2,memory-2step-stake-s,673,2547695,0.0-19.0-0.1-0.183,A2JXPT39AWRES7,31KPKEKW5DTYWQJ2Z73D1GA4ZNDB00,3WQ3B2KGECW1PY2ELSCF45P1YRK1BR,8,7
184,1,object_03,object_08,1337.2000000477,2,2,384.5,0.6666666666666666,2,object_09,1,2356,0,2,6,desert_4,2,memory-2step-stake-s,674,2555940,0.0-19.0-0.1-0.184,A2JXPT39AWRES7,31KPKEKW5DTYWQJ2Z73D1GA4ZNDB00,3WQ3B2KGECW1PY2ELSCF45P1YRK1BR,1,2
185,2,object_07,object_01,1261.5,4,1,338.20000004768,0.4444444444444444,2,object_09,5,2376,0,5,4,forest_4,2,memory-2step-stake-s,675,2563940,0.0-19.0-0.1-0.185,A2JXPT39AWRES7,31KPKEKW5DTYWQJ2Z73D1GA4ZNDB00,3WQ3B2KGECW1PY2ELSCF45P1YRK1BR,4,3
186,1,object_03,object_08,479.60000002384,2,2,365.10000002384,0.4444444444444444,2,object_09,1,2380,0,3,4,desert_8,2,memory-2step-stake-s,676,2571972,0.0-19.0-0.1-0.186,A2JXPT39AWRES7,31KPKEKW5DTYWQJ2Z73D1GA4ZNDB00,3WQ3B2KGECW1PY2ELSCF45P1YRK1BR,1,2
187,3,object_10,object_02,812.0,5,2,465.89999997616,0.2222222222222222,1,object_06,1,2382,0,2,4,library_6,2,memory-2step-stake-s,677,2579909,0.0-19.0-0.1-0.187,A2JXPT39AWRES7,31KPKEKW5DTYWQJ2Z73D1GA4ZNDB00,3WQ3B2KGECW1PY2ELSCF45P1YRK1BR,6,5
188,1,object_03,object_08,680.10000002384,1,1,430.69999992847,0.0,1,object_06,5,2382,0,0,3,desert_8,2,memory-2step-stake-s,678,2587581,0.0-19.0-0.1-0.188,A2JXPT39AWRES7,31KPKEKW5DTYWQJ2Z73D1GA4ZNDB00,3WQ3B2KGECW1PY2ELSCF45P1YRK1BR,1,2
189,4,object_05,object_04,1229.5,8,1,194.29999995232,0.2222222222222222,2,object_09,5,2392,0,1,2,restaurant_3,2,memory-2step-stake-s,679,2595216,0.0-19.0-0.1-0.189,A2JXPT39AWRES7,31KPKEKW5DTYWQJ2Z73D1GA4ZNDB00,3WQ3B2KGECW1PY2ELSCF45P1YRK1BR,8,7
190,4,object_05,object_04,559.10000002384,7,2,114.70000004768,0.2222222222222222,1,object_06,5,2402,0,2,0,restaurant_5,2,memory-2step-stake-s,680,2602786,0.0-19.0-0.1-0.190,A2JXPT39AWRES7,31KPKEKW5DTYWQJ2Z73D1GA4ZNDB00,3WQ3B2KGECW1PY2ELSCF45P1YRK1BR,8,7
191,3,object_10,object_02,673.0,6,1,597.80000007153,0.1111111111111111,2,object_09,1,2403,0,3,1,library_4,2,memory-2step-stake-s,681,2610745,0.0-19.0-0.1-0.191,A2JXPT39AWRES7,31KPKEKW5DTYWQJ2Z73D1GA4ZNDB00,3WQ3B2KGECW1PY2ELSCF45P1YRK1BR,6,5
192,1,object_03,object_08,887.39999997616,1,1,263.70000004768,0.5555555555555556,1,object_06,5,2428,0,5,3,desert_3,2,memory-2step-stake-s,682,2618765,0.0-19.0-0.1-0.192,A2JXPT39AWRES7,31KPKEKW5DTYWQJ2Z73D1GA4ZNDB00,3WQ3B2KGECW1PY2ELSCF45P1YRK1BR,1,2
193,4,object_05,object_04,1029.4000000954,8,1,70.0,0.5555555555555556,2,object_09,1,2433,0,7,5,restaurant_2,2,memory-2step-stake-s,683,2626586,0.0-19.0-0.1-0.193,A2JXPT39AWRES7,31KPKEKW5DTYWQJ2Z73D1GA4ZNDB00,3WQ3B2KGECW1PY2ELSCF45P1YRK1BR,8,7
194,3,object_02,object_10,1064.9000000954,5,1,355.0,0.6666666666666666,1,object_06,1,2439,0,6,5,library_7,2,memory-2step-stake-s,684,2634808,0.0-19.0-0.1-0.194,A2JXPT39AWRES7,31KPKEKW5DTYWQJ2Z73D1GA4ZNDB00,3WQ3B2KGECW1PY2ELSCF45P1YRK1BR,5,6
195,1,object_03,object_08,262.0,2,2,143.39999997616,0.6666666666666666,2,object_09,5,2469,0,6,6,desert_5,2,memory-2step-stake-s,685,2642836,0.0-19.0-0.1-0.195,A2JXPT39AWRES7,31KPKEKW5DTYWQJ2Z73D1GA4ZNDB00,3WQ3B2KGECW1PY2ELSCF45P1YRK1BR,1,2
196,2,object_07,object_01,596.69999992847,4,1,189.5,0.7777777777777778,2,object_09,5,2504,0,6,7,forest_4,2,memory-2step-stake-s,686,2651016,0.0-19.0-0.1-0.196,A2JXPT39AWRES7,31KPKEKW5DTYWQJ2Z73D1GA4ZNDB00,3WQ3B2KGECW1PY2ELSCF45P1YRK1BR,4,3
197,3,object_02,object_10,651.10000002384,5,1,276.10000002384,0.6666666666666666,1,object_06,1,2510,0,6,8,library_7,2,memory-2step-stake-s,687,2659157,0.0-19.0-0.1-0.197,A2JXPT39AWRES7,31KPKEKW5DTYWQJ2Z73D1GA4ZNDB00,3WQ3B2KGECW1PY2ELSCF45P1YRK1BR,5,6
198,2,object_07,object_01,582.0,3,2,255.5,0.4444444444444444,1,object_06,5,2530,0,4,7,forest_1,2,memory-2step-stake-s,688,2667080,0.0-19.0-0.1-0.198,A2JXPT39AWRES7,31KPKEKW5DTYWQJ2Z73D1GA4ZNDB00,3WQ3B2KGECW1PY2ELSCF45P1YRK1BR,4,3
199,3,object_02,object_10,1332.7000000477,6,2,362.0,0.7777777777777778,2,object_09,5,2565,0,2,7,library_6,2,memory-2step-stake-s,689,2675411,0.0-19.0-0.1-0.199,A2JXPT39AWRES7,31KPKEKW5DTYWQJ2Z73D1GA4ZNDB00,3WQ3B2KGECW1PY2ELSCF45P1YRK1BR,5,6
200,1,object_08,object_03,560.39999997616,1,2,297.19999992847,0.0,1,object_06,5,2565,0,0,5,desert_5,2,memory-2step-stake-s,690,2682950,0.0-19.0-0.1-0.200,A2JXPT39AWRES7,31KPKEKW5DTYWQJ2Z73D1GA4ZNDB00,3WQ3B2KGECW1PY2ELSCF45P1YRK1BR,2,1
201,2,object_07,object_01,832.09999990463,4,1,539.20000004768,0.5555555555555556,2,object_09,5,2590,0,3,5,forest_1,2,memory-2step-stake-s,691,2691246,0.0-19.0-0.1-0.201,A2JXPT39AWRES7,31KPKEKW5DTYWQJ2Z73D1GA4ZNDB00,3WQ3B2KGECW1PY2ELSCF45P1YRK1BR,4,3
202,3,object_10,object_02,1399.4000000954,5,2,390.70000004768,0.2222222222222222,1,object_06,1,2592,0,2,1,library_4,2,memory-2step-stake-s,692,2699105,0.0-19.0-0.1-0.202,A2JXPT39AWRES7,31KPKEKW5DTYWQJ2Z73D1GA4ZNDB00,3WQ3B2KGECW1PY2ELSCF45P1YRK1BR,6,5
203,4,object_05,object_04,1011.7000000477,7,2,492.5,0.4444444444444444,1,object_06,1,2596,0,4,0,restaurant_3,2,memory-2step-stake-s,693,2707251,0.0-19.0-0.1-0.203,A2JXPT39AWRES7,31KPKEKW5DTYWQJ2Z73D1GA4ZNDB00,3WQ3B2KGECW1PY2ELSCF45P1YRK1BR,8,7
204,4,object_05,object_04,716.39999997616,7,2,119.10000002384,0.5555555555555556,1,object_06,1,2601,0,5,0,restaurant_2,2,memory-2step-stake-s,694,2715110,0.0-19.0-0.1-0.204,A2JXPT39AWRES7,31KPKEKW5DTYWQJ2Z73D1GA4ZNDB00,3WQ3B2KGECW1PY2ELSCF45P1YRK1BR,8,7
205,3,object_02,object_10,701.39999997616,5,1,353.69999992847,0.4444444444444444,1,object_06,1,2605,0,4,2,library_6,2,memory-2step-stake-s,695,2723106,0.0-19.0-0.1-0.205,A2JXPT39AWRES7,31KPKEKW5DTYWQJ2Z73D1GA4ZNDB00,3WQ3B2KGECW1PY2ELSCF45P1YRK1BR,5,6
206,4,object_04,object_05,788.20000004768,7,1,129.60000002384,0.5555555555555556,1,object_06,1,2610,0,5,1,restaurant_5,2,memory-2step-stake-s,696,2731014,0.0-19.0-0.1-0.206,A2JXPT39AWRES7,31KPKEKW5DTYWQJ2Z73D1GA4ZNDB00,3WQ3B2KGECW1PY2ELSCF45P1YRK1BR,7,8
207,1,object_08,object_03,772.39999997616,2,1,362.79999995232,0.2222222222222222,2,object_09,5,2620,0,5,2,desert_5,2,memory-2step-stake-s,697,2738821,0.0-19.0-0.1-0.207,A2JXPT39AWRES7,31KPKEKW5DTYWQJ2Z73D1GA4ZNDB00,3WQ3B2KGECW1PY2ELSCF45P1YRK1BR,2,1
208,2,object_01,object_07,1475.4000000954,3,1,473.69999992847,0.4444444444444444,1,object_06,5,2640,0,4,0,forest_6,2,memory-2step-stake-s,698,2746954,0.0-19.0-0.1-0.208,A2JXPT39AWRES7,31KPKEKW5DTYWQJ2Z73D1GA4ZNDB00,3WQ3B2KGECW1PY2ELSCF45P1YRK1BR,3,4
209,3,object_10,object_02,758.59999990463,6,1,466.0,0.3333333333333333,2,object_09,5,2655,0,5,3,library_3,2,memory-2step-stake-s,699,2754977,0.0-19.0-0.1-0.209,A2JXPT39AWRES7,31KPKEKW5DTYWQJ2Z73D1GA4ZNDB00,3WQ3B2KGECW1PY2ELSCF45P1YRK1BR,6,5
210,3,object_02,object_10,863.80000007153,5,1,60.0,0.2222222222222222,1,object_06,1,2657,0,2,4,library_6,2,memory-2step-stake-s,700,2762499,0.0-19.0-0.1-0.210,A2JXPT39AWRES7,31KPKEKW5DTYWQJ2Z73D1GA4ZNDB00,3WQ3B2KGECW1PY2ELSCF45P1YRK1BR,5,6
211,1,object_03,object_08,324.29999995232,2,2,560.5,0.1111111111111111,2,object_09,5,2662,0,3,1,desert_8,2,memory-2step-stake-s,701,2770403,0.0-19.0-0.1-0.211,A2JXPT39AWRES7,31KPKEKW5DTYWQJ2Z73D1GA4ZNDB00,3WQ3B2KGECW1PY2ELSCF45P1YRK1BR,1,2
212,1,object_03,object_08,516.39999997616,1,1,385.0,0.0,1,object_06,5,2662,0,0,2,desert_4,2,memory-2step-stake-s,702,2778039,0.0-19.0-0.1-0.212,A2JXPT39AWRES7,31KPKEKW5DTYWQJ2Z73D1GA4ZNDB00,3WQ3B2KGECW1PY2ELSCF45P1YRK1BR,1,2
213,3,object_02,object_10,848.10000002384,5,1,484.29999995232,0.3333333333333333,1,object_06,1,2665,0,3,4,library_7,2,memory-2step-stake-s,703,2786100,0.0-19.0-0.1-0.213,A2JXPT39AWRES7,31KPKEKW5DTYWQJ2Z73D1GA4ZNDB00,3WQ3B2KGECW1PY2ELSCF45P1YRK1BR,5,6
214,4,object_04,object_05,771.39999997616,8,2,334.20000004768,0.1111111111111111,2,object_09,1,2666,0,5,1,restaurant_3,2,memory-2step-stake-s,704,2793787,0.0-19.0-0.1-0.214,A2JXPT39AWRES7,31KPKEKW5DTYWQJ2Z73D1GA4ZNDB00,3WQ3B2KGECW1PY2ELSCF45P1YRK1BR,7,8
215,4,object_04,object_05,714.0,8,2,313.39999997616,0.2222222222222222,2,object_09,1,2668,0,2,2,restaurant_8,2,memory-2step-stake-s,705,2801548,0.0-19.0-0.1-0.215,A2JXPT39AWRES7,31KPKEKW5DTYWQJ2Z73D1GA4ZNDB00,3WQ3B2KGECW1PY2ELSCF45P1YRK1BR,7,8
216,1,object_03,object_08,835.20000004768,1,1,278.5,0.2222222222222222,1,object_06,5,2678,0,2,3,desert_4,2,memory-2step-stake-s,706,2809282,0.0-19.0-0.1-0.216,A2JXPT39AWRES7,31KPKEKW5DTYWQJ2Z73D1GA4ZNDB00,3WQ3B2KGECW1PY2ELSCF45P1YRK1BR,1,2
217,3,object_10,object_02,1126.2000000477,5,2,274.89999997616,0.4444444444444444,1,object_06,1,2682,0,4,3,library_6,2,memory-2step-stake-s,707,2817219,0.0-19.0-0.1-0.217,A2JXPT39AWRES7,31KPKEKW5DTYWQJ2Z73D1GA4ZNDB00,3WQ3B2KGECW1PY2ELSCF45P1YRK1BR,6,5
218,4,object_04,object_05,380.39999997616,7,1,263.09999990463,0.3333333333333333,1,object_06,5,2697,0,3,2,restaurant_3,2,memory-2step-stake-s,708,2825048,0.0-19.0-0.1-0.218,A2JXPT39AWRES7,31KPKEKW5DTYWQJ2Z73D1GA4ZNDB00,3WQ3B2KGECW1PY2ELSCF45P1YRK1BR,7,8
219,2,object_07,object_01,1371.8000000715,4,1,347.89999997616,0.2222222222222222,2,object_09,1,2699,0,4,2,forest_8,2,memory-2step-stake-s,709,2832847,0.0-19.0-0.1-0.219,A2JXPT39AWRES7,31KPKEKW5DTYWQJ2Z73D1GA4ZNDB00,3WQ3B2KGECW1PY2ELSCF45P1YRK1BR,4,3
220,2,object_07,object_01,663.89999997616,4,1,274.60000002384,0.4444444444444444,2,object_09,5,2719,0,3,4,forest_1,2,memory-2step-stake-s,710,2840801,0.0-19.0-0.1-0.220,A2JXPT39AWRES7,31KPKEKW5DTYWQJ2Z73D1GA4ZNDB00,3WQ3B2KGECW1PY2ELSCF45P1YRK1BR,4,3
221,2,object_07,object_01,601.60000002384,3,2,44.799999952316,0.0,1,object_06,5,2719,0,0,3,forest_1,2,memory-2step-stake-s,711,2848103,0.0-19.0-0.1-0.221,A2JXPT39AWRES7,31KPKEKW5DTYWQJ2Z73D1GA4ZNDB00,3WQ3B2KGECW1PY2ELSCF45P1YRK1BR,4,3
222,4,object_04,object_05,679.70000004768,7,1,392.70000004768,0.2222222222222222,1,object_06,1,2721,0,2,2,restaurant_3,2,memory-2step-stake-s,712,2855922,0.0-19.0-0.1-0.222,A2JXPT39AWRES7,31KPKEKW5DTYWQJ2Z73D1GA4ZNDB00,3WQ3B2KGECW1PY2ELSCF45P1YRK1BR,7,8
223,2,object_01,object_07,609.80000007153,3,1,208.30000007153,0.0,1,object_06,1,2721,0,0,1,forest_1,2,memory-2step-stake-s,713,2863361,0.0-19.0-0.1-0.223,A2JXPT39AWRES7,31KPKEKW5DTYWQJ2Z73D1GA4ZNDB00,3WQ3B2KGECW1PY2ELSCF45P1YRK1BR,3,4
224,4,object_05,object_04,653.20000004768,7,2,402.29999995232,0.1111111111111111,1,object_06,1,2722,0,1,1,restaurant_8,2,memory-2step-stake-s,714,2871129,0.0-19.0-0.1-0.224,A2JXPT39AWRES7,31KPKEKW5DTYWQJ2Z73D1GA4ZNDB00,3WQ3B2KGECW1PY2ELSCF45P1YRK1BR,8,7
225,2,object_07,object_01,725.79999995232,4,1,165.09999990463,0.0,2,object_09,5,2722,0,0,0,forest_4,2,memory-2step-stake-s,715,2878552,0.0-19.0-0.1-0.225,A2JXPT39AWRES7,31KPKEKW5DTYWQJ2Z73D1GA4ZNDB00,3WQ3B2KGECW1PY2ELSCF45P1YRK1BR,4,3
226,1,object_08,object_03,1330.3000000715,1,2,304.5,0.1111111111111111,1,object_06,5,2727,0,1,3,desert_5,2,memory-2step-stake-s,716,2886220,0.0-19.0-0.1-0.226,A2JXPT39AWRES7,31KPKEKW5DTYWQJ2Z73D1GA4ZNDB00,3WQ3B2KGECW1PY2ELSCF45P1YRK1BR,2,1
227,4,object_05,object_04,1370.1000000238,8,1,256.90000009537,0.7777777777777778,2,object_09,5,2762,0,5,7,restaurant_8,2,memory-2step-stake-s,717,2894457,0.0-19.0-0.1-0.227,A2JXPT39AWRES7,31KPKEKW5DTYWQJ2Z73D1GA4ZNDB00,3WQ3B2KGECW1PY2ELSCF45P1YRK1BR,8,7
228,4,object_05,object_04,431.39999997616,8,1,238.90000009537,1.0,2,object_09,5,2807,0,3,9,restaurant_3,2,memory-2step-stake-s,718,2902852,0.0-19.0-0.1-0.228,A2JXPT39AWRES7,31KPKEKW5DTYWQJ2Z73D1GA4ZNDB00,3WQ3B2KGECW1PY2ELSCF45P1YRK1BR,8,7
229,4,object_05,object_04,1238.6999999285,7,2,220.60000002384,0.6666666666666666,1,object_06,1,2813,0,6,9,restaurant_8,2,memory-2step-stake-s,719,2910925,0.0-19.0-0.1-0.229,A2JXPT39AWRES7,31KPKEKW5DTYWQJ2Z73D1GA4ZNDB00,3WQ3B2KGECW1PY2ELSCF45P1YRK1BR,8,7
230,1,object_08,object_03,969.0,2,1,301.19999992847,0.8888888888888888,2,object_09,5,2853,0,9,8,desert_3,2,memory-2step-stake-s,720,2919322,0.0-19.0-0.1-0.230,A2JXPT39AWRES7,31KPKEKW5DTYWQJ2Z73D1GA4ZNDB00,3WQ3B2KGECW1PY2ELSCF45P1YRK1BR,2,1
231,1,object_08,object_03,992.60000002384,1,2,301.19999992847,0.7777777777777778,1,object_06,5,2888,0,7,6,desert_3,2,memory-2step-stake-s,721,2927597,0.0-19.0-0.1-0.231,A2JXPT39AWRES7,31KPKEKW5DTYWQJ2Z73D1GA4ZNDB00,3WQ3B2KGECW1PY2ELSCF45P1YRK1BR,2,1
232,2,object_07,object_01,761.69999992847,3,2,259.0,0.8888888888888888,1,object_06,5,2928,0,8,3,forest_4,2,memory-2step-stake-s,722,2935929,0.0-19.0-0.1-0.232,A2JXPT39AWRES7,31KPKEKW5DTYWQJ2Z73D1GA4ZNDB00,3WQ3B2KGECW1PY2ELSCF45P1YRK1BR,4,3
233,3,object_10,object_02,792.39999997616,6,1,395.10000002384,0.5555555555555556,2,object_09,1,2933,0,9,5,library_4,2,memory-2step-stake-s,723,2944105,0.0-19.0-0.1-0.233,A2JXPT39AWRES7,31KPKEKW5DTYWQJ2Z73D1GA4ZNDB00,3WQ3B2KGECW1PY2ELSCF45P1YRK1BR,6,5
234,3,object_02,object_10,1129.6000000238,5,1,243.39999997616,1.0,1,object_06,1,2942,0,9,4,library_7,2,memory-2step-stake-s,724,2952531,0.0-19.0-0.1-0.234,A2JXPT39AWRES7,31KPKEKW5DTYWQJ2Z73D1GA4ZNDB00,3WQ3B2KGECW1PY2ELSCF45P1YRK1BR,5,6
235,1,object_03,object_08,732.09999990463,2,2,293.59999990463,0.6666666666666666,2,object_09,5,2972,0,7,6,desert_8,2,memory-2step-stake-s,725,2960670,0.0-19.0-0.1-0.235,A2JXPT39AWRES7,31KPKEKW5DTYWQJ2Z73D1GA4ZNDB00,3WQ3B2KGECW1PY2ELSCF45P1YRK1BR,1,2
236,3,object_02,object_10,694.10000002384,5,1,414.39999997616,0.7777777777777778,1,object_06,5,3007,0,7,7,library_7,2,memory-2step-stake-s,726,2969059,0.0-19.0-0.1-0.236,A2JXPT39AWRES7,31KPKEKW5DTYWQJ2Z73D1GA4ZNDB00,3WQ3B2KGECW1PY2ELSCF45P1YRK1BR,5,6
237,1,object_03,object_08,1197.1999999285,1,1,349.89999997616,0.8888888888888888,1,object_06,1,3015,0,8,4,desert_4,2,memory-2step-stake-s,727,2977506,0.0-19.0-0.1-0.237,A2JXPT39AWRES7,31KPKEKW5DTYWQJ2Z73D1GA4ZNDB00,3WQ3B2KGECW1PY2ELSCF45P1YRK1BR,1,2
238,2,object_01,object_07,891.19999992847,3,1,222.30000007153,0.8888888888888888,1,object_06,5,3055,0,8,1,forest_8,2,memory-2step-stake-s,728,2985780,0.0-19.0-0.1-0.238,A2JXPT39AWRES7,31KPKEKW5DTYWQJ2Z73D1GA4ZNDB00,3WQ3B2KGECW1PY2ELSCF45P1YRK1BR,3,4
239,1,object_03,object_08,712.09999990463,1,1,237.70000004768,0.6666666666666666,1,object_06,1,3061,0,6,4,desert_8,2,memory-2step-stake-s,729,2993881,0.0-19.0-0.1-0.239,A2JXPT39AWRES7,31KPKEKW5DTYWQJ2Z73D1GA4ZNDB00,3WQ3B2KGECW1PY2ELSCF45P1YRK1BR,1,2
240,2,object_07,object_01,830.70000004768,3,2,566.60000002384,0.6666666666666666,1,object_06,1,3067,0,6,5,forest_8,2,memory-2step-stake-s,730,3002336,0.0-19.0-0.1-0.240,A2JXPT39AWRES7,31KPKEKW5DTYWQJ2Z73D1GA4ZNDB00,3WQ3B2KGECW1PY2ELSCF45P1YRK1BR,4,3
241,3,object_02,object_10,454.79999995232,5,1,725.5,0.7777777777777778,1,object_06,1,3074,0,7,7,library_3,2,memory-2step-stake-s,731,3011019,0.0-19.0-0.1-0.241,A2JXPT39AWRES7,31KPKEKW5DTYWQJ2Z73D1GA4ZNDB00,3WQ3B2KGECW1PY2ELSCF45P1YRK1BR,5,6
242,1,object_03,object_08,-1.0,-1,-1,-1.0,0.0,-,0,1,3074,0,7,8,desert_4,2,memory-2step-stake-s,732,3017556,0.0-19.0-0.1-0.242,A2JXPT39AWRES7,31KPKEKW5DTYWQJ2Z73D1GA4ZNDB00,3WQ3B2KGECW1PY2ELSCF45P1YRK1BR,1,2
243,1,object_08,object_03,991.69999992847,1,2,129.5,0.4444444444444444,1,object_06,5,3094,0,4,8,desert_5,2,memory-2step-stake-s,733,3025357,0.0-19.0-0.1-0.243,A2JXPT39AWRES7,31KPKEKW5DTYWQJ2Z73D1GA4ZNDB00,3WQ3B2KGECW1PY2ELSCF45P1YRK1BR,2,1
244,2,object_01,object_07,319.69999992847,3,1,76.700000047684,0.7777777777777778,1,object_06,1,3101,0,7,9,forest_4,2,memory-2step-stake-s,734,3033380,0.0-19.0-0.1-0.244,A2JXPT39AWRES7,31KPKEKW5DTYWQJ2Z73D1GA4ZNDB00,3WQ3B2KGECW1PY2ELSCF45P1YRK1BR,3,4
245,1,object_03,object_08,1504.2999999523,2,2,577.70000004768,1.0,2,object_09,5,3146,0,7,9,desert_4,2,memory-2step-stake-s,735,3042112,0.0-19.0-0.1-0.245,A2JXPT39AWRES7,31KPKEKW5DTYWQJ2Z73D1GA4ZNDB00,3WQ3B2KGECW1PY2ELSCF45P1YRK1BR,1,2
246,2,object_01,object_07,843.29999995232,3,1,291.89999997616,0.8888888888888888,1,object_06,5,3186,0,8,8,forest_6,2,memory-2step-stake-s,736,3050480,0.0-19.0-0.1-0.246,A2JXPT39AWRES7,31KPKEKW5DTYWQJ2Z73D1GA4ZNDB00,3WQ3B2KGECW1PY2ELSCF45P1YRK1BR,3,4
247,1,object_08,object_03,1005.5,1,2,336.70000004768,1.0,1,object_06,5,3231,0,9,6,desert_8,2,memory-2step-stake-s,737,3059008,0.0-19.0-0.1-0.247,A2JXPT39AWRES7,31KPKEKW5DTYWQJ2Z73D1GA4ZNDB00,3WQ3B2KGECW1PY2ELSCF45P1YRK1BR,2,1
248,2,object_07,object_01,713.29999995232,3,2,244.20000004768,0.7777777777777778,1,object_06,5,3266,0,7,9,forest_1,2,memory-2step-stake-s,738,3067203,0.0-19.0-0.1-0.248,A2JXPT39AWRES7,31KPKEKW5DTYWQJ2Z73D1GA4ZNDB00,3WQ3B2KGECW1PY2ELSCF45P1YRK1BR,4,3
249,4,object_04,object_05,882.0,8,2,224.19999992847,0.6666666666666666,2,object_09,1,3272,0,4,6,restaurant_8,2,memory-2step-stake-s,739,3075275,0.0-19.0-0.1-0.249,A2JXPT39AWRES7,31KPKEKW5DTYWQJ2Z73D1GA4ZNDB00,3WQ3B2KGECW1PY2ELSCF45P1YRK1BR,7,8
250,2,object_07,object_01,727.70000004768,3,2,469.89999997616,0.5555555555555556,1,object_06,5,3297,0,5,7,forest_1,2,memory-2step-stake-s,740,3083494,0.0-19.0-0.1-0.250,A2JXPT39AWRES7,31KPKEKW5DTYWQJ2Z73D1GA4ZNDB00,3WQ3B2KGECW1PY2ELSCF45P1YRK1BR,4,3
251,4,object_05,object_04,1185.0,8,1,307.39999997616,0.3333333333333333,2,object_09,1,3300,0,6,3,restaurant_2,2,memory-2step-stake-s,741,3091362,0.0-19.0-0.1-0.251,A2JXPT39AWRES7,31KPKEKW5DTYWQJ2Z73D1GA4ZNDB00,3WQ3B2KGECW1PY2ELSCF45P1YRK1BR,8,7
252,2,object_01,object_07,775.19999992847,3,1,227.0,0.5555555555555556,1,object_06,5,3325,0,5,2,forest_4,2,memory-2step-stake-s,742,3099324,0.0-19.0-0.1-0.252,A2JXPT39AWRES7,31KPKEKW5DTYWQJ2Z73D1GA4ZNDB00,3WQ3B2KGECW1PY2ELSCF45P1YRK1BR,3,4
253,4,object_04,object_05,1197.0,7,1,323.10000002384,0.2222222222222222,1,object_06,1,3327,0,2,4,restaurant_3,2,memory-2step-stake-s,743,3107116,0.0-19.0-0.1-0.253,A2JXPT39AWRES7,31KPKEKW5DTYWQJ2Z73D1GA4ZNDB00,3WQ3B2KGECW1PY2ELSCF45P1YRK1BR,7,8
254,3,object_02,object_10,1141.7000000477,5,1,434.20000004768,0.2222222222222222,1,object_06,1,3329,0,2,3,library_7,2,memory-2step-stake-s,744,3114995,0.0-19.0-0.1-0.254,A2JXPT39AWRES7,31KPKEKW5DTYWQJ2Z73D1GA4ZNDB00,3WQ3B2KGECW1PY2ELSCF45P1YRK1BR,5,6
255,4,object_05,object_04,594.80000007153,7,2,181.79999995232,0.3333333333333333,1,object_06,1,3332,0,3,5,restaurant_2,2,memory-2step-stake-s,745,3122725,0.0-19.0-0.1-0.255,A2JXPT39AWRES7,31KPKEKW5DTYWQJ2Z73D1GA4ZNDB00,3WQ3B2KGECW1PY2ELSCF45P1YRK1BR,8,7
