,state1,stim_left,stim_right,rt_1,choice1,response1,rt_2,points,state2,stim_state2,stake,score,practice,rews1,rews2,background,high_arm,trial_type,trial_index,time_elapsed,internal_node_id,subid,hitid,assignmentid,stim_left_num,stim_right_num
0,4,object_10,object_09,40.800000011921,8,2,-1.0,0.0,2,object_08,1,0,0,6,0,restaurant_5,2,memory-2step-stake-s,503,987057,0.0-19.0-0.0-0.0,A1IMO5XR05U7S5,32CXT5U15JJVAEXBU2XNZL8A76W8U1,3MRNMEIQW9M7U242SYL4JAMFZIYDLD,7,8
1,2,object_05,object_03,621.90000003576,4,1,-1.0,0.0,2,object_08,5,0,0,2,1,forest_3,2,memory-2step-stake-s,504,995578,0.0-19.0-0.0-0.1,A1IMO5XR05U7S5,32CXT5U15JJVAEXBU2XNZL8A76W8U1,3MRNMEIQW9M7U242SYL4JAMFZIYDLD,4,3
2,3,object_02,object_04,846.10000002384,5,1,-1.0,0.0,1,object_06,1,0,0,1,4,library_8,2,memory-2step-stake-s,505,1004094,0.0-19.0-0.0-0.2,A1IMO5XR05U7S5,32CXT5U15JJVAEXBU2XNZL8A76W8U1,3MRNMEIQW9M7U242SYL4JAMFZIYDLD,5,6
3,2,object_05,object_03,287.19999998808,3,2,-1.0,0.0,1,object_06,1,0,0,0,4,forest_1,2,memory-2step-stake-s,506,1012623,0.0-19.0-0.0-0.3,A1IMO5XR05U7S5,32CXT5U15JJVAEXBU2XNZL8A76W8U1,3MRNMEIQW9M7U242SYL4JAMFZIYDLD,4,3
4,3,object_04,object_02,196.69999998808,5,2,-1.0,0.0,1,object_06,1,0,0,1,3,library_8,2,memory-2step-stake-s,507,1021137,0.0-19.0-0.0-0.4,A1IMO5XR05U7S5,32CXT5U15JJVAEXBU2XNZL8A76W8U1,3MRNMEIQW9M7U242SYL4JAMFZIYDLD,6,5
5,2,object_03,object_05,925.09999996424,3,1,-1.0,0.0,1,object_06,5,0,0,5,4,forest_3,2,memory-2step-stake-s,508,1029649,0.0-19.0-0.0-0.5,A1IMO5XR05U7S5,32CXT5U15JJVAEXBU2XNZL8A76W8U1,3MRNMEIQW9M7U242SYL4JAMFZIYDLD,3,4
6,4,object_10,object_09,344.19999998808,8,2,-1.0,0.0,2,object_08,1,0,0,5,3,restaurant_5,2,memory-2step-stake-s,509,1038165,0.0-19.0-0.0-0.6,A1IMO5XR05U7S5,32CXT5U15JJVAEXBU2XNZL8A76W8U1,3MRNMEIQW9M7U242SYL4JAMFZIYDLD,7,8
7,3,object_04,object_02,305.29999995232,6,1,-1.0,0.0,2,object_08,1,0,0,5,6,library_2,2,memory-2step-stake-s,510,1046681,0.0-19.0-0.0-0.7,A1IMO5XR05U7S5,32CXT5U15JJVAEXBU2XNZL8A76W8U1,3MRNMEIQW9M7U242SYL4JAMFZIYDLD,6,5
8,1,object_01,object_07,-1.0,-1,-1,-1.0,0.0,-,0,5,0,0,4,7,desert_8,2,memory-2step-stake-s,511,1053190,0.0-19.0-0.0-0.8,A1IMO5XR05U7S5,32CXT5U15JJVAEXBU2XNZL8A76W8U1,3MRNMEIQW9M7U242SYL4JAMFZIYDLD,1,2
9,3,object_04,object_02,677.10000002384,5,2,-1.0,0.0,1,object_06,1,0,0,3,8,library_5,2,memory-2step-stake-s,512,1061705,0.0-19.0-0.0-0.9,A1IMO5XR05U7S5,32CXT5U15JJVAEXBU2XNZL8A76W8U1,3MRNMEIQW9M7U242SYL4JAMFZIYDLD,6,5
10,2,object_03,object_05,-1.0,-1,-1,-1.0,0.0,-,0,1,0,0,3,9,forest_7,2,memory-2step-stake-s,513,1068233,0.0-19.0-0.0-0.10,A1IMO5XR05U7S5,32CXT5U15JJVAEXBU2XNZL8A76W8U1,3MRNMEIQW9M7U242SYL4JAMFZIYDLD,3,4
11,4,object_10,object_09,-1.0,-1,-1,-1.0,0.0,-,0,1,0,0,1,6,restaurant_3,2,memory-2step-stake-s,514,1074765,0.0-19.0-0.0-0.11,A1IMO5XR05U7S5,32CXT5U15JJVAEXBU2XNZL8A76W8U1,3MRNMEIQW9M7U242SYL4JAMFZIYDLD,7,8
12,2,object_05,object_03,-1.0,-1,-1,-1.0,0.0,-,0,5,0,0,2,5,forest_8,2,memory-2step-stake-s,515,1081279,0.0-19.0-0.0-0.12,A1IMO5XR05U7S5,32CXT5U15JJVAEXBU2XNZL8A76W8U1,3MRNMEIQW9M7U242SYL4JAMFZIYDLD,4,3
13,2,object_05,object_03,647.0,3,2,-1.0,0.0,1,object_06,5,0,0,0,2,forest_7,2,memory-2step-stake-s,516,1089796,0.0-19.0-0.0-0.13,A1IMO5XR05U7S5,32CXT5U15JJVAEXBU2XNZL8A76W8U1,3MRNMEIQW9M7U242SYL4JAMFZIYDLD,4,3
14,1,object_07,object_01,964.70000004768,1,2,1124.3000000119,0.0,1,object_06,5,0,0,0,2,desert_7,2,memory-2step-stake-s,517,1098138,0.0-19.0-0.0-0.14,A1IMO5XR05U7S5,32CXT5U15JJVAEXBU2XNZL8A76W8U1,3MRNMEIQW9M7U242SYL4JAMFZIYDLD,2,1
15,3,object_02,object_04,124.5,6,2,429.09999996424,0.4444444444444444,2,object_08,1,4,0,3,4,library_8,2,memory-2step-stake-s,518,1106188,0.0-19.0-0.0-0.15,A1IMO5XR05U7S5,32CXT5U15JJVAEXBU2XNZL8A76W8U1,3MRNMEIQW9M7U242SYL4JAMFZIYDLD,5,6
16,2,object_03,object_05,636.5,3,1,299.0,0.2222222222222222,1,object_06,5,14,0,2,3,forest_7,2,memory-2step-stake-s,519,1113908,0.0-19.0-0.0-0.16,A1IMO5XR05U7S5,32CXT5U15JJVAEXBU2XNZL8A76W8U1,3MRNMEIQW9M7U242SYL4JAMFZIYDLD,3,4
17,1,object_07,object_01,244.39999997616,1,2,279.5,0.4444444444444444,1,object_06,5,34,0,4,5,desert_7,2,memory-2step-stake-s,520,1121806,0.0-19.0-0.0-0.17,A1IMO5XR05U7S5,32CXT5U15JJVAEXBU2XNZL8A76W8U1,3MRNMEIQW9M7U242SYL4JAMFZIYDLD,2,1
18,3,object_04,object_02,247.0,6,1,329.09999996424,0.6666666666666666,2,object_08,5,64,0,6,6,library_1,2,memory-2step-stake-s,521,1129959,0.0-19.0-0.0-0.18,A1IMO5XR05U7S5,32CXT5U15JJVAEXBU2XNZL8A76W8U1,3MRNMEIQW9M7U242SYL4JAMFZIYDLD,6,5
19,4,object_10,object_09,1349.5,7,1,923.30000001192,0.4444444444444444,1,object_06,1,68,0,4,7,restaurant_8,2,memory-2step-stake-s,522,1138506,0.0-19.0-0.0-0.19,A1IMO5XR05U7S5,32CXT5U15JJVAEXBU2XNZL8A76W8U1,3MRNMEIQW9M7U242SYL4JAMFZIYDLD,7,8
20,4,object_09,object_10,49.399999976158,8,1,176.39999997616,1.0,2,object_08,1,77,0,5,9,restaurant_5,2,memory-2step-stake-s,523,1146819,0.0-19.0-0.0-0.20,A1IMO5XR05U7S5,32CXT5U15JJVAEXBU2XNZL8A76W8U1,3MRNMEIQW9M7U242SYL4JAMFZIYDLD,8,7
21,4,object_10,object_09,288.0,8,2,-1.0,0.0,2,object_08,1,77,0,5,4,restaurant_4,2,memory-2step-stake-s,524,1155333,0.0-19.0-0.0-0.21,A1IMO5XR05U7S5,32CXT5U15JJVAEXBU2XNZL8A76W8U1,3MRNMEIQW9M7U242SYL4JAMFZIYDLD,7,8
22,1,object_07,object_01,317.10000002384,2,1,83.700000047684,0.3333333333333333,2,object_08,5,92,0,4,3,desert_6,2,memory-2step-stake-s,525,1162934,0.0-19.0-0.0-0.22,A1IMO5XR05U7S5,32CXT5U15JJVAEXBU2XNZL8A76W8U1,3MRNMEIQW9M7U242SYL4JAMFZIYDLD,2,1
23,1,object_01,object_07,479.10000002384,2,2,78.900000035763,0.2222222222222222,2,object_08,5,102,0,6,2,desert_8,2,memory-2step-stake-s,526,1170432,0.0-19.0-0.0-0.23,A1IMO5XR05U7S5,32CXT5U15JJVAEXBU2XNZL8A76W8U1,3MRNMEIQW9M7U242SYL4JAMFZIYDLD,1,2
24,1,object_07,object_01,362.5,1,2,45.800000011921,0.4444444444444444,1,object_06,5,122,0,4,1,desert_8,2,memory-2step-stake-s,527,1178097,0.0-19.0-0.0-0.24,A1IMO5XR05U7S5,32CXT5U15JJVAEXBU2XNZL8A76W8U1,3MRNMEIQW9M7U242SYL4JAMFZIYDLD,2,1
25,2,object_05,object_03,291.10000002384,4,1,371.89999997616,0.0,2,object_08,5,122,0,2,0,forest_7,2,memory-2step-stake-s,528,1185691,0.0-19.0-0.0-0.25,A1IMO5XR05U7S5,32CXT5U15JJVAEXBU2XNZL8A76W8U1,3MRNMEIQW9M7U242SYL4JAMFZIYDLD,4,3
26,2,object_03,object_05,403.59999996424,4,2,1110.2999999523,0.3333333333333333,2,object_08,5,137,0,4,3,forest_1,2,memory-2step-stake-s,529,1194332,0.0-19.0-0.0-0.26,A1IMO5XR05U7S5,32CXT5U15JJVAEXBU2XNZL8A76W8U1,3MRNMEIQW9M7U242SYL4JAMFZIYDLD,3,4
27,2,object_03,object_05,714.80000001192,4,2,436.90000003576,0.3333333333333333,2,object_08,5,152,0,8,3,forest_7,2,memory-2step-stake-s,530,1202285,0.0-19.0-0.0-0.27,A1IMO5XR05U7S5,32CXT5U15JJVAEXBU2XNZL8A76W8U1,3MRNMEIQW9M7U242SYL4JAMFZIYDLD,3,4
28,1,object_07,object_01,922.29999995232,1,2,225.0,0.7777777777777778,1,object_06,1,159,0,7,1,desert_6,2,memory-2step-stake-s,531,1210437,0.0-19.0-0.0-0.28,A1IMO5XR05U7S5,32CXT5U15JJVAEXBU2XNZL8A76W8U1,3MRNMEIQW9M7U242SYL4JAMFZIYDLD,2,1
29,4,object_09,object_10,407.20000004768,8,1,395.69999998808,0.5555555555555556,2,object_08,1,164,0,8,5,restaurant_3,2,memory-2step-stake-s,532,1218561,0.0-19.0-0.0-0.29,A1IMO5XR05U7S5,32CXT5U15JJVAEXBU2XNZL8A76W8U1,3MRNMEIQW9M7U242SYL4JAMFZIYDLD,8,7
30,1,object_07,object_01,1086.8000000119,1,2,314.60000002384,0.7777777777777778,1,object_06,5,199,0,7,7,desert_6,2,memory-2step-stake-s,533,1226821,0.0-19.0-0.0-0.30,A1IMO5XR05U7S5,32CXT5U15JJVAEXBU2XNZL8A76W8U1,3MRNMEIQW9M7U242SYL4JAMFZIYDLD,2,1
31,2,object_05,object_03,754.60000002384,4,1,18.400000035763,0.5555555555555556,2,object_08,5,224,0,8,5,forest_8,2,memory-2step-stake-s,534,1234561,0.0-19.0-0.0-0.31,A1IMO5XR05U7S5,32CXT5U15JJVAEXBU2XNZL8A76W8U1,3MRNMEIQW9M7U242SYL4JAMFZIYDLD,4,3
32,2,object_03,object_05,847.0,4,2,782.10000002384,0.5555555555555556,2,object_08,5,249,0,8,5,forest_7,2,memory-2step-stake-s,535,1243065,0.0-19.0-0.0-0.32,A1IMO5XR05U7S5,32CXT5U15JJVAEXBU2XNZL8A76W8U1,3MRNMEIQW9M7U242SYL4JAMFZIYDLD,3,4
33,4,object_09,object_10,1318.8000000119,8,1,380.10000002384,0.8888888888888888,2,object_08,1,257,0,7,8,restaurant_5,2,memory-2step-stake-s,536,1251467,0.0-19.0-0.0-0.33,A1IMO5XR05U7S5,32CXT5U15JJVAEXBU2XNZL8A76W8U1,3MRNMEIQW9M7U242SYL4JAMFZIYDLD,8,7
34,4,object_09,object_10,540.09999996424,8,1,332.60000002384,1.0,2,object_08,5,302,0,6,9,restaurant_8,2,memory-2step-stake-s,537,1259940,0.0-19.0-0.0-0.34,A1IMO5XR05U7S5,32CXT5U15JJVAEXBU2XNZL8A76W8U1,3MRNMEIQW9M7U242SYL4JAMFZIYDLD,8,7
35,1,object_07,object_01,504.5,1,2,11.399999976158,0.4444444444444444,1,object_06,5,322,0,4,6,desert_8,2,memory-2step-stake-s,538,1267573,0.0-19.0-0.0-0.35,A1IMO5XR05U7S5,32CXT5U15JJVAEXBU2XNZL8A76W8U1,3MRNMEIQW9M7U242SYL4JAMFZIYDLD,2,1
36,4,object_10,object_09,945.70000004768,8,2,326.19999998808,1.0,2,object_08,5,367,0,4,9,restaurant_4,2,memory-2step-stake-s,539,1276025,0.0-19.0-0.0-0.36,A1IMO5XR05U7S5,32CXT5U15JJVAEXBU2XNZL8A76W8U1,3MRNMEIQW9M7U242SYL4JAMFZIYDLD,7,8
37,3,object_04,object_02,1182.7999999523,5,2,588.89999997616,0.8888888888888888,1,object_06,1,375,0,8,4,library_2,2,memory-2step-stake-s,540,1284634,0.0-19.0-0.0-0.37,A1IMO5XR05U7S5,32CXT5U15JJVAEXBU2XNZL8A76W8U1,3MRNMEIQW9M7U242SYL4JAMFZIYDLD,6,5
38,4,object_09,object_10,421.60000002384,8,1,447.60000002384,0.4444444444444444,2,object_08,1,379,0,9,4,restaurant_3,2,memory-2step-stake-s,541,1292702,0.0-19.0-0.0-0.38,A1IMO5XR05U7S5,32CXT5U15JJVAEXBU2XNZL8A76W8U1,3MRNMEIQW9M7U242SYL4JAMFZIYDLD,8,7
39,3,object_02,object_04,1437.3000000119,6,2,176.40000003576,0.3333333333333333,2,object_08,1,382,0,7,3,library_2,2,memory-2step-stake-s,542,1300398,0.0-19.0-0.0-0.39,A1IMO5XR05U7S5,32CXT5U15JJVAEXBU2XNZL8A76W8U1,3MRNMEIQW9M7U242SYL4JAMFZIYDLD,5,6
40,4,object_09,object_10,503.60000002384,8,1,569.70000004768,0.1111111111111111,2,object_08,1,383,0,7,1,restaurant_5,2,memory-2step-stake-s,543,1308284,0.0-19.0-0.0-0.40,A1IMO5XR05U7S5,32CXT5U15JJVAEXBU2XNZL8A76W8U1,3MRNMEIQW9M7U242SYL4JAMFZIYDLD,8,7
41,1,object_07,object_01,493.5,1,2,372.30000001192,0.8888888888888888,1,object_06,5,423,0,8,2,desert_4,2,memory-2step-stake-s,544,1316679,0.0-19.0-0.0-0.41,A1IMO5XR05U7S5,32CXT5U15JJVAEXBU2XNZL8A76W8U1,3MRNMEIQW9M7U242SYL4JAMFZIYDLD,2,1
42,4,object_10,object_09,595.59999996424,8,2,480.30000001192,0.0,2,object_08,5,423,0,8,0,restaurant_8,2,memory-2step-stake-s,545,1324371,0.0-19.0-0.0-0.42,A1IMO5XR05U7S5,32CXT5U15JJVAEXBU2XNZL8A76W8U1,3MRNMEIQW9M7U242SYL4JAMFZIYDLD,7,8
43,1,object_01,object_07,513.0,1,1,522.5,0.5555555555555556,1,object_06,5,448,0,5,0,desert_6,2,memory-2step-stake-s,546,1332625,0.0-19.0-0.0-0.43,A1IMO5XR05U7S5,32CXT5U15JJVAEXBU2XNZL8A76W8U1,3MRNMEIQW9M7U242SYL4JAMFZIYDLD,1,2
44,2,object_03,object_05,813.20000004768,4,2,677.80000001192,0.0,2,object_08,5,448,0,3,0,forest_7,2,memory-2step-stake-s,547,1340516,0.0-19.0-0.0-0.44,A1IMO5XR05U7S5,32CXT5U15JJVAEXBU2XNZL8A76W8U1,3MRNMEIQW9M7U242SYL4JAMFZIYDLD,3,4
45,1,object_07,object_01,990.29999995232,1,2,609.10000002384,0.4444444444444444,1,object_06,5,468,0,4,1,desert_4,2,memory-2step-stake-s,548,1348758,0.0-19.0-0.0-0.45,A1IMO5XR05U7S5,32CXT5U15JJVAEXBU2XNZL8A76W8U1,3MRNMEIQW9M7U242SYL4JAMFZIYDLD,2,1
46,3,object_02,object_04,1355.4000000358,5,1,340.30000001192,0.4444444444444444,1,object_06,1,472,0,4,0,library_2,2,memory-2step-stake-s,549,1356716,0.0-19.0-0.0-0.46,A1IMO5XR05U7S5,32CXT5U15JJVAEXBU2XNZL8A76W8U1,3MRNMEIQW9M7U242SYL4JAMFZIYDLD,5,6
47,4,object_09,object_10,482.59999996424,8,1,795.0,0.3333333333333333,2,object_08,1,475,0,4,3,restaurant_4,2,memory-2step-stake-s,550,1365040,0.0-19.0-0.0-0.47,A1IMO5XR05U7S5,32CXT5U15JJVAEXBU2XNZL8A76W8U1,3MRNMEIQW9M7U242SYL4JAMFZIYDLD,8,7
48,2,object_03,object_05,954.69999998808,4,2,317.39999997616,0.1111111111111111,2,object_08,5,480,0,5,1,forest_3,2,memory-2step-stake-s,551,1372677,0.0-19.0-0.0-0.48,A1IMO5XR05U7S5,32CXT5U15JJVAEXBU2XNZL8A76W8U1,3MRNMEIQW9M7U242SYL4JAMFZIYDLD,3,4
49,2,object_05,object_03,-1.0,-1,-1,-1.0,0.0,-,0,1,480,0,5,1,forest_1,2,memory-2step-stake-s,552,1379187,0.0-19.0-0.0-0.49,A1IMO5XR05U7S5,32CXT5U15JJVAEXBU2XNZL8A76W8U1,3MRNMEIQW9M7U242SYL4JAMFZIYDLD,4,3
50,1,object_01,object_07,1151.2999999523,1,1,483.30000001192,0.3333333333333333,1,object_06,5,495,0,3,1,desert_7,2,memory-2step-stake-s,553,1387197,0.0-19.0-0.0-0.50,A1IMO5XR05U7S5,32CXT5U15JJVAEXBU2XNZL8A76W8U1,3MRNMEIQW9M7U242SYL4JAMFZIYDLD,1,2
51,4,object_10,object_09,612.0,8,2,1347.4000000358,0.3333333333333333,2,object_08,1,498,0,3,3,restaurant_8,2,memory-2step-stake-s,554,1396062,0.0-19.0-0.0-0.51,A1IMO5XR05U7S5,32CXT5U15JJVAEXBU2XNZL8A76W8U1,3MRNMEIQW9M7U242SYL4JAMFZIYDLD,7,8
52,4,object_09,object_10,1009.8000000119,8,1,855.39999997616,0.6666666666666666,2,object_08,1,504,0,4,6,restaurant_4,2,memory-2step-stake-s,555,1404738,0.0-19.0-0.0-0.52,A1IMO5XR05U7S5,32CXT5U15JJVAEXBU2XNZL8A76W8U1,3MRNMEIQW9M7U242SYL4JAMFZIYDLD,8,7
53,1,object_07,object_01,488.5,1,2,885.19999998808,0.4444444444444444,1,object_06,5,524,0,4,8,desert_6,2,memory-2step-stake-s,556,1413244,0.0-19.0-0.0-0.53,A1IMO5XR05U7S5,32CXT5U15JJVAEXBU2XNZL8A76W8U1,3MRNMEIQW9M7U242SYL4JAMFZIYDLD,2,1
54,3,object_02,object_04,1061.0,6,2,690.39999997616,0.8888888888888888,2,object_08,1,532,0,7,8,library_5,2,memory-2step-stake-s,557,1421958,0.0-19.0-0.0-0.54,A1IMO5XR05U7S5,32CXT5U15JJVAEXBU2XNZL8A76W8U1,3MRNMEIQW9M7U242SYL4JAMFZIYDLD,5,6
55,3,object_02,object_04,796.20000004768,6,2,70.699999988079,0.5555555555555556,2,object_08,1,537,0,4,5,library_2,2,memory-2step-stake-s,558,1429766,0.0-19.0-0.0-0.55,A1IMO5XR05U7S5,32CXT5U15JJVAEXBU2XNZL8A76W8U1,3MRNMEIQW9M7U242SYL4JAMFZIYDLD,5,6
56,1,object_07,object_01,843.39999997616,1,2,285.30000001192,0.2222222222222222,1,object_06,5,547,0,2,4,desert_6,2,memory-2step-stake-s,559,1437472,0.0-19.0-0.0-0.56,A1IMO5XR05U7S5,32CXT5U15JJVAEXBU2XNZL8A76W8U1,3MRNMEIQW9M7U242SYL4JAMFZIYDLD,2,1
57,1,object_01,object_07,1229.6000000238,1,1,393.5,0.0,1,object_06,1,547,0,0,1,desert_8,2,memory-2step-stake-s,560,1445082,0.0-19.0-0.0-0.57,A1IMO5XR05U7S5,32CXT5U15JJVAEXBU2XNZL8A76W8U1,3MRNMEIQW9M7U242SYL4JAMFZIYDLD,1,2
58,3,object_04,object_02,1344.1000000238,5,2,763.10000002384,0.5555555555555556,1,object_06,1,552,0,5,3,library_1,2,memory-2step-stake-s,561,1453579,0.0-19.0-0.0-0.58,A1IMO5XR05U7S5,32CXT5U15JJVAEXBU2XNZL8A76W8U1,3MRNMEIQW9M7U242SYL4JAMFZIYDLD,6,5
59,1,object_07,object_01,540.19999998808,1,2,687.79999995232,0.5555555555555556,1,object_06,5,577,0,5,4,desert_8,2,memory-2step-stake-s,562,1461990,0.0-19.0-0.0-0.59,A1IMO5XR05U7S5,32CXT5U15JJVAEXBU2XNZL8A76W8U1,3MRNMEIQW9M7U242SYL4JAMFZIYDLD,2,1
60,1,object_01,object_07,824.30000001192,1,1,516.80000001192,0.0,1,object_06,5,577,0,0,7,desert_6,2,memory-2step-stake-s,563,1469720,0.0-19.0-0.0-0.60,A1IMO5XR05U7S5,32CXT5U15JJVAEXBU2XNZL8A76W8U1,3MRNMEIQW9M7U242SYL4JAMFZIYDLD,1,2
61,2,object_03,object_05,926.80000001192,4,2,48.800000011921,0.8888888888888888,2,object_08,1,585,0,1,8,forest_1,2,memory-2step-stake-s,564,1477811,0.0-19.0-0.0-0.61,A1IMO5XR05U7S5,32CXT5U15JJVAEXBU2XNZL8A76W8U1,3MRNMEIQW9M7U242SYL4JAMFZIYDLD,3,4
62,3,object_02,object_04,982.89999997616,6,2,141.10000002384,0.8888888888888888,2,object_08,1,593,0,1,8,library_2,2,memory-2step-stake-s,565,1485983,0.0-19.0-0.0-0.62,A1IMO5XR05U7S5,32CXT5U15JJVAEXBU2XNZL8A76W8U1,3MRNMEIQW9M7U242SYL4JAMFZIYDLD,5,6
63,4,object_10,object_09,-1.0,-1,-1,-1.0,0.0,-,0,1,593,0,1,6,restaurant_8,2,memory-2step-stake-s,566,1492494,0.0-19.0-0.0-0.63,A1IMO5XR05U7S5,32CXT5U15JJVAEXBU2XNZL8A76W8U1,3MRNMEIQW9M7U242SYL4JAMFZIYDLD,7,8
64,4,object_09,object_10,609.5,8,1,821.19999998808,0.0,2,object_08,1,593,0,3,0,restaurant_5,2,memory-2step-stake-s,567,1500527,0.0-19.0-0.0-0.64,A1IMO5XR05U7S5,32CXT5U15JJVAEXBU2XNZL8A76W8U1,3MRNMEIQW9M7U242SYL4JAMFZIYDLD,8,7
65,4,object_09,object_10,1414.1999999881,8,1,-1.0,0.0,2,object_08,5,593,0,3,3,restaurant_8,2,memory-2step-stake-s,568,1509039,0.0-19.0-0.0-0.65,A1IMO5XR05U7S5,32CXT5U15JJVAEXBU2XNZL8A76W8U1,3MRNMEIQW9M7U242SYL4JAMFZIYDLD,8,7
66,4,object_09,object_10,751.20000004768,8,1,990.69999998808,0.3333333333333333,2,object_08,1,596,0,3,3,restaurant_8,2,memory-2step-stake-s,569,1517546,0.0-19.0-0.0-0.66,A1IMO5XR05U7S5,32CXT5U15JJVAEXBU2XNZL8A76W8U1,3MRNMEIQW9M7U242SYL4JAMFZIYDLD,8,7
67,4,object_10,object_09,504.69999998808,8,2,950.60000002384,0.4444444444444444,2,object_08,5,616,0,1,4,restaurant_3,2,memory-2step-stake-s,570,1526114,0.0-19.0-0.0-0.67,A1IMO5XR05U7S5,32CXT5U15JJVAEXBU2XNZL8A76W8U1,3MRNMEIQW9M7U242SYL4JAMFZIYDLD,7,8
68,2,object_05,object_03,889.80000001192,4,1,-1.0,0.0,2,object_08,5,616,0,1,4,forest_3,2,memory-2step-stake-s,571,1534631,0.0-19.0-0.0-0.68,A1IMO5XR05U7S5,32CXT5U15JJVAEXBU2XNZL8A76W8U1,3MRNMEIQW9M7U242SYL4JAMFZIYDLD,4,3
69,4,object_10,object_09,406.39999997616,8,2,510.80000001192,0.6666666666666666,2,object_08,1,622,0,5,6,restaurant_5,2,memory-2step-stake-s,572,1542969,0.0-19.0-0.0-0.69,A1IMO5XR05U7S5,32CXT5U15JJVAEXBU2XNZL8A76W8U1,3MRNMEIQW9M7U242SYL4JAMFZIYDLD,7,8
70,4,object_09,object_10,406.80000001192,8,1,657.30000001192,0.6666666666666666,2,object_08,1,628,0,6,6,restaurant_4,2,memory-2step-stake-s,573,1551446,0.0-19.0-0.0-0.70,A1IMO5XR05U7S5,32CXT5U15JJVAEXBU2XNZL8A76W8U1,3MRNMEIQW9M7U242SYL4JAMFZIYDLD,8,7
71,4,object_09,object_10,497.80000001192,8,1,-1.0,0.0,2,object_08,1,628,0,8,7,restaurant_4,2,memory-2step-stake-s,574,1559964,0.0-19.0-0.0-0.71,A1IMO5XR05U7S5,32CXT5U15JJVAEXBU2XNZL8A76W8U1,3MRNMEIQW9M7U242SYL4JAMFZIYDLD,8,7
72,3,object_02,object_04,1360.5,6,2,843.69999998808,0.8888888888888888,2,object_08,1,636,0,9,8,library_1,2,memory-2step-stake-s,575,1568824,0.0-19.0-0.0-0.72,A1IMO5XR05U7S5,32CXT5U15JJVAEXBU2XNZL8A76W8U1,3MRNMEIQW9M7U242SYL4JAMFZIYDLD,5,6
73,2,object_05,object_03,887.40000003576,4,1,460.10000002384,0.8888888888888888,2,object_08,5,676,0,7,8,forest_7,2,memory-2step-stake-s,576,1577310,0.0-19.0-0.0-0.73,A1IMO5XR05U7S5,32CXT5U15JJVAEXBU2XNZL8A76W8U1,3MRNMEIQW9M7U242SYL4JAMFZIYDLD,4,3
74,2,object_03,object_05,1148.8999999762,4,2,1146.9000000358,1.0,2,object_08,5,721,0,7,9,forest_1,2,memory-2step-stake-s,577,1586580,0.0-19.0-0.0-0.74,A1IMO5XR05U7S5,32CXT5U15JJVAEXBU2XNZL8A76W8U1,3MRNMEIQW9M7U242SYL4JAMFZIYDLD,3,4
75,3,object_02,object_04,-1.0,-1,-1,-1.0,0.0,-,0,1,721,0,9,7,library_5,2,memory-2step-stake-s,578,1593096,0.0-19.0-0.0-0.75,A1IMO5XR05U7S5,32CXT5U15JJVAEXBU2XNZL8A76W8U1,3MRNMEIQW9M7U242SYL4JAMFZIYDLD,5,6
76,2,object_03,object_05,924.30000001192,4,2,1227.3000000119,0.5555555555555556,2,object_08,5,746,0,8,5,forest_8,2,memory-2step-stake-s,579,1602057,0.0-19.0-0.0-0.76,A1IMO5XR05U7S5,32CXT5U15JJVAEXBU2XNZL8A76W8U1,3MRNMEIQW9M7U242SYL4JAMFZIYDLD,3,4
77,2,object_03,object_05,552.09999996424,4,2,766.0,0.6666666666666666,2,object_08,5,776,0,8,6,forest_3,2,memory-2step-stake-s,580,1610642,0.0-19.0-0.0-0.77,A1IMO5XR05U7S5,32CXT5U15JJVAEXBU2XNZL8A76W8U1,3MRNMEIQW9M7U242SYL4JAMFZIYDLD,3,4
78,3,object_02,object_04,1321.8999999762,5,1,474.30000001192,0.8888888888888888,1,object_06,1,784,0,8,6,library_5,2,memory-2step-stake-s,581,1619151,0.0-19.0-0.0-0.78,A1IMO5XR05U7S5,32CXT5U15JJVAEXBU2XNZL8A76W8U1,3MRNMEIQW9M7U242SYL4JAMFZIYDLD,5,6
79,2,object_03,object_05,483.19999998808,4,2,479.10000002384,0.7777777777777778,2,object_08,5,819,0,8,7,forest_8,2,memory-2step-stake-s,582,1627554,0.0-19.0-0.0-0.79,A1IMO5XR05U7S5,32CXT5U15JJVAEXBU2XNZL8A76W8U1,3MRNMEIQW9M7U242SYL4JAMFZIYDLD,3,4
80,4,object_09,object_10,772.39999997616,8,1,502.80000001192,0.7777777777777778,2,object_08,1,826,0,6,7,restaurant_4,2,memory-2step-stake-s,583,1635982,0.0-19.0-0.0-0.80,A1IMO5XR05U7S5,32CXT5U15JJVAEXBU2XNZL8A76W8U1,3MRNMEIQW9M7U242SYL4JAMFZIYDLD,8,7
81,2,object_03,object_05,486.0,4,2,-1.0,0.0,2,object_08,5,826,0,7,7,forest_8,2,memory-2step-stake-s,584,1644509,0.0-19.0-0.0-0.81,A1IMO5XR05U7S5,32CXT5U15JJVAEXBU2XNZL8A76W8U1,3MRNMEIQW9M7U242SYL4JAMFZIYDLD,3,4
82,4,object_10,object_09,689.0,8,2,647.60000002384,0.7777777777777778,2,object_08,1,833,0,7,7,restaurant_3,2,memory-2step-stake-s,585,1653079,0.0-19.0-0.0-0.82,A1IMO5XR05U7S5,32CXT5U15JJVAEXBU2XNZL8A76W8U1,3MRNMEIQW9M7U242SYL4JAMFZIYDLD,7,8
83,1,object_01,object_07,717.30000001192,1,1,-1.0,0.0,1,object_06,5,833,0,6,5,desert_4,2,memory-2step-stake-s,586,1661594,0.0-19.0-0.0-0.83,A1IMO5XR05U7S5,32CXT5U15JJVAEXBU2XNZL8A76W8U1,3MRNMEIQW9M7U242SYL4JAMFZIYDLD,1,2
84,4,object_10,object_09,742.60000002384,8,2,1344.2999999523,1.0,2,object_08,1,842,0,5,9,restaurant_3,2,memory-2step-stake-s,587,1671063,0.0-19.0-0.0-0.84,A1IMO5XR05U7S5,32CXT5U15JJVAEXBU2XNZL8A76W8U1,3MRNMEIQW9M7U242SYL4JAMFZIYDLD,7,8
85,2,object_05,object_03,685.40000003576,4,1,798.5,0.8888888888888888,2,object_08,5,882,0,8,8,forest_1,2,memory-2step-stake-s,588,1679889,0.0-19.0-0.0-0.85,A1IMO5XR05U7S5,32CXT5U15JJVAEXBU2XNZL8A76W8U1,3MRNMEIQW9M7U242SYL4JAMFZIYDLD,4,3
86,1,object_07,object_01,604.19999998808,1,2,1197.6999999881,0.8888888888888888,1,object_06,5,922,0,8,7,desert_4,2,memory-2step-stake-s,589,1689113,0.0-19.0-0.0-0.86,A1IMO5XR05U7S5,32CXT5U15JJVAEXBU2XNZL8A76W8U1,3MRNMEIQW9M7U242SYL4JAMFZIYDLD,2,1
87,1,object_01,object_07,745.10000002384,1,1,1294.3999999762,0.8888888888888888,1,object_06,5,962,0,8,6,desert_7,2,memory-2step-stake-s,590,1698437,0.0-19.0-0.0-0.87,A1IMO5XR05U7S5,32CXT5U15JJVAEXBU2XNZL8A76W8U1,3MRNMEIQW9M7U242SYL4JAMFZIYDLD,1,2
88,3,object_02,object_04,766.79999995232,5,1,598.10000002384,0.7777777777777778,1,object_06,1,969,0,7,7,library_2,2,memory-2step-stake-s,591,1706965,0.0-19.0-0.0-0.88,A1IMO5XR05U7S5,32CXT5U15JJVAEXBU2XNZL8A76W8U1,3MRNMEIQW9M7U242SYL4JAMFZIYDLD,5,6
89,3,object_04,object_02,655.20000004768,5,2,317.39999997616,0.5555555555555556,1,object_06,1,974,0,5,8,library_1,2,memory-2step-stake-s,592,1715019,0.0-19.0-0.0-0.89,A1IMO5XR05U7S5,32CXT5U15JJVAEXBU2XNZL8A76W8U1,3MRNMEIQW9M7U242SYL4JAMFZIYDLD,6,5
90,2,object_03,object_05,700.80000001192,4,2,1261.5,0.7777777777777778,2,object_08,5,1009,0,3,7,forest_1,2,memory-2step-stake-s,593,1724204,0.0-19.0-0.0-0.90,A1IMO5XR05U7S5,32CXT5U15JJVAEXBU2XNZL8A76W8U1,3MRNMEIQW9M7U242SYL4JAMFZIYDLD,3,4
91,3,object_02,object_04,436.69999998808,5,1,53.400000035763,0.1111111111111111,1,object_06,5,1014,0,1,6,library_8,2,memory-2step-stake-s,594,1731571,0.0-19.0-0.0-0.91,A1IMO5XR05U7S5,32CXT5U15JJVAEXBU2XNZL8A76W8U1,3MRNMEIQW9M7U242SYL4JAMFZIYDLD,5,6
92,4,object_09,object_10,762.19999998808,8,1,1209.9000000358,0.5555555555555556,2,object_08,1,1019,0,5,5,restaurant_3,2,memory-2step-stake-s,595,1740502,0.0-19.0-0.0-0.92,A1IMO5XR05U7S5,32CXT5U15JJVAEXBU2XNZL8A76W8U1,3MRNMEIQW9M7U242SYL4JAMFZIYDLD,8,7
93,2,object_03,object_05,612.20000004768,4,2,223.69999998808,0.1111111111111111,2,object_08,5,1024,0,4,1,forest_3,2,memory-2step-stake-s,596,1748043,0.0-19.0-0.0-0.93,A1IMO5XR05U7S5,32CXT5U15JJVAEXBU2XNZL8A76W8U1,3MRNMEIQW9M7U242SYL4JAMFZIYDLD,3,4
94,1,object_01,object_07,716.40000003576,1,1,236.5,0.4444444444444444,1,object_06,5,1044,0,4,0,desert_8,2,memory-2step-stake-s,597,1755893,0.0-19.0-0.0-0.94,A1IMO5XR05U7S5,32CXT5U15JJVAEXBU2XNZL8A76W8U1,3MRNMEIQW9M7U242SYL4JAMFZIYDLD,1,2
95,3,object_02,object_04,503.80000001192,5,1,160.80000001192,0.7777777777777778,1,object_06,1,1051,0,7,0,library_8,2,memory-2step-stake-s,598,1763975,0.0-19.0-0.0-0.95,A1IMO5XR05U7S5,32CXT5U15JJVAEXBU2XNZL8A76W8U1,3MRNMEIQW9M7U242SYL4JAMFZIYDLD,5,6
96,3,object_04,object_02,626.30000001192,5,2,934.60000002384,0.7777777777777778,1,object_06,1,1058,0,7,1,library_5,2,memory-2step-stake-s,599,1772828,0.0-19.0-0.0-0.96,A1IMO5XR05U7S5,32CXT5U15JJVAEXBU2XNZL8A76W8U1,3MRNMEIQW9M7U242SYL4JAMFZIYDLD,6,5
97,1,object_07,object_01,638.39999997616,1,2,-1.0,0.0,1,object_06,5,1058,0,5,0,desert_8,2,memory-2step-stake-s,600,1781340,0.0-19.0-0.0-0.97,A1IMO5XR05U7S5,32CXT5U15JJVAEXBU2XNZL8A76W8U1,3MRNMEIQW9M7U242SYL4JAMFZIYDLD,2,1
98,1,object_01,object_07,670.19999998808,1,1,-1.0,0.0,1,object_06,5,1058,0,6,0,desert_4,2,memory-2step-stake-s,601,1789866,0.0-19.0-0.0-0.98,A1IMO5XR05U7S5,32CXT5U15JJVAEXBU2XNZL8A76W8U1,3MRNMEIQW9M7U242SYL4JAMFZIYDLD,1,2
99,3,object_04,object_02,743.5,5,2,431.80000001192,0.6666666666666666,1,object_06,5,1088,0,6,2,library_5,2,memory-2step-stake-s,602,1798127,0.0-19.0-0.0-0.99,A1IMO5XR05U7S5,32CXT5U15JJVAEXBU2XNZL8A76W8U1,3MRNMEIQW9M7U242SYL4JAMFZIYDLD,6,5
100,4,object_10,object_09,1370.0,8,2,376.39999997616,0.2222222222222222,2,object_08,1,1090,0,6,2,restaurant_8,2,memory-2step-stake-s,603,1805927,0.0-19.0-0.0-0.100,A1IMO5XR05U7S5,32CXT5U15JJVAEXBU2XNZL8A76W8U1,3MRNMEIQW9M7U242SYL4JAMFZIYDLD,7,8
101,4,object_09,object_10,1139.0,8,1,477.59999996424,0.2222222222222222,2,object_08,1,1092,0,4,2,restaurant_3,2,memory-2step-stake-s,604,1813819,0.0-19.0-0.0-0.101,A1IMO5XR05U7S5,32CXT5U15JJVAEXBU2XNZL8A76W8U1,3MRNMEIQW9M7U242SYL4JAMFZIYDLD,8,7
102,2,object_03,object_05,629.59999996424,4,2,469.0,0.1111111111111111,2,object_08,5,1097,0,4,1,forest_7,2,memory-2step-stake-s,605,1821606,0.0-19.0-0.0-0.102,A1IMO5XR05U7S5,32CXT5U15JJVAEXBU2XNZL8A76W8U1,3MRNMEIQW9M7U242SYL4JAMFZIYDLD,3,4
103,3,object_04,object_02,1174.1000000238,6,1,342.09999996424,0.3333333333333333,2,object_08,1,1100,0,3,3,library_5,2,memory-2step-stake-s,606,1829477,0.0-19.0-0.0-0.103,A1IMO5XR05U7S5,32CXT5U15JJVAEXBU2XNZL8A76W8U1,3MRNMEIQW9M7U242SYL4JAMFZIYDLD,6,5
104,2,object_03,object_05,758.89999997616,4,2,-1.0,0.0,2,object_08,5,1100,0,3,2,forest_7,2,memory-2step-stake-s,607,1838010,0.0-19.0-0.0-0.104,A1IMO5XR05U7S5,32CXT5U15JJVAEXBU2XNZL8A76W8U1,3MRNMEIQW9M7U242SYL4JAMFZIYDLD,3,4
105,1,object_07,object_01,646.60000002384,1,2,908.90000003576,0.1111111111111111,1,object_06,1,1101,0,1,5,desert_4,2,memory-2step-stake-s,608,1846245,0.0-19.0-0.0-0.105,A1IMO5XR05U7S5,32CXT5U15JJVAEXBU2XNZL8A76W8U1,3MRNMEIQW9M7U242SYL4JAMFZIYDLD,2,1
106,2,object_05,object_03,1258.7999999523,3,2,221.89999997616,0.4444444444444444,1,object_06,5,1121,0,4,6,forest_7,2,memory-2step-stake-s,609,1854089,0.0-19.0-0.0-0.106,A1IMO5XR05U7S5,32CXT5U15JJVAEXBU2XNZL8A76W8U1,3MRNMEIQW9M7U242SYL4JAMFZIYDLD,4,3
107,2,object_05,object_03,520.5,4,1,442.60000002384,0.5555555555555556,2,object_08,5,1146,0,3,5,forest_3,2,memory-2step-stake-s,610,1862258,0.0-19.0-0.0-0.107,A1IMO5XR05U7S5,32CXT5U15JJVAEXBU2XNZL8A76W8U1,3MRNMEIQW9M7U242SYL4JAMFZIYDLD,4,3
108,4,object_10,object_09,1158.1000000238,8,2,28.5,0.4444444444444444,2,object_08,1,1150,0,7,4,restaurant_4,2,memory-2step-stake-s,611,1869905,0.0-19.0-0.0-0.108,A1IMO5XR05U7S5,32CXT5U15JJVAEXBU2XNZL8A76W8U1,3MRNMEIQW9M7U242SYL4JAMFZIYDLD,7,8
109,3,object_02,object_04,612.69999998808,5,1,64.5,0.6666666666666666,1,object_06,5,1180,0,6,6,library_2,2,memory-2step-stake-s,612,1877793,0.0-19.0-0.0-0.109,A1IMO5XR05U7S5,32CXT5U15JJVAEXBU2XNZL8A76W8U1,3MRNMEIQW9M7U242SYL4JAMFZIYDLD,5,6
110,3,object_02,object_04,720.39999997616,5,1,362.19999998808,0.4444444444444444,1,object_06,1,1184,0,4,7,library_1,2,memory-2step-stake-s,613,1885774,0.0-19.0-0.0-0.110,A1IMO5XR05U7S5,32CXT5U15JJVAEXBU2XNZL8A76W8U1,3MRNMEIQW9M7U242SYL4JAMFZIYDLD,5,6
111,3,object_02,object_04,774.19999998808,5,1,199.09999996424,0.4444444444444444,1,object_06,1,1188,0,4,8,library_2,2,memory-2step-stake-s,614,1893597,0.0-19.0-0.0-0.111,A1IMO5XR05U7S5,32CXT5U15JJVAEXBU2XNZL8A76W8U1,3MRNMEIQW9M7U242SYL4JAMFZIYDLD,5,6
112,3,object_04,object_02,866.80000001192,5,2,1323.3999999762,0.2222222222222222,1,object_06,1,1190,0,2,9,library_8,2,memory-2step-stake-s,615,1902340,0.0-19.0-0.0-0.112,A1IMO5XR05U7S5,32CXT5U15JJVAEXBU2XNZL8A76W8U1,3MRNMEIQW9M7U242SYL4JAMFZIYDLD,6,5
113,2,object_03,object_05,478.60000002384,4,2,251.09999996424,0.6666666666666666,2,object_08,5,1220,0,3,6,forest_3,2,memory-2step-stake-s,616,1910413,0.0-19.0-0.0-0.113,A1IMO5XR05U7S5,32CXT5U15JJVAEXBU2XNZL8A76W8U1,3MRNMEIQW9M7U242SYL4JAMFZIYDLD,3,4
114,2,object_03,object_05,717.5,4,2,773.80000001192,0.3333333333333333,2,object_08,1,1223,0,3,3,forest_1,2,memory-2step-stake-s,617,1918705,0.0-19.0-0.0-0.114,A1IMO5XR05U7S5,32CXT5U15JJVAEXBU2XNZL8A76W8U1,3MRNMEIQW9M7U242SYL4JAMFZIYDLD,3,4
115,4,object_10,object_09,271.40000003576,8,2,600.19999998808,0.1111111111111111,2,object_08,1,1224,0,2,1,restaurant_5,2,memory-2step-stake-s,618,1926619,0.0-19.0-0.0-0.115,A1IMO5XR05U7S5,32CXT5U15JJVAEXBU2XNZL8A76W8U1,3MRNMEIQW9M7U242SYL4JAMFZIYDLD,7,8
116,3,object_04,object_02,450.29999995232,5,2,371.20000004768,0.1111111111111111,1,object_06,5,1229,0,1,1,library_2,2,memory-2step-stake-s,619,1934305,0.0-19.0-0.0-0.116,A1IMO5XR05U7S5,32CXT5U15JJVAEXBU2XNZL8A76W8U1,3MRNMEIQW9M7U242SYL4JAMFZIYDLD,6,5
117,3,object_02,object_04,399.30000001192,5,1,88.0,0.0,1,object_06,1,1229,0,0,1,library_5,2,memory-2step-stake-s,620,1941612,0.0-19.0-0.0-0.117,A1IMO5XR05U7S5,32CXT5U15JJVAEXBU2XNZL8A76W8U1,3MRNMEIQW9M7U242SYL4JAMFZIYDLD,5,6
118,3,object_02,object_04,458.30000001192,5,1,301.39999997616,0.2222222222222222,1,object_06,1,1231,0,2,2,library_5,2,memory-2step-stake-s,621,1949340,0.0-19.0-0.0-0.118,A1IMO5XR05U7S5,32CXT5U15JJVAEXBU2XNZL8A76W8U1,3MRNMEIQW9M7U242SYL4JAMFZIYDLD,5,6
119,2,object_05,object_03,674.30000001192,4,1,449.19999998808,0.2222222222222222,2,object_08,1,1233,0,2,2,forest_1,2,memory-2step-stake-s,622,1957206,0.0-19.0-0.0-0.119,A1IMO5XR05U7S5,32CXT5U15JJVAEXBU2XNZL8A76W8U1,3MRNMEIQW9M7U242SYL4JAMFZIYDLD,4,3
120,1,object_07,object_01,407.0,1,2,455.19999998808,0.3333333333333333,1,object_06,5,1248,0,3,1,desert_4,2,memory-2step-stake-s,623,1965179,0.0-19.0-0.0-0.120,A1IMO5XR05U7S5,32CXT5U15JJVAEXBU2XNZL8A76W8U1,3MRNMEIQW9M7U242SYL4JAMFZIYDLD,2,1
121,3,object_02,object_04,930.10000002384,5,1,15.800000011921,0.3333333333333333,1,object_06,1,1251,0,3,5,library_8,2,memory-2step-stake-s,624,1972717,0.0-19.0-0.0-0.121,A1IMO5XR05U7S5,32CXT5U15JJVAEXBU2XNZL8A76W8U1,3MRNMEIQW9M7U242SYL4JAMFZIYDLD,5,6
122,4,object_10,object_09,1460.1999999881,8,2,747.19999998808,0.1111111111111111,2,object_08,1,1252,0,3,1,restaurant_8,2,memory-2step-stake-s,625,1980778,0.0-19.0-0.0-0.122,A1IMO5XR05U7S5,32CXT5U15JJVAEXBU2XNZL8A76W8U1,3MRNMEIQW9M7U242SYL4JAMFZIYDLD,7,8
123,3,object_04,object_02,506.5,5,2,375.09999996424,0.4444444444444444,1,object_06,1,1256,0,4,3,library_1,2,memory-2step-stake-s,626,1988770,0.0-19.0-0.0-0.123,A1IMO5XR05U7S5,32CXT5U15JJVAEXBU2XNZL8A76W8U1,3MRNMEIQW9M7U242SYL4JAMFZIYDLD,6,5
124,2,object_03,object_05,609.10000002384,4,2,1454.4000000358,0.4444444444444444,2,object_08,5,1276,0,4,4,forest_8,2,memory-2step-stake-s,627,1997842,0.0-19.0-0.0-0.124,A1IMO5XR05U7S5,32CXT5U15JJVAEXBU2XNZL8A76W8U1,3MRNMEIQW9M7U242SYL4JAMFZIYDLD,3,4
125,1,object_01,object_07,1245.5999999642,1,1,585.29999995232,0.6666666666666666,1,object_06,5,1306,0,6,4,desert_4,2,memory-2step-stake-s,628,2006248,0.0-19.0-0.0-0.125,A1IMO5XR05U7S5,32CXT5U15JJVAEXBU2XNZL8A76W8U1,3MRNMEIQW9M7U242SYL4JAMFZIYDLD,1,2
126,4,object_09,object_10,1161.3000000119,7,2,309.60000002384,0.4444444444444444,1,object_06,1,1310,0,4,3,restaurant_4,2,memory-2step-stake-s,629,2014177,0.0-19.0-0.0-0.126,A1IMO5XR05U7S5,32CXT5U15JJVAEXBU2XNZL8A76W8U1,3MRNMEIQW9M7U242SYL4JAMFZIYDLD,8,7
127,2,object_03,object_05,787.0,3,1,447.30000001192,0.3333333333333333,1,object_06,1,1313,0,3,3,forest_8,2,memory-2step-stake-s,630,2022143,0.0-19.0-0.0-0.127,A1IMO5XR05U7S5,32CXT5U15JJVAEXBU2XNZL8A76W8U1,3MRNMEIQW9M7U242SYL4JAMFZIYDLD,3,4
128,3,object_04,object_02,800.80000001192,5,2,460.0,0.2222222222222222,1,object_06,1,1315,0,2,5,library_1,2,memory-2step-stake-s,632,2031670,0.0-19.0-0.1-0.128,A1IMO5XR05U7S5,32CXT5U15JJVAEXBU2XNZL8A76W8U1,3MRNMEIQW9M7U242SYL4JAMFZIYDLD,6,5
129,3,object_02,object_04,475.80000001192,5,1,889.19999998808,0.6666666666666666,1,object_06,5,1345,0,6,1,library_8,2,memory-2step-stake-s,633,2040406,0.0-19.0-0.1-0.129,A1IMO5XR05U7S5,32CXT5U15JJVAEXBU2XNZL8A76W8U1,3MRNMEIQW9M7U242SYL4JAMFZIYDLD,5,6
130,4,object_10,object_09,346.19999998808,8,2,457.10000002384,0.2222222222222222,2,object_08,1,1347,0,3,2,restaurant_5,2,memory-2step-stake-s,634,2048282,0.0-19.0-0.1-0.130,A1IMO5XR05U7S5,32CXT5U15JJVAEXBU2XNZL8A76W8U1,3MRNMEIQW9M7U242SYL4JAMFZIYDLD,7,8
131,4,object_10,object_09,822.0,7,1,303.80000001192,0.0,1,object_06,1,1347,0,0,3,restaurant_3,2,memory-2step-stake-s,635,2055798,0.0-19.0-0.1-0.131,A1IMO5XR05U7S5,32CXT5U15JJVAEXBU2XNZL8A76W8U1,3MRNMEIQW9M7U242SYL4JAMFZIYDLD,7,8
132,2,object_03,object_05,668.0,4,2,730.09999996424,0.0,2,object_08,5,1347,0,0,0,forest_1,2,memory-2step-stake-s,636,2063741,0.0-19.0-0.1-0.132,A1IMO5XR05U7S5,32CXT5U15JJVAEXBU2XNZL8A76W8U1,3MRNMEIQW9M7U242SYL4JAMFZIYDLD,3,4
133,3,object_04,object_02,627.39999997616,5,2,360.90000003576,0.1111111111111111,1,object_06,1,1348,0,1,0,library_8,2,memory-2step-stake-s,637,2071428,0.0-19.0-0.1-0.133,A1IMO5XR05U7S5,32CXT5U15JJVAEXBU2XNZL8A76W8U1,3MRNMEIQW9M7U242SYL4JAMFZIYDLD,6,5
134,1,object_07,object_01,467.19999998808,1,2,1062.6999999881,0.1111111111111111,1,object_06,5,1353,0,1,1,desert_6,2,memory-2step-stake-s,638,2079806,0.0-19.0-0.1-0.134,A1IMO5XR05U7S5,32CXT5U15JJVAEXBU2XNZL8A76W8U1,3MRNMEIQW9M7U242SYL4JAMFZIYDLD,2,1
135,4,object_09,object_10,802.10000002384,8,1,637.80000001192,0.0,2,object_08,1,1353,0,2,0,restaurant_8,2,memory-2step-stake-s,639,2087658,0.0-19.0-0.1-0.135,A1IMO5XR05U7S5,32CXT5U15JJVAEXBU2XNZL8A76W8U1,3MRNMEIQW9M7U242SYL4JAMFZIYDLD,8,7
136,1,object_07,object_01,-1.0,-1,-1,-1.0,0.0,-,0,5,1353,0,0,1,desert_8,2,memory-2step-stake-s,640,2094165,0.0-19.0-0.1-0.136,A1IMO5XR05U7S5,32CXT5U15JJVAEXBU2XNZL8A76W8U1,3MRNMEIQW9M7U242SYL4JAMFZIYDLD,2,1
137,3,object_04,object_02,-1.0,-1,-1,-1.0,0.0,-,0,1,1353,0,1,0,library_1,2,memory-2step-stake-s,641,2100675,0.0-19.0-0.1-0.137,A1IMO5XR05U7S5,32CXT5U15JJVAEXBU2XNZL8A76W8U1,3MRNMEIQW9M7U242SYL4JAMFZIYDLD,6,5
138,1,object_07,object_01,471.60000002384,1,2,1312.8999999762,0.5555555555555556,1,object_06,1,1358,0,5,3,desert_6,2,memory-2step-stake-s,642,2109709,0.0-19.0-0.1-0.138,A1IMO5XR05U7S5,32CXT5U15JJVAEXBU2XNZL8A76W8U1,3MRNMEIQW9M7U242SYL4JAMFZIYDLD,2,1
139,1,object_01,object_07,448.19999998808,1,1,436.19999998808,0.7777777777777778,1,object_06,1,1365,0,7,5,desert_6,2,memory-2step-stake-s,643,2118064,0.0-19.0-0.1-0.139,A1IMO5XR05U7S5,32CXT5U15JJVAEXBU2XNZL8A76W8U1,3MRNMEIQW9M7U242SYL4JAMFZIYDLD,1,2
140,1,object_01,object_07,655.0,1,1,1448.5,0.6666666666666666,1,object_06,1,1371,0,6,5,desert_7,2,memory-2step-stake-s,644,2127339,0.0-19.0-0.1-0.140,A1IMO5XR05U7S5,32CXT5U15JJVAEXBU2XNZL8A76W8U1,3MRNMEIQW9M7U242SYL4JAMFZIYDLD,1,2
141,4,object_10,object_09,942.5,8,2,992.5,0.5555555555555556,2,object_08,1,1376,0,8,5,restaurant_4,2,memory-2step-stake-s,645,2136051,0.0-19.0-0.1-0.141,A1IMO5XR05U7S5,32CXT5U15JJVAEXBU2XNZL8A76W8U1,3MRNMEIQW9M7U242SYL4JAMFZIYDLD,7,8
142,3,object_04,object_02,443.5,5,2,386.10000002384,0.8888888888888888,1,object_06,5,1416,0,8,6,library_2,2,memory-2step-stake-s,646,2144464,0.0-19.0-0.1-0.142,A1IMO5XR05U7S5,32CXT5U15JJVAEXBU2XNZL8A76W8U1,3MRNMEIQW9M7U242SYL4JAMFZIYDLD,6,5
143,1,object_07,object_01,751.59999996424,1,2,-1.0,0.0,1,object_06,1,1416,0,8,8,desert_7,2,memory-2step-stake-s,647,2152977,0.0-19.0-0.1-0.143,A1IMO5XR05U7S5,32CXT5U15JJVAEXBU2XNZL8A76W8U1,3MRNMEIQW9M7U242SYL4JAMFZIYDLD,2,1
144,1,object_01,object_07,737.29999995232,1,1,630.20000004768,0.5555555555555556,1,object_06,1,1421,0,5,6,desert_8,2,memory-2step-stake-s,648,2161335,0.0-19.0-0.1-0.144,A1IMO5XR05U7S5,32CXT5U15JJVAEXBU2XNZL8A76W8U1,3MRNMEIQW9M7U242SYL4JAMFZIYDLD,1,2
145,4,object_09,object_10,947.30000001192,8,1,689.10000002384,0.8888888888888888,2,object_08,1,1429,0,4,8,restaurant_5,2,memory-2step-stake-s,649,2170050,0.0-19.0-0.1-0.145,A1IMO5XR05U7S5,32CXT5U15JJVAEXBU2XNZL8A76W8U1,3MRNMEIQW9M7U242SYL4JAMFZIYDLD,8,7
146,1,object_01,object_07,431.30000001192,1,1,1211.6999999881,0.1111111111111111,1,object_06,5,1434,0,1,9,desert_6,2,memory-2step-stake-s,650,2178576,0.0-19.0-0.1-0.146,A1IMO5XR05U7S5,32CXT5U15JJVAEXBU2XNZL8A76W8U1,3MRNMEIQW9M7U242SYL4JAMFZIYDLD,1,2
147,1,object_01,object_07,173.60000002384,1,1,990.10000002384,0.4444444444444444,1,object_06,5,1454,0,4,8,desert_4,2,memory-2step-stake-s,651,2187186,0.0-19.0-0.1-0.147,A1IMO5XR05U7S5,32CXT5U15JJVAEXBU2XNZL8A76W8U1,3MRNMEIQW9M7U242SYL4JAMFZIYDLD,1,2
148,3,object_02,object_04,475.10000002384,5,1,612.39999997616,0.2222222222222222,1,object_06,1,1456,0,2,9,library_1,2,memory-2step-stake-s,652,2195220,0.0-19.0-0.1-0.148,A1IMO5XR05U7S5,32CXT5U15JJVAEXBU2XNZL8A76W8U1,3MRNMEIQW9M7U242SYL4JAMFZIYDLD,5,6
149,2,object_03,object_05,684.09999996424,4,2,864.19999998808,0.7777777777777778,2,object_08,5,1491,0,3,7,forest_3,2,memory-2step-stake-s,653,2204017,0.0-19.0-0.1-0.149,A1IMO5XR05U7S5,32CXT5U15JJVAEXBU2XNZL8A76W8U1,3MRNMEIQW9M7U242SYL4JAMFZIYDLD,3,4
150,1,object_07,object_01,457.30000001192,1,2,456.0,0.4444444444444444,1,object_06,5,1511,0,4,9,desert_6,2,memory-2step-stake-s,654,2212093,0.0-19.0-0.1-0.150,A1IMO5XR05U7S5,32CXT5U15JJVAEXBU2XNZL8A76W8U1,3MRNMEIQW9M7U242SYL4JAMFZIYDLD,2,1
151,3,object_04,object_02,713.60000002384,5,2,316.69999998808,0.3333333333333333,1,object_06,1,1514,0,3,7,library_8,2,memory-2step-stake-s,655,2219926,0.0-19.0-0.1-0.151,A1IMO5XR05U7S5,32CXT5U15JJVAEXBU2XNZL8A76W8U1,3MRNMEIQW9M7U242SYL4JAMFZIYDLD,6,5
152,3,object_04,object_02,537.5,5,2,1410.1999999881,0.3333333333333333,1,object_06,1,1517,0,3,5,library_8,2,memory-2step-stake-s,656,2228861,0.0-19.0-0.1-0.152,A1IMO5XR05U7S5,32CXT5U15JJVAEXBU2XNZL8A76W8U1,3MRNMEIQW9M7U242SYL4JAMFZIYDLD,6,5
153,2,object_03,object_05,681.19999998808,4,2,1179.5,0.1111111111111111,2,object_08,5,1522,0,3,1,forest_3,2,memory-2step-stake-s,657,2237351,0.0-19.0-0.1-0.153,A1IMO5XR05U7S5,32CXT5U15JJVAEXBU2XNZL8A76W8U1,3MRNMEIQW9M7U242SYL4JAMFZIYDLD,3,4
154,2,object_05,object_03,928.60000002384,4,1,504.30000001192,0.0,2,object_08,5,1522,0,2,0,forest_3,2,memory-2step-stake-s,658,2245070,0.0-19.0-0.1-0.154,A1IMO5XR05U7S5,32CXT5U15JJVAEXBU2XNZL8A76W8U1,3MRNMEIQW9M7U242SYL4JAMFZIYDLD,4,3
155,4,object_09,object_10,-1.0,-1,-1,-1.0,0.0,-,0,5,1522,0,2,1,restaurant_4,2,memory-2step-stake-s,659,2251579,0.0-19.0-0.1-0.155,A1IMO5XR05U7S5,32CXT5U15JJVAEXBU2XNZL8A76W8U1,3MRNMEIQW9M7U242SYL4JAMFZIYDLD,8,7
156,2,object_03,object_05,601.19999998808,4,2,654.20000004768,0.3333333333333333,2,object_08,5,1537,0,1,3,forest_7,2,memory-2step-stake-s,660,2259760,0.0-19.0-0.1-0.156,A1IMO5XR05U7S5,32CXT5U15JJVAEXBU2XNZL8A76W8U1,3MRNMEIQW9M7U242SYL4JAMFZIYDLD,3,4
157,1,object_07,object_01,447.70000004768,1,2,521.39999997616,0.0,1,object_06,5,1537,0,0,3,desert_8,2,memory-2step-stake-s,661,2267503,0.0-19.0-0.1-0.157,A1IMO5XR05U7S5,32CXT5U15JJVAEXBU2XNZL8A76W8U1,3MRNMEIQW9M7U242SYL4JAMFZIYDLD,2,1
158,2,object_05,object_03,775.5,4,1,749.69999998808,0.6666666666666666,2,object_08,5,1567,0,1,6,forest_1,2,memory-2step-stake-s,662,2276082,0.0-19.0-0.1-0.158,A1IMO5XR05U7S5,32CXT5U15JJVAEXBU2XNZL8A76W8U1,3MRNMEIQW9M7U242SYL4JAMFZIYDLD,4,3
159,2,object_05,object_03,833.89999997616,4,1,442.5,0.6666666666666666,2,object_08,1,1573,0,1,6,forest_3,2,memory-2step-stake-s,663,2284358,0.0-19.0-0.1-0.159,A1IMO5XR05U7S5,32CXT5U15JJVAEXBU2XNZL8A76W8U1,3MRNMEIQW9M7U242SYL4JAMFZIYDLD,4,3
160,3,object_04,object_02,1260.1999999881,5,2,-1.0,0.0,1,object_06,1,1573,0,1,5,library_8,2,memory-2step-stake-s,664,2292870,0.0-19.0-0.1-0.160,A1IMO5XR05U7S5,32CXT5U15JJVAEXBU2XNZL8A76W8U1,3MRNMEIQW9M7U242SYL4JAMFZIYDLD,6,5
161,3,object_04,object_02,548.89999997616,5,2,356.19999998808,0.5555555555555556,1,object_06,5,1598,0,5,7,library_8,2,memory-2step-stake-s,665,2300944,0.0-19.0-0.1-0.161,A1IMO5XR05U7S5,32CXT5U15JJVAEXBU2XNZL8A76W8U1,3MRNMEIQW9M7U242SYL4JAMFZIYDLD,6,5
162,4,object_09,object_10,254.29999995232,7,2,402.0,0.3333333333333333,1,object_06,5,1613,0,3,8,restaurant_3,2,memory-2step-stake-s,666,2308882,0.0-19.0-0.1-0.162,A1IMO5XR05U7S5,32CXT5U15JJVAEXBU2XNZL8A76W8U1,3MRNMEIQW9M7U242SYL4JAMFZIYDLD,8,7
163,4,object_10,object_09,391.69999998808,8,2,775.20000004768,0.3333333333333333,2,object_08,5,1628,0,4,3,restaurant_8,2,memory-2step-stake-s,667,2317174,0.0-19.0-0.1-0.163,A1IMO5XR05U7S5,32CXT5U15JJVAEXBU2XNZL8A76W8U1,3MRNMEIQW9M7U242SYL4JAMFZIYDLD,7,8
164,1,object_01,object_07,553.80000001192,1,1,674.30000001192,0.5555555555555556,1,object_06,5,1653,0,5,2,desert_6,2,memory-2step-stake-s,668,2325580,0.0-19.0-0.1-0.164,A1IMO5XR05U7S5,32CXT5U15JJVAEXBU2XNZL8A76W8U1,3MRNMEIQW9M7U242SYL4JAMFZIYDLD,1,2
165,2,object_05,object_03,958.10000002384,4,1,437.10000002384,0.4444444444444444,2,object_08,1,1657,0,6,4,forest_8,2,memory-2step-stake-s,669,2333665,0.0-19.0-0.1-0.165,A1IMO5XR05U7S5,32CXT5U15JJVAEXBU2XNZL8A76W8U1,3MRNMEIQW9M7U242SYL4JAMFZIYDLD,4,3
166,1,object_01,object_07,560.19999998808,1,1,716.0,0.6666666666666666,1,object_06,5,1687,0,6,3,desert_4,2,memory-2step-stake-s,670,2342201,0.0-19.0-0.1-0.166,A1IMO5XR05U7S5,32CXT5U15JJVAEXBU2XNZL8A76W8U1,3MRNMEIQW9M7U242SYL4JAMFZIYDLD,1,2
167,3,object_02,object_04,561.29999995232,5,1,289.19999998808,0.7777777777777778,1,object_06,1,1694,0,7,5,library_1,2,memory-2step-stake-s,671,2350407,0.0-19.0-0.1-0.167,A1IMO5XR05U7S5,32CXT5U15JJVAEXBU2XNZL8A76W8U1,3MRNMEIQW9M7U242SYL4JAMFZIYDLD,5,6
168,3,object_02,object_04,422.39999997616,5,1,-1.0,0.0,1,object_06,1,1694,0,9,4,library_2,2,memory-2step-stake-s,672,2358917,0.0-19.0-0.1-0.168,A1IMO5XR05U7S5,32CXT5U15JJVAEXBU2XNZL8A76W8U1,3MRNMEIQW9M7U242SYL4JAMFZIYDLD,5,6
169,1,object_07,object_01,400.30000001192,1,2,512.10000002384,0.8888888888888888,1,object_06,1,1702,0,8,4,desert_8,2,memory-2step-stake-s,673,2367451,0.0-19.0-0.1-0.169,A1IMO5XR05U7S5,32CXT5U15JJVAEXBU2XNZL8A76W8U1,3MRNMEIQW9M7U242SYL4JAMFZIYDLD,2,1
170,2,object_03,object_05,1204.0,4,2,773.20000004768,0.3333333333333333,2,object_08,5,1717,0,9,3,forest_1,2,memory-2step-stake-s,674,2375753,0.0-19.0-0.1-0.170,A1IMO5XR05U7S5,32CXT5U15JJVAEXBU2XNZL8A76W8U1,3MRNMEIQW9M7U242SYL4JAMFZIYDLD,3,4
171,2,object_03,object_05,1116.5,4,2,994.10000002384,0.4444444444444444,2,object_08,5,1737,0,7,4,forest_3,2,memory-2step-stake-s,675,2384364,0.0-19.0-0.1-0.171,A1IMO5XR05U7S5,32CXT5U15JJVAEXBU2XNZL8A76W8U1,3MRNMEIQW9M7U242SYL4JAMFZIYDLD,3,4
172,1,object_01,object_07,494.40000003576,1,1,242.79999995232,0.5555555555555556,1,object_06,1,1742,0,5,4,desert_7,2,memory-2step-stake-s,676,2392324,0.0-19.0-0.1-0.172,A1IMO5XR05U7S5,32CXT5U15JJVAEXBU2XNZL8A76W8U1,3MRNMEIQW9M7U242SYL4JAMFZIYDLD,1,2
173,4,object_10,object_09,662.69999998808,8,2,417.30000001192,0.5555555555555556,2,object_08,1,1747,0,3,5,restaurant_5,2,memory-2step-stake-s,677,2400471,0.0-19.0-0.1-0.173,A1IMO5XR05U7S5,32CXT5U15JJVAEXBU2XNZL8A76W8U1,3MRNMEIQW9M7U242SYL4JAMFZIYDLD,7,8
174,4,object_09,object_10,639.69999998808,8,1,596.80000001192,0.3333333333333333,2,object_08,1,1750,0,3,3,restaurant_5,2,memory-2step-stake-s,678,2408584,0.0-19.0-0.1-0.174,A1IMO5XR05U7S5,32CXT5U15JJVAEXBU2XNZL8A76W8U1,3MRNMEIQW9M7U242SYL4JAMFZIYDLD,8,7
175,2,object_05,object_03,670.69999998808,4,1,632.89999997616,0.4444444444444444,2,object_08,5,1770,0,1,4,forest_3,2,memory-2step-stake-s,679,2416834,0.0-19.0-0.1-0.175,A1IMO5XR05U7S5,32CXT5U15JJVAEXBU2XNZL8A76W8U1,3MRNMEIQW9M7U242SYL4JAMFZIYDLD,4,3
176,3,object_02,object_04,763.19999998808,5,1,950.0,0.4444444444444444,1,object_06,1,1774,0,4,2,library_8,2,memory-2step-stake-s,680,2425401,0.0-19.0-0.1-0.176,A1IMO5XR05U7S5,32CXT5U15JJVAEXBU2XNZL8A76W8U1,3MRNMEIQW9M7U242SYL4JAMFZIYDLD,5,6
177,3,object_02,object_04,598.29999995232,5,1,86.800000011921,0.2222222222222222,1,object_06,1,1776,0,2,3,library_2,2,memory-2step-stake-s,681,2432905,0.0-19.0-0.1-0.177,A1IMO5XR05U7S5,32CXT5U15JJVAEXBU2XNZL8A76W8U1,3MRNMEIQW9M7U242SYL4JAMFZIYDLD,5,6
178,4,object_09,object_10,567.89999997616,8,1,-1.0,0.0,2,object_08,1,1776,0,3,3,restaurant_3,2,memory-2step-stake-s,682,2441421,0.0-19.0-0.1-0.178,A1IMO5XR05U7S5,32CXT5U15JJVAEXBU2XNZL8A76W8U1,3MRNMEIQW9M7U242SYL4JAMFZIYDLD,8,7
179,4,object_10,object_09,678.10000002384,8,2,676.39999997616,0.6666666666666666,2,object_08,1,1782,0,6,6,restaurant_4,2,memory-2step-stake-s,683,2449915,0.0-19.0-0.1-0.179,A1IMO5XR05U7S5,32CXT5U15JJVAEXBU2XNZL8A76W8U1,3MRNMEIQW9M7U242SYL4JAMFZIYDLD,7,8
180,2,object_03,object_05,493.5,4,2,360.69999998808,1.0,2,object_08,5,1827,0,5,9,forest_8,2,memory-2step-stake-s,684,2458401,0.0-19.0-0.1-0.180,A1IMO5XR05U7S5,32CXT5U15JJVAEXBU2XNZL8A76W8U1,3MRNMEIQW9M7U242SYL4JAMFZIYDLD,3,4
181,3,object_04,object_02,775.59999996424,5,2,737.19999998808,0.4444444444444444,1,object_06,1,1831,0,4,9,library_1,2,memory-2step-stake-s,685,2466762,0.0-19.0-0.1-0.181,A1IMO5XR05U7S5,32CXT5U15JJVAEXBU2XNZL8A76W8U1,3MRNMEIQW9M7U242SYL4JAMFZIYDLD,6,5
182,1,object_01,object_07,908.60000002384,1,1,260.40000003576,0.5555555555555556,1,object_06,5,1856,0,5,8,desert_7,2,memory-2step-stake-s,686,2474757,0.0-19.0-0.1-0.182,A1IMO5XR05U7S5,32CXT5U15JJVAEXBU2XNZL8A76W8U1,3MRNMEIQW9M7U242SYL4JAMFZIYDLD,1,2
183,1,object_01,object_07,590.60000002384,1,1,1149.4000000358,0.5555555555555556,1,object_06,5,1881,0,5,8,desert_7,2,memory-2step-stake-s,687,2483640,0.0-19.0-0.1-0.183,A1IMO5XR05U7S5,32CXT5U15JJVAEXBU2XNZL8A76W8U1,3MRNMEIQW9M7U242SYL4JAMFZIYDLD,1,2
184,2,object_03,object_05,433.29999995232,4,2,654.19999998808,0.7777777777777778,2,object_08,5,1916,0,7,7,forest_7,2,memory-2step-stake-s,688,2492219,0.0-19.0-0.1-0.184,A1IMO5XR05U7S5,32CXT5U15JJVAEXBU2XNZL8A76W8U1,3MRNMEIQW9M7U242SYL4JAMFZIYDLD,3,4
185,1,object_07,object_01,729.19999998808,1,2,1049.3999999762,0.8888888888888888,1,object_06,1,1924,0,8,8,desert_8,2,memory-2step-stake-s,689,2501312,0.0-19.0-0.1-0.185,A1IMO5XR05U7S5,32CXT5U15JJVAEXBU2XNZL8A76W8U1,3MRNMEIQW9M7U242SYL4JAMFZIYDLD,2,1
186,3,object_04,object_02,631.80000001192,5,2,794.0,0.4444444444444444,1,object_06,1,1928,0,4,8,library_8,2,memory-2step-stake-s,690,2509725,0.0-19.0-0.1-0.186,A1IMO5XR05U7S5,32CXT5U15JJVAEXBU2XNZL8A76W8U1,3MRNMEIQW9M7U242SYL4JAMFZIYDLD,6,5
187,1,object_07,object_01,1294.3999999762,1,2,714.10000002384,0.2222222222222222,1,object_06,1,1930,0,2,6,desert_7,2,memory-2step-stake-s,691,2517880,0.0-19.0-0.1-0.187,A1IMO5XR05U7S5,32CXT5U15JJVAEXBU2XNZL8A76W8U1,3MRNMEIQW9M7U242SYL4JAMFZIYDLD,2,1
188,2,object_03,object_05,427.5,4,2,783.19999998808,0.7777777777777778,2,object_08,5,1965,0,1,7,forest_7,2,memory-2step-stake-s,692,2526593,0.0-19.0-0.1-0.188,A1IMO5XR05U7S5,32CXT5U15JJVAEXBU2XNZL8A76W8U1,3MRNMEIQW9M7U242SYL4JAMFZIYDLD,3,4
189,4,object_09,object_10,689.09999996424,8,1,991.19999998808,0.8888888888888888,2,object_08,1,1973,0,3,8,restaurant_5,2,memory-2step-stake-s,693,2535608,0.0-19.0-0.1-0.189,A1IMO5XR05U7S5,32CXT5U15JJVAEXBU2XNZL8A76W8U1,3MRNMEIQW9M7U242SYL4JAMFZIYDLD,8,7
190,3,object_02,object_04,885.19999998808,5,1,472.19999998808,0.5555555555555556,1,object_06,1,1978,0,5,6,library_5,2,memory-2step-stake-s,694,2543809,0.0-19.0-0.1-0.190,A1IMO5XR05U7S5,32CXT5U15JJVAEXBU2XNZL8A76W8U1,3MRNMEIQW9M7U242SYL4JAMFZIYDLD,5,6
191,4,object_10,object_09,636.5,8,2,242.29999995232,0.8888888888888888,2,object_08,1,1986,0,1,8,restaurant_3,2,memory-2step-stake-s,695,2552094,0.0-19.0-0.1-0.191,A1IMO5XR05U7S5,32CXT5U15JJVAEXBU2XNZL8A76W8U1,3MRNMEIQW9M7U242SYL4JAMFZIYDLD,7,8
192,1,object_07,object_01,758.39999997616,1,2,835.80000001192,0.4444444444444444,1,object_06,1,1990,0,4,5,desert_7,2,memory-2step-stake-s,696,2560551,0.0-19.0-0.1-0.192,A1IMO5XR05U7S5,32CXT5U15JJVAEXBU2XNZL8A76W8U1,3MRNMEIQW9M7U242SYL4JAMFZIYDLD,2,1
193,1,object_01,object_07,659.0,1,1,610.20000004768,0.3333333333333333,1,object_06,5,2005,0,3,6,desert_7,2,memory-2step-stake-s,697,2568677,0.0-19.0-0.1-0.193,A1IMO5XR05U7S5,32CXT5U15JJVAEXBU2XNZL8A76W8U1,3MRNMEIQW9M7U242SYL4JAMFZIYDLD,1,2
194,1,object_01,object_07,442.39999997616,1,1,406.10000002384,0.4444444444444444,1,object_06,5,2025,0,4,4,desert_7,2,memory-2step-stake-s,698,2576702,0.0-19.0-0.1-0.194,A1IMO5XR05U7S5,32CXT5U15JJVAEXBU2XNZL8A76W8U1,3MRNMEIQW9M7U242SYL4JAMFZIYDLD,1,2
195,4,object_10,object_09,769.69999998808,8,2,977.19999998808,0.5555555555555556,2,object_08,1,2030,0,1,5,restaurant_3,2,memory-2step-stake-s,699,2585411,0.0-19.0-0.1-0.195,A1IMO5XR05U7S5,32CXT5U15JJVAEXBU2XNZL8A76W8U1,3MRNMEIQW9M7U242SYL4JAMFZIYDLD,7,8
196,3,object_02,object_04,636.0,5,1,407.39999997616,0.1111111111111111,1,object_06,1,2031,0,1,5,library_5,2,memory-2step-stake-s,700,2593136,0.0-19.0-0.1-0.196,A1IMO5XR05U7S5,32CXT5U15JJVAEXBU2XNZL8A76W8U1,3MRNMEIQW9M7U242SYL4JAMFZIYDLD,5,6
197,4,object_10,object_09,1079.8000000119,8,2,624.30000001192,0.5555555555555556,2,object_08,1,2036,0,1,5,restaurant_5,2,memory-2step-stake-s,701,2601477,0.0-19.0-0.1-0.197,A1IMO5XR05U7S5,32CXT5U15JJVAEXBU2XNZL8A76W8U1,3MRNMEIQW9M7U242SYL4JAMFZIYDLD,7,8
198,4,object_10,object_09,663.69999998808,8,2,74.600000023842,1.0,2,object_08,1,2045,0,4,9,restaurant_8,2,memory-2step-stake-s,702,2609680,0.0-19.0-0.1-0.198,A1IMO5XR05U7S5,32CXT5U15JJVAEXBU2XNZL8A76W8U1,3MRNMEIQW9M7U242SYL4JAMFZIYDLD,7,8
199,1,object_07,object_01,693.19999998808,1,2,591.40000003576,0.7777777777777778,1,object_06,5,2080,0,7,7,desert_4,2,memory-2step-stake-s,703,2618199,0.0-19.0-0.1-0.199,A1IMO5XR05U7S5,32CXT5U15JJVAEXBU2XNZL8A76W8U1,3MRNMEIQW9M7U242SYL4JAMFZIYDLD,2,1
200,2,object_05,object_03,-1.0,-1,-1,-1.0,0.0,-,0,5,2080,0,4,7,forest_1,2,memory-2step-stake-s,704,2624719,0.0-19.0-0.1-0.200,A1IMO5XR05U7S5,32CXT5U15JJVAEXBU2XNZL8A76W8U1,3MRNMEIQW9M7U242SYL4JAMFZIYDLD,4,3
201,4,object_09,object_10,677.30000001192,8,1,869.39999997616,0.5555555555555556,2,object_08,1,2085,0,5,5,restaurant_4,2,memory-2step-stake-s,705,2633310,0.0-19.0-0.1-0.201,A1IMO5XR05U7S5,32CXT5U15JJVAEXBU2XNZL8A76W8U1,3MRNMEIQW9M7U242SYL4JAMFZIYDLD,8,7
202,2,object_05,object_03,464.60000002384,4,1,-1.0,0.0,2,object_08,1,2085,0,8,6,forest_8,2,memory-2step-stake-s,706,2641824,0.0-19.0-0.1-0.202,A1IMO5XR05U7S5,32CXT5U15JJVAEXBU2XNZL8A76W8U1,3MRNMEIQW9M7U242SYL4JAMFZIYDLD,4,3
203,1,object_01,object_07,793.30000001192,1,1,1315.3000000119,0.8888888888888888,1,object_06,5,2125,0,8,7,desert_6,2,memory-2step-stake-s,707,2651169,0.0-19.0-0.1-0.203,A1IMO5XR05U7S5,32CXT5U15JJVAEXBU2XNZL8A76W8U1,3MRNMEIQW9M7U242SYL4JAMFZIYDLD,1,2
204,4,object_10,object_09,815.10000002384,8,2,313.39999997616,0.8888888888888888,2,object_08,1,2133,0,6,8,restaurant_8,2,memory-2step-stake-s,708,2659511,0.0-19.0-0.1-0.204,A1IMO5XR05U7S5,32CXT5U15JJVAEXBU2XNZL8A76W8U1,3MRNMEIQW9M7U242SYL4JAMFZIYDLD,7,8
205,1,object_07,object_01,555.0,1,2,649.19999998808,0.7777777777777778,1,object_06,1,2140,0,7,9,desert_8,2,memory-2step-stake-s,709,2668082,0.0-19.0-0.1-0.205,A1IMO5XR05U7S5,32CXT5U15JJVAEXBU2XNZL8A76W8U1,3MRNMEIQW9M7U242SYL4JAMFZIYDLD,2,1
206,4,object_10,object_09,604.80000001192,8,2,683.5,0.3333333333333333,2,object_08,1,2143,0,6,3,restaurant_4,2,memory-2step-stake-s,710,2676288,0.0-19.0-0.1-0.206,A1IMO5XR05U7S5,32CXT5U15JJVAEXBU2XNZL8A76W8U1,3MRNMEIQW9M7U242SYL4JAMFZIYDLD,7,8
207,2,object_03,object_05,505.80000001192,4,2,905.80000001192,0.2222222222222222,2,object_08,5,2153,0,4,2,forest_8,2,memory-2step-stake-s,711,2684621,0.0-19.0-0.1-0.207,A1IMO5XR05U7S5,32CXT5U15JJVAEXBU2XNZL8A76W8U1,3MRNMEIQW9M7U242SYL4JAMFZIYDLD,3,4
208,4,object_10,object_09,634.5,8,2,522.10000002384,0.7777777777777778,2,object_08,1,2160,0,5,7,restaurant_5,2,memory-2step-stake-s,712,2693078,0.0-19.0-0.1-0.208,A1IMO5XR05U7S5,32CXT5U15JJVAEXBU2XNZL8A76W8U1,3MRNMEIQW9M7U242SYL4JAMFZIYDLD,7,8
209,3,object_04,object_02,658.0,5,2,916.90000003576,0.3333333333333333,1,object_06,1,2163,0,3,8,library_5,2,memory-2step-stake-s,713,2701513,0.0-19.0-0.1-0.209,A1IMO5XR05U7S5,32CXT5U15JJVAEXBU2XNZL8A76W8U1,3MRNMEIQW9M7U242SYL4JAMFZIYDLD,6,5
210,3,object_04,object_02,522.30000001192,5,2,411.10000002384,0.3333333333333333,1,object_06,1,2166,0,3,9,library_2,2,memory-2step-stake-s,714,2709443,0.0-19.0-0.1-0.210,A1IMO5XR05U7S5,32CXT5U15JJVAEXBU2XNZL8A76W8U1,3MRNMEIQW9M7U242SYL4JAMFZIYDLD,6,5
211,3,object_02,object_04,614.80000001192,5,1,375.5,0.3333333333333333,1,object_06,1,2169,0,3,7,library_1,2,memory-2step-stake-s,715,2717335,0.0-19.0-0.1-0.211,A1IMO5XR05U7S5,32CXT5U15JJVAEXBU2XNZL8A76W8U1,3MRNMEIQW9M7U242SYL4JAMFZIYDLD,5,6
212,4,object_09,object_10,662.09999996424,8,1,652.39999997616,0.7777777777777778,2,object_08,5,2204,0,3,7,restaurant_4,2,memory-2step-stake-s,716,2725909,0.0-19.0-0.1-0.212,A1IMO5XR05U7S5,32CXT5U15JJVAEXBU2XNZL8A76W8U1,3MRNMEIQW9M7U242SYL4JAMFZIYDLD,8,7
213,3,object_02,object_04,589.89999997616,5,1,631.0,0.5555555555555556,1,object_06,1,2209,0,5,6,library_1,2,memory-2step-stake-s,717,2734262,0.0-19.0-0.1-0.213,A1IMO5XR05U7S5,32CXT5U15JJVAEXBU2XNZL8A76W8U1,3MRNMEIQW9M7U242SYL4JAMFZIYDLD,5,6
214,4,object_10,object_09,940.0,8,2,-1.0,0.0,2,object_08,1,2209,0,1,6,restaurant_8,2,memory-2step-stake-s,718,2742779,0.0-19.0-0.1-0.214,A1IMO5XR05U7S5,32CXT5U15JJVAEXBU2XNZL8A76W8U1,3MRNMEIQW9M7U242SYL4JAMFZIYDLD,7,8
215,3,object_04,object_02,728.5,5,2,1162.6000000238,0.2222222222222222,1,object_06,1,2211,0,2,6,library_5,2,memory-2step-stake-s,719,2751370,0.0-19.0-0.1-0.215,A1IMO5XR05U7S5,32CXT5U15JJVAEXBU2XNZL8A76W8U1,3MRNMEIQW9M7U242SYL4JAMFZIYDLD,6,5
216,3,object_02,object_04,656.10000002384,5,1,253.09999996424,0.2222222222222222,1,object_06,1,2213,0,2,6,library_5,2,memory-2step-stake-s,720,2759041,0.0-19.0-0.1-0.216,A1IMO5XR05U7S5,32CXT5U15JJVAEXBU2XNZL8A76W8U1,3MRNMEIQW9M7U242SYL4JAMFZIYDLD,5,6
217,1,object_07,object_01,669.39999997616,1,2,380.40000003576,0.4444444444444444,1,object_06,1,2217,0,4,6,desert_8,2,memory-2step-stake-s,721,2767039,0.0-19.0-0.1-0.217,A1IMO5XR05U7S5,32CXT5U15JJVAEXBU2XNZL8A76W8U1,3MRNMEIQW9M7U242SYL4JAMFZIYDLD,2,1
218,2,object_03,object_05,481.0,4,2,538.10000002384,0.7777777777777778,2,object_08,5,2252,0,4,7,forest_3,2,memory-2step-stake-s,722,2775503,0.0-19.0-0.1-0.218,A1IMO5XR05U7S5,32CXT5U15JJVAEXBU2XNZL8A76W8U1,3MRNMEIQW9M7U242SYL4JAMFZIYDLD,3,4
219,2,object_03,object_05,631.70000004768,4,2,496.90000003576,0.2222222222222222,2,object_08,5,2262,0,6,2,forest_1,2,memory-2step-stake-s,723,2783419,0.0-19.0-0.1-0.219,A1IMO5XR05U7S5,32CXT5U15JJVAEXBU2XNZL8A76W8U1,3MRNMEIQW9M7U242SYL4JAMFZIYDLD,3,4
220,1,object_07,object_01,737.60000002384,1,2,319.10000002384,0.8888888888888888,1,object_06,5,2302,0,8,4,desert_4,2,memory-2step-stake-s,724,2791780,0.0-19.0-0.1-0.220,A1IMO5XR05U7S5,32CXT5U15JJVAEXBU2XNZL8A76W8U1,3MRNMEIQW9M7U242SYL4JAMFZIYDLD,2,1
221,3,object_02,object_04,658.90000003576,5,1,291.60000002384,0.8888888888888888,1,object_06,1,2310,0,8,0,library_1,2,memory-2step-stake-s,725,2800096,0.0-19.0-0.1-0.221,A1IMO5XR05U7S5,32CXT5U15JJVAEXBU2XNZL8A76W8U1,3MRNMEIQW9M7U242SYL4JAMFZIYDLD,5,6
222,1,object_01,object_07,538.30000001192,1,1,694.89999997616,0.6666666666666666,1,object_06,5,2340,0,6,2,desert_4,2,memory-2step-stake-s,726,2808619,0.0-19.0-0.1-0.222,A1IMO5XR05U7S5,32CXT5U15JJVAEXBU2XNZL8A76W8U1,3MRNMEIQW9M7U242SYL4JAMFZIYDLD,1,2
223,2,object_05,object_03,470.60000002384,4,1,1254.0,0.3333333333333333,2,object_08,5,2355,0,4,3,forest_8,2,memory-2step-stake-s,727,2817389,0.0-19.0-0.1-0.223,A1IMO5XR05U7S5,32CXT5U15JJVAEXBU2XNZL8A76W8U1,3MRNMEIQW9M7U242SYL4JAMFZIYDLD,4,3
224,3,object_02,object_04,607.60000002384,5,1,994.09999996424,0.1111111111111111,1,object_06,5,2360,0,1,1,library_5,2,memory-2step-stake-s,728,2825701,0.0-19.0-0.1-0.224,A1IMO5XR05U7S5,32CXT5U15JJVAEXBU2XNZL8A76W8U1,3MRNMEIQW9M7U242SYL4JAMFZIYDLD,5,6
225,1,object_01,object_07,574.5,1,1,583.0,0.1111111111111111,1,object_06,5,2365,0,1,2,desert_4,2,memory-2step-stake-s,729,2833597,0.0-19.0-0.1-0.225,A1IMO5XR05U7S5,32CXT5U15JJVAEXBU2XNZL8A76W8U1,3MRNMEIQW9M7U242SYL4JAMFZIYDLD,1,2
226,1,object_07,object_01,672.89999997616,1,2,436.5,0.0,1,object_06,5,2365,0,0,1,desert_6,2,memory-2step-stake-s,730,2841249,0.0-19.0-0.1-0.226,A1IMO5XR05U7S5,32CXT5U15JJVAEXBU2XNZL8A76W8U1,3MRNMEIQW9M7U242SYL4JAMFZIYDLD,2,1
227,2,object_03,object_05,411.80000001192,4,2,794.60000002384,0.2222222222222222,2,object_08,5,2375,0,1,2,forest_8,2,memory-2step-stake-s,731,2849456,0.0-19.0-0.1-0.227,A1IMO5XR05U7S5,32CXT5U15JJVAEXBU2XNZL8A76W8U1,3MRNMEIQW9M7U242SYL4JAMFZIYDLD,3,4
228,3,object_04,object_02,475.0,5,2,333.69999998808,0.0,1,object_06,5,2375,0,0,2,library_2,2,memory-2step-stake-s,732,2857003,0.0-19.0-0.1-0.228,A1IMO5XR05U7S5,32CXT5U15JJVAEXBU2XNZL8A76W8U1,3MRNMEIQW9M7U242SYL4JAMFZIYDLD,6,5
229,1,object_01,object_07,690.60000002384,2,2,553.30000001192,0.2222222222222222,2,object_08,5,2385,0,3,2,desert_8,2,memory-2step-stake-s,733,2864981,0.0-19.0-0.1-0.229,A1IMO5XR05U7S5,32CXT5U15JJVAEXBU2XNZL8A76W8U1,3MRNMEIQW9M7U242SYL4JAMFZIYDLD,1,2
230,4,object_10,object_09,598.59999996424,7,1,490.80000001192,0.7777777777777778,1,object_06,5,2420,0,7,3,restaurant_8,2,memory-2step-stake-s,734,2873396,0.0-19.0-0.1-0.230,A1IMO5XR05U7S5,32CXT5U15JJVAEXBU2XNZL8A76W8U1,3MRNMEIQW9M7U242SYL4JAMFZIYDLD,7,8
231,1,object_07,object_01,492.10000002384,2,1,297.0,0.3333333333333333,2,object_08,5,2435,0,7,3,desert_4,2,memory-2step-stake-s,735,2881218,0.0-19.0-0.1-0.231,A1IMO5XR05U7S5,32CXT5U15JJVAEXBU2XNZL8A76W8U1,3MRNMEIQW9M7U242SYL4JAMFZIYDLD,2,1
232,2,object_05,object_03,1238.1000000238,3,2,311.0,0.3333333333333333,1,object_06,5,2450,0,3,3,forest_8,2,memory-2step-stake-s,736,2889050,0.0-19.0-0.1-0.232,A1IMO5XR05U7S5,32CXT5U15JJVAEXBU2XNZL8A76W8U1,3MRNMEIQW9M7U242SYL4JAMFZIYDLD,4,3
233,2,object_03,object_05,543.10000002384,3,1,405.0,0.2222222222222222,1,object_06,5,2460,0,2,0,forest_3,2,memory-2step-stake-s,737,2896870,0.0-19.0-0.1-0.233,A1IMO5XR05U7S5,32CXT5U15JJVAEXBU2XNZL8A76W8U1,3MRNMEIQW9M7U242SYL4JAMFZIYDLD,3,4
234,4,object_09,object_10,860.89999997616,8,1,801.5,0.2222222222222222,2,object_08,1,2462,0,1,2,restaurant_3,2,memory-2step-stake-s,738,2905102,0.0-19.0-0.1-0.234,A1IMO5XR05U7S5,32CXT5U15JJVAEXBU2XNZL8A76W8U1,3MRNMEIQW9M7U242SYL4JAMFZIYDLD,8,7
235,4,object_10,object_09,927.09999996424,8,2,316.80000001192,0.1111111111111111,2,object_08,1,2463,0,2,1,restaurant_4,2,memory-2step-stake-s,739,2912745,0.0-19.0-0.1-0.235,A1IMO5XR05U7S5,32CXT5U15JJVAEXBU2XNZL8A76W8U1,3MRNMEIQW9M7U242SYL4JAMFZIYDLD,7,8
236,3,object_02,object_04,781.59999996424,5,1,427.39999997616,0.3333333333333333,1,object_06,5,2478,0,3,2,library_1,2,memory-2step-stake-s,740,2920690,0.0-19.0-0.1-0.236,A1IMO5XR05U7S5,32CXT5U15JJVAEXBU2XNZL8A76W8U1,3MRNMEIQW9M7U242SYL4JAMFZIYDLD,5,6
237,3,object_04,object_02,683.0,5,2,546.89999997616,0.0,1,object_06,1,2478,0,0,4,library_8,2,memory-2step-stake-s,741,2928453,0.0-19.0-0.1-0.237,A1IMO5XR05U7S5,32CXT5U15JJVAEXBU2XNZL8A76W8U1,3MRNMEIQW9M7U242SYL4JAMFZIYDLD,6,5
238,1,object_01,object_07,612.0,2,2,263.10000002384,0.5555555555555556,2,object_08,5,2503,0,1,5,desert_7,2,memory-2step-stake-s,742,2936435,0.0-19.0-0.1-0.238,A1IMO5XR05U7S5,32CXT5U15JJVAEXBU2XNZL8A76W8U1,3MRNMEIQW9M7U242SYL4JAMFZIYDLD,1,2
239,1,object_01,object_07,498.20000004768,2,2,4.3000000119209,0.2222222222222222,2,object_08,5,2513,0,0,2,desert_7,2,memory-2step-stake-s,743,2943855,0.0-19.0-0.1-0.239,A1IMO5XR05U7S5,32CXT5U15JJVAEXBU2XNZL8A76W8U1,3MRNMEIQW9M7U242SYL4JAMFZIYDLD,1,2
240,3,object_02,object_04,736.5,5,1,316.5,0.3333333333333333,1,object_06,1,2516,0,3,3,library_1,2,memory-2step-stake-s,744,2951704,0.0-19.0-0.1-0.240,A1IMO5XR05U7S5,32CXT5U15JJVAEXBU2XNZL8A76W8U1,3MRNMEIQW9M7U242SYL4JAMFZIYDLD,5,6
241,2,object_03,object_05,1221.9000000358,3,1,275.69999998808,0.2222222222222222,1,object_06,5,2526,0,2,5,forest_8,2,memory-2step-stake-s,745,2959399,0.0-19.0-0.1-0.241,A1IMO5XR05U7S5,32CXT5U15JJVAEXBU2XNZL8A76W8U1,3MRNMEIQW9M7U242SYL4JAMFZIYDLD,3,4
242,2,object_03,object_05,926.90000003576,4,2,77.199999988079,0.8888888888888888,2,object_08,5,2566,0,4,8,forest_8,2,memory-2step-stake-s,746,2967497,0.0-19.0-0.1-0.242,A1IMO5XR05U7S5,32CXT5U15JJVAEXBU2XNZL8A76W8U1,3MRNMEIQW9M7U242SYL4JAMFZIYDLD,3,4
243,4,object_10,object_09,1356.6000000238,8,2,985.0,0.7777777777777778,2,object_08,1,2573,0,4,7,restaurant_3,2,memory-2step-stake-s,747,2976414,0.0-19.0-0.1-0.243,A1IMO5XR05U7S5,32CXT5U15JJVAEXBU2XNZL8A76W8U1,3MRNMEIQW9M7U242SYL4JAMFZIYDLD,7,8
244,2,object_05,object_03,1055.0,4,1,915.79999995232,0.5555555555555556,2,object_08,5,2598,0,3,5,forest_1,2,memory-2step-stake-s,748,2985052,0.0-19.0-0.1-0.244,A1IMO5XR05U7S5,32CXT5U15JJVAEXBU2XNZL8A76W8U1,3MRNMEIQW9M7U242SYL4JAMFZIYDLD,4,3
245,1,object_01,object_07,1328.8999999762,1,1,201.20000004768,0.4444444444444444,1,object_06,5,2618,0,4,2,desert_6,2,memory-2step-stake-s,749,2992873,0.0-19.0-0.1-0.245,A1IMO5XR05U7S5,32CXT5U15JJVAEXBU2XNZL8A76W8U1,3MRNMEIQW9M7U242SYL4JAMFZIYDLD,1,2
246,2,object_05,object_03,934.90000003576,4,1,548.5,0.1111111111111111,2,object_08,5,2623,0,2,1,forest_1,2,memory-2step-stake-s,750,3000752,0.0-19.0-0.1-0.246,A1IMO5XR05U7S5,32CXT5U15JJVAEXBU2XNZL8A76W8U1,3MRNMEIQW9M7U242SYL4JAMFZIYDLD,4,3
247,4,object_09,object_10,-1.0,-1,-1,-1.0,0.0,-,0,1,2623,0,2,0,restaurant_8,2,memory-2step-stake-s,751,3007259,0.0-19.0-0.1-0.247,A1IMO5XR05U7S5,32CXT5U15JJVAEXBU2XNZL8A76W8U1,3MRNMEIQW9M7U242SYL4JAMFZIYDLD,8,7
248,2,object_03,object_05,554.80000001192,4,2,1183.5,0.3333333333333333,2,object_08,1,2626,0,1,3,forest_7,2,memory-2step-stake-s,752,3015972,0.0-19.0-0.1-0.248,A1IMO5XR05U7S5,32CXT5U15JJVAEXBU2XNZL8A76W8U1,3MRNMEIQW9M7U242SYL4JAMFZIYDLD,3,4
249,4,object_09,object_10,711.89999997616,8,1,95.699999988079,0.3333333333333333,2,object_08,5,2641,0,1,3,restaurant_3,2,memory-2step-stake-s,753,3023599,0.0-19.0-0.1-0.249,A1IMO5XR05U7S5,32CXT5U15JJVAEXBU2XNZL8A76W8U1,3MRNMEIQW9M7U242SYL4JAMFZIYDLD,8,7
250,3,object_04,object_02,865.80000001192,5,2,-1.0,0.0,1,object_06,1,2641,0,4,4,library_2,2,memory-2step-stake-s,754,3032116,0.0-19.0-0.1-0.250,A1IMO5XR05U7S5,32CXT5U15JJVAEXBU2XNZL8A76W8U1,3MRNMEIQW9M7U242SYL4JAMFZIYDLD,6,5
251,3,object_02,object_04,629.10000002384,5,1,-1.0,0.0,1,object_06,1,2641,0,2,4,library_5,2,memory-2step-stake-s,755,3040649,0.0-19.0-0.1-0.251,A1IMO5XR05U7S5,32CXT5U15JJVAEXBU2XNZL8A76W8U1,3MRNMEIQW9M7U242SYL4JAMFZIYDLD,5,6
252,2,object_03,object_05,940.80000001192,4,2,485.89999997616,0.4444444444444444,2,object_08,5,2661,0,1,4,forest_7,2,memory-2step-stake-s,756,3048751,0.0-19.0-0.1-0.252,A1IMO5XR05U7S5,32CXT5U15JJVAEXBU2XNZL8A76W8U1,3MRNMEIQW9M7U242SYL4JAMFZIYDLD,3,4
253,1,object_01,object_07,982.40000003576,1,1,-1.0,0.0,1,object_06,5,2661,0,2,2,desert_4,2,memory-2step-stake-s,757,3057265,0.0-19.0-0.1-0.253,A1IMO5XR05U7S5,32CXT5U15JJVAEXBU2XNZL8A76W8U1,3MRNMEIQW9M7U242SYL4JAMFZIYDLD,1,2
254,1,object_07,object_01,1304.3000000119,1,2,1209.0,0.2222222222222222,1,object_06,5,2671,0,2,2,desert_7,2,memory-2step-stake-s,758,3065894,0.0-19.0-0.1-0.254,A1IMO5XR05U7S5,32CXT5U15JJVAEXBU2XNZL8A76W8U1,3MRNMEIQW9M7U242SYL4JAMFZIYDLD,2,1
255,4,object_09,object_10,-1.0,-1,-1,-1.0,0.0,-,0,1,2671,0,4,3,restaurant_5,2,memory-2step-stake-s,759,3072414,0.0-19.0-0.1-0.255,A1IMO5XR05U7S5,32CXT5U15JJVAEXBU2XNZL8A76W8U1,3MRNMEIQW9M7U242SYL4JAMFZIYDLD,8,7
