,state1,stim_left,stim_right,rt_1,choice1,response1,rt_2,points,state2,stim_state2,stake,score,practice,rews1,rews2,background,high_arm,trial_type,trial_index,time_elapsed,internal_node_id,subid,hitid,assignmentid,stim_left_num,stim_right_num
0,2,object_05,object_03,745.60000002384,3,1,-1.0,0.0,1,object_09,1,0,0,0,7,forest_6,2,memory-2step-stake-s,488,942112,0.0-19.0-0.0-0.0,A5C2W2YA7OHF8,3QX22DUVPRXA8IOFTTHB0PBO5I3MV1,3BDCF01OG1AASDZTOU8IWVWGH85LYY,3,4
1,4,object_07,object_06,1442.6999999881,7,1,786.0,0.1111111111111111,1,object_09,1,1,0,1,9,restaurant_2,2,memory-2step-stake-s,489,950222,0.0-19.0-0.0-0.1,A5C2W2YA7OHF8,3QX22DUVPRXA8IOFTTHB0PBO5I3MV1,3BDCF01OG1AASDZTOU8IWVWGH85LYY,7,8
2,3,object_01,object_02,1057.8000000119,5,1,849.80000001192,0.1111111111111111,1,object_09,5,6,0,1,6,library_7,2,memory-2step-stake-s,490,958396,0.0-19.0-0.0-0.2,A5C2W2YA7OHF8,3QX22DUVPRXA8IOFTTHB0PBO5I3MV1,3BDCF01OG1AASDZTOU8IWVWGH85LYY,5,6
3,1,object_10,object_08,1031.8999999762,1,1,-1.0,0.0,1,object_09,1,6,0,0,2,desert_4,2,memory-2step-stake-s,491,966927,0.0-19.0-0.0-0.3,A5C2W2YA7OHF8,3QX22DUVPRXA8IOFTTHB0PBO5I3MV1,3BDCF01OG1AASDZTOU8IWVWGH85LYY,1,2
4,4,object_07,object_06,906.79999995232,8,2,392.40000003576,0.2222222222222222,2,object_04,1,8,0,0,2,restaurant_2,2,memory-2step-stake-s,492,974755,0.0-19.0-0.0-0.4,A5C2W2YA7OHF8,3QX22DUVPRXA8IOFTTHB0PBO5I3MV1,3BDCF01OG1AASDZTOU8IWVWGH85LYY,7,8
5,3,object_02,object_01,910.30000001192,6,1,279.59999996424,0.1111111111111111,2,object_04,1,9,0,1,1,library_4,2,memory-2step-stake-s,493,982369,0.0-19.0-0.0-0.5,A5C2W2YA7OHF8,3QX22DUVPRXA8IOFTTHB0PBO5I3MV1,3BDCF01OG1AASDZTOU8IWVWGH85LYY,6,5
6,2,object_03,object_05,809.0,4,1,449.90000003576,0.0,2,object_04,5,9,0,1,0,forest_6,2,memory-2step-stake-s,494,990040,0.0-19.0-0.0-0.6,A5C2W2YA7OHF8,3QX22DUVPRXA8IOFTTHB0PBO5I3MV1,3BDCF01OG1AASDZTOU8IWVWGH85LYY,4,3
7,1,object_10,object_08,773.39999997616,2,2,479.5,0.3333333333333333,2,object_04,5,24,0,1,3,desert_3,2,memory-2step-stake-s,495,998048,0.0-19.0-0.0-0.7,A5C2W2YA7OHF8,3QX22DUVPRXA8IOFTTHB0PBO5I3MV1,3BDCF01OG1AASDZTOU8IWVWGH85LYY,1,2
8,3,object_01,object_02,1076.3000000119,6,2,292.09999996424,0.3333333333333333,2,object_04,1,27,0,3,3,library_7,2,memory-2step-stake-s,496,1005873,0.0-19.0-0.0-0.8,A5C2W2YA7OHF8,3QX22DUVPRXA8IOFTTHB0PBO5I3MV1,3BDCF01OG1AASDZTOU8IWVWGH85LYY,5,6
9,2,object_03,object_05,812.80000001192,3,2,340.09999996424,0.3333333333333333,1,object_09,5,42,0,3,3,forest_6,2,memory-2step-stake-s,497,1013741,0.0-19.0-0.0-0.9,A5C2W2YA7OHF8,3QX22DUVPRXA8IOFTTHB0PBO5I3MV1,3BDCF01OG1AASDZTOU8IWVWGH85LYY,4,3
10,3,object_02,object_01,781.30000001192,5,2,283.59999996424,0.4444444444444444,1,object_09,5,62,0,4,5,library_6,2,memory-2step-stake-s,498,1021661,0.0-19.0-0.0-0.10,A5C2W2YA7OHF8,3QX22DUVPRXA8IOFTTHB0PBO5I3MV1,3BDCF01OG1AASDZTOU8IWVWGH85LYY,6,5
11,2,object_03,object_05,573.19999998808,3,2,332.90000003576,0.5555555555555556,1,object_09,5,87,0,5,5,forest_4,2,memory-2step-stake-s,499,1029732,0.0-19.0-0.0-0.11,A5C2W2YA7OHF8,3QX22DUVPRXA8IOFTTHB0PBO5I3MV1,3BDCF01OG1AASDZTOU8IWVWGH85LYY,4,3
12,3,object_01,object_02,582.89999997616,5,1,295.80000001192,0.2222222222222222,1,object_09,1,89,0,2,4,library_2,2,memory-2step-stake-s,500,1037455,0.0-19.0-0.0-0.12,A5C2W2YA7OHF8,3QX22DUVPRXA8IOFTTHB0PBO5I3MV1,3BDCF01OG1AASDZTOU8IWVWGH85LYY,5,6
13,1,object_10,object_08,770.89999997616,2,2,588.0,0.0,2,object_04,5,89,0,1,0,desert_5,2,memory-2step-stake-s,501,1045266,0.0-19.0-0.0-0.13,A5C2W2YA7OHF8,3QX22DUVPRXA8IOFTTHB0PBO5I3MV1,3BDCF01OG1AASDZTOU8IWVWGH85LYY,1,2
14,1,object_08,object_10,784.69999998808,1,2,393.30000001192,0.2222222222222222,1,object_09,5,99,0,2,3,desert_5,2,memory-2step-stake-s,502,1053091,0.0-19.0-0.0-0.14,A5C2W2YA7OHF8,3QX22DUVPRXA8IOFTTHB0PBO5I3MV1,3BDCF01OG1AASDZTOU8IWVWGH85LYY,2,1
15,2,object_05,object_03,977.59999996424,3,1,410.10000002384,0.2222222222222222,1,object_09,5,109,0,2,2,forest_3,2,memory-2step-stake-s,503,1060939,0.0-19.0-0.0-0.15,A5C2W2YA7OHF8,3QX22DUVPRXA8IOFTTHB0PBO5I3MV1,3BDCF01OG1AASDZTOU8IWVWGH85LYY,3,4
16,1,object_08,object_10,943.39999997616,2,1,502.90000003576,0.1111111111111111,2,object_04,5,114,0,3,1,desert_5,2,memory-2step-stake-s,504,1068767,0.0-19.0-0.0-0.16,A5C2W2YA7OHF8,3QX22DUVPRXA8IOFTTHB0PBO5I3MV1,3BDCF01OG1AASDZTOU8IWVWGH85LYY,2,1
17,4,object_07,object_06,930.39999997616,8,2,587.19999998808,0.1111111111111111,2,object_04,5,119,0,2,1,restaurant_2,2,memory-2step-stake-s,505,1076681,0.0-19.0-0.0-0.17,A5C2W2YA7OHF8,3QX22DUVPRXA8IOFTTHB0PBO5I3MV1,3BDCF01OG1AASDZTOU8IWVWGH85LYY,7,8
18,3,object_02,object_01,665.69999998808,6,1,506.5,0.0,2,object_04,1,119,0,6,0,library_6,2,memory-2step-stake-s,506,1084408,0.0-19.0-0.0-0.18,A5C2W2YA7OHF8,3QX22DUVPRXA8IOFTTHB0PBO5I3MV1,3BDCF01OG1AASDZTOU8IWVWGH85LYY,6,5
19,1,object_08,object_10,691.39999997616,1,2,598.10000002384,0.8888888888888888,1,object_09,5,159,0,8,2,desert_3,2,memory-2step-stake-s,507,1093040,0.0-19.0-0.0-0.19,A5C2W2YA7OHF8,3QX22DUVPRXA8IOFTTHB0PBO5I3MV1,3BDCF01OG1AASDZTOU8IWVWGH85LYY,2,1
20,1,object_08,object_10,883.5,1,2,308.30000001192,0.5555555555555556,1,object_09,5,184,0,5,3,desert_1,2,memory-2step-stake-s,508,1101076,0.0-19.0-0.0-0.20,A5C2W2YA7OHF8,3QX22DUVPRXA8IOFTTHB0PBO5I3MV1,3BDCF01OG1AASDZTOU8IWVWGH85LYY,2,1
21,2,object_03,object_05,885.80000001192,3,2,380.60000002384,0.6666666666666666,1,object_09,5,214,0,6,2,forest_6,2,memory-2step-stake-s,509,1109291,0.0-19.0-0.0-0.21,A5C2W2YA7OHF8,3QX22DUVPRXA8IOFTTHB0PBO5I3MV1,3BDCF01OG1AASDZTOU8IWVWGH85LYY,4,3
22,1,object_10,object_08,792.80000001192,1,1,394.79999995232,0.5555555555555556,1,object_09,5,239,0,5,3,desert_5,2,memory-2step-stake-s,510,1117412,0.0-19.0-0.0-0.22,A5C2W2YA7OHF8,3QX22DUVPRXA8IOFTTHB0PBO5I3MV1,3BDCF01OG1AASDZTOU8IWVWGH85LYY,1,2
23,4,object_07,object_06,1101.6000000238,8,2,428.69999998808,0.5555555555555556,2,object_04,1,244,0,3,5,restaurant_1,2,memory-2step-stake-s,511,1125587,0.0-19.0-0.0-0.23,A5C2W2YA7OHF8,3QX22DUVPRXA8IOFTTHB0PBO5I3MV1,3BDCF01OG1AASDZTOU8IWVWGH85LYY,7,8
24,2,object_03,object_05,776.0,3,2,354.0,0.1111111111111111,1,object_09,5,249,0,1,5,forest_6,2,memory-2step-stake-s,512,1133262,0.0-19.0-0.0-0.24,A5C2W2YA7OHF8,3QX22DUVPRXA8IOFTTHB0PBO5I3MV1,3BDCF01OG1AASDZTOU8IWVWGH85LYY,4,3
25,2,object_03,object_05,563.19999998808,3,2,307.80000001192,0.0,1,object_09,5,249,0,0,5,forest_3,2,memory-2step-stake-s,513,1140798,0.0-19.0-0.0-0.25,A5C2W2YA7OHF8,3QX22DUVPRXA8IOFTTHB0PBO5I3MV1,3BDCF01OG1AASDZTOU8IWVWGH85LYY,4,3
26,4,object_06,object_07,933.69999998808,8,1,549.39999997616,0.2222222222222222,2,object_04,1,251,0,5,2,restaurant_7,2,memory-2step-stake-s,514,1148772,0.0-19.0-0.0-0.26,A5C2W2YA7OHF8,3QX22DUVPRXA8IOFTTHB0PBO5I3MV1,3BDCF01OG1AASDZTOU8IWVWGH85LYY,8,7
27,2,object_05,object_03,521.0,3,1,307.5,0.4444444444444444,1,object_09,1,255,0,4,1,forest_4,2,memory-2step-stake-s,515,1156706,0.0-19.0-0.0-0.27,A5C2W2YA7OHF8,3QX22DUVPRXA8IOFTTHB0PBO5I3MV1,3BDCF01OG1AASDZTOU8IWVWGH85LYY,3,4
28,4,object_07,object_06,1075.8000000119,8,2,533.69999998808,0.1111111111111111,2,object_04,5,260,0,5,1,restaurant_1,2,memory-2step-stake-s,516,1164559,0.0-19.0-0.0-0.28,A5C2W2YA7OHF8,3QX22DUVPRXA8IOFTTHB0PBO5I3MV1,3BDCF01OG1AASDZTOU8IWVWGH85LYY,7,8
29,1,object_08,object_10,824.19999998808,1,2,634.60000002384,0.5555555555555556,1,object_09,1,265,0,5,5,desert_4,2,memory-2step-stake-s,517,1172913,0.0-19.0-0.0-0.29,A5C2W2YA7OHF8,3QX22DUVPRXA8IOFTTHB0PBO5I3MV1,3BDCF01OG1AASDZTOU8IWVWGH85LYY,2,1
30,4,object_07,object_06,579.59999996424,7,1,374.5,0.5555555555555556,1,object_09,5,290,0,5,3,restaurant_2,2,memory-2step-stake-s,518,1181026,0.0-19.0-0.0-0.30,A5C2W2YA7OHF8,3QX22DUVPRXA8IOFTTHB0PBO5I3MV1,3BDCF01OG1AASDZTOU8IWVWGH85LYY,7,8
31,4,object_06,object_07,1092.1999999881,7,2,518.59999996424,0.6666666666666666,1,object_09,1,296,0,6,5,restaurant_2,2,memory-2step-stake-s,519,1189368,0.0-19.0-0.0-0.31,A5C2W2YA7OHF8,3QX22DUVPRXA8IOFTTHB0PBO5I3MV1,3BDCF01OG1AASDZTOU8IWVWGH85LYY,8,7
32,2,object_03,object_05,839.60000002384,3,2,1319.8000000119,0.2222222222222222,1,object_09,1,298,0,2,4,forest_3,2,memory-2step-stake-s,520,1198123,0.0-19.0-0.0-0.32,A5C2W2YA7OHF8,3QX22DUVPRXA8IOFTTHB0PBO5I3MV1,3BDCF01OG1AASDZTOU8IWVWGH85LYY,4,3
33,3,object_02,object_01,875.10000002384,5,2,349.5,0.2222222222222222,1,object_09,1,300,0,2,4,library_6,2,memory-2step-stake-s,521,1205890,0.0-19.0-0.0-0.33,A5C2W2YA7OHF8,3QX22DUVPRXA8IOFTTHB0PBO5I3MV1,3BDCF01OG1AASDZTOU8IWVWGH85LYY,6,5
34,3,object_02,object_01,849.29999995232,5,2,515.5,0.3333333333333333,1,object_09,1,303,0,3,1,library_4,2,memory-2step-stake-s,522,1213940,0.0-19.0-0.0-0.34,A5C2W2YA7OHF8,3QX22DUVPRXA8IOFTTHB0PBO5I3MV1,3BDCF01OG1AASDZTOU8IWVWGH85LYY,6,5
35,3,object_01,object_02,610.09999996424,5,1,444.59999996424,0.5555555555555556,1,object_09,5,328,0,5,1,library_6,2,memory-2step-stake-s,523,1222120,0.0-19.0-0.0-0.35,A5C2W2YA7OHF8,3QX22DUVPRXA8IOFTTHB0PBO5I3MV1,3BDCF01OG1AASDZTOU8IWVWGH85LYY,5,6
36,2,object_03,object_05,532.80000001192,3,2,311.59999996424,0.7777777777777778,1,object_09,1,335,0,7,1,forest_3,2,memory-2step-stake-s,524,1230372,0.0-19.0-0.0-0.36,A5C2W2YA7OHF8,3QX22DUVPRXA8IOFTTHB0PBO5I3MV1,3BDCF01OG1AASDZTOU8IWVWGH85LYY,4,3
37,3,object_02,object_01,522.0,5,2,564.5,0.8888888888888888,1,object_09,5,375,0,8,2,library_2,2,memory-2step-stake-s,525,1238970,0.0-19.0-0.0-0.37,A5C2W2YA7OHF8,3QX22DUVPRXA8IOFTTHB0PBO5I3MV1,3BDCF01OG1AASDZTOU8IWVWGH85LYY,6,5
38,1,object_10,object_08,605.39999997616,1,1,646.10000002384,0.6666666666666666,1,object_09,5,405,0,6,4,desert_3,2,memory-2step-stake-s,526,1247438,0.0-19.0-0.0-0.38,A5C2W2YA7OHF8,3QX22DUVPRXA8IOFTTHB0PBO5I3MV1,3BDCF01OG1AASDZTOU8IWVWGH85LYY,1,2
39,4,object_07,object_06,970.80000001192,7,1,466.39999997616,0.5555555555555556,1,object_09,1,410,0,5,6,restaurant_3,2,memory-2step-stake-s,527,1255635,0.0-19.0-0.0-0.39,A5C2W2YA7OHF8,3QX22DUVPRXA8IOFTTHB0PBO5I3MV1,3BDCF01OG1AASDZTOU8IWVWGH85LYY,7,8
40,4,object_06,object_07,955.20000004768,7,2,351.39999997616,0.4444444444444444,1,object_09,5,430,0,4,5,restaurant_2,2,memory-2step-stake-s,528,1263610,0.0-19.0-0.0-0.40,A5C2W2YA7OHF8,3QX22DUVPRXA8IOFTTHB0PBO5I3MV1,3BDCF01OG1AASDZTOU8IWVWGH85LYY,8,7
41,1,object_08,object_10,586.29999995232,1,2,364.70000004768,0.3333333333333333,1,object_09,5,445,0,3,3,desert_1,2,memory-2step-stake-s,529,1271496,0.0-19.0-0.0-0.41,A5C2W2YA7OHF8,3QX22DUVPRXA8IOFTTHB0PBO5I3MV1,3BDCF01OG1AASDZTOU8IWVWGH85LYY,2,1
42,3,object_02,object_01,726.40000003576,5,2,376.59999996424,0.5555555555555556,1,object_09,1,450,0,5,8,library_4,2,memory-2step-stake-s,530,1279595,0.0-19.0-0.0-0.42,A5C2W2YA7OHF8,3QX22DUVPRXA8IOFTTHB0PBO5I3MV1,3BDCF01OG1AASDZTOU8IWVWGH85LYY,6,5
43,1,object_10,object_08,537.0,1,1,338.59999996424,0.7777777777777778,1,object_09,5,485,0,7,7,desert_4,2,memory-2step-stake-s,531,1287861,0.0-19.0-0.0-0.43,A5C2W2YA7OHF8,3QX22DUVPRXA8IOFTTHB0PBO5I3MV1,3BDCF01OG1AASDZTOU8IWVWGH85LYY,1,2
44,4,object_07,object_06,974.30000001192,7,1,447.30000001192,0.7777777777777778,1,object_09,1,492,0,7,6,restaurant_3,2,memory-2step-stake-s,532,1296227,0.0-19.0-0.0-0.44,A5C2W2YA7OHF8,3QX22DUVPRXA8IOFTTHB0PBO5I3MV1,3BDCF01OG1AASDZTOU8IWVWGH85LYY,7,8
45,2,object_05,object_03,569.0,3,1,305.89999997616,0.8888888888888888,1,object_09,5,532,0,8,7,forest_3,2,memory-2step-stake-s,533,1304563,0.0-19.0-0.0-0.45,A5C2W2YA7OHF8,3QX22DUVPRXA8IOFTTHB0PBO5I3MV1,3BDCF01OG1AASDZTOU8IWVWGH85LYY,3,4
46,1,object_08,object_10,680.19999998808,1,2,456.79999995232,1.0,1,object_09,1,541,0,9,7,desert_1,2,memory-2step-stake-s,534,1313156,0.0-19.0-0.0-0.46,A5C2W2YA7OHF8,3QX22DUVPRXA8IOFTTHB0PBO5I3MV1,3BDCF01OG1AASDZTOU8IWVWGH85LYY,2,1
47,2,object_05,object_03,545.5,3,1,331.60000002384,0.7777777777777778,1,object_09,5,576,0,7,7,forest_3,2,memory-2step-stake-s,535,1321429,0.0-19.0-0.0-0.47,A5C2W2YA7OHF8,3QX22DUVPRXA8IOFTTHB0PBO5I3MV1,3BDCF01OG1AASDZTOU8IWVWGH85LYY,3,4
48,2,object_05,object_03,626.69999998808,3,1,545.69999998808,0.5555555555555556,1,object_09,5,601,0,5,7,forest_6,2,memory-2step-stake-s,536,1329712,0.0-19.0-0.0-0.48,A5C2W2YA7OHF8,3QX22DUVPRXA8IOFTTHB0PBO5I3MV1,3BDCF01OG1AASDZTOU8IWVWGH85LYY,3,4
49,2,object_03,object_05,691.19999998808,3,2,428.5,0.6666666666666666,1,object_09,5,631,0,6,8,forest_4,2,memory-2step-stake-s,537,1337972,0.0-19.0-0.0-0.49,A5C2W2YA7OHF8,3QX22DUVPRXA8IOFTTHB0PBO5I3MV1,3BDCF01OG1AASDZTOU8IWVWGH85LYY,4,3
50,3,object_01,object_02,626.0,5,1,368.70000004768,0.4444444444444444,1,object_09,1,635,0,4,6,library_6,2,memory-2step-stake-s,538,1345965,0.0-19.0-0.0-0.50,A5C2W2YA7OHF8,3QX22DUVPRXA8IOFTTHB0PBO5I3MV1,3BDCF01OG1AASDZTOU8IWVWGH85LYY,5,6
51,4,object_07,object_06,902.80000001192,7,1,420.60000002384,0.7777777777777778,1,object_09,1,642,0,7,8,restaurant_3,2,memory-2step-stake-s,539,1354332,0.0-19.0-0.0-0.51,A5C2W2YA7OHF8,3QX22DUVPRXA8IOFTTHB0PBO5I3MV1,3BDCF01OG1AASDZTOU8IWVWGH85LYY,7,8
52,2,object_05,object_03,615.29999995232,3,1,1081.8000000119,0.7777777777777778,1,object_09,5,677,0,7,7,forest_2,2,memory-2step-stake-s,540,1363356,0.0-19.0-0.0-0.52,A5C2W2YA7OHF8,3QX22DUVPRXA8IOFTTHB0PBO5I3MV1,3BDCF01OG1AASDZTOU8IWVWGH85LYY,3,4
53,2,object_05,object_03,536.60000002384,3,1,297.30000001192,0.8888888888888888,1,object_09,5,717,0,8,6,forest_4,2,memory-2step-stake-s,541,1371685,0.0-19.0-0.0-0.53,A5C2W2YA7OHF8,3QX22DUVPRXA8IOFTTHB0PBO5I3MV1,3BDCF01OG1AASDZTOU8IWVWGH85LYY,3,4
54,1,object_08,object_10,699.69999998808,1,2,1405.0,1.0,1,object_09,5,762,0,9,4,desert_3,2,memory-2step-stake-s,542,1381236,0.0-19.0-0.0-0.54,A5C2W2YA7OHF8,3QX22DUVPRXA8IOFTTHB0PBO5I3MV1,3BDCF01OG1AASDZTOU8IWVWGH85LYY,2,1
55,3,object_01,object_02,616.90000003576,5,1,449.60000002384,0.5555555555555556,1,object_09,1,767,0,5,5,library_7,2,memory-2step-stake-s,543,1389415,0.0-19.0-0.0-0.55,A5C2W2YA7OHF8,3QX22DUVPRXA8IOFTTHB0PBO5I3MV1,3BDCF01OG1AASDZTOU8IWVWGH85LYY,5,6
56,4,object_06,object_07,772.19999998808,7,2,876.69999998808,0.5555555555555556,1,object_09,1,772,0,5,6,restaurant_3,2,memory-2step-stake-s,544,1398041,0.0-19.0-0.0-0.56,A5C2W2YA7OHF8,3QX22DUVPRXA8IOFTTHB0PBO5I3MV1,3BDCF01OG1AASDZTOU8IWVWGH85LYY,8,7
57,3,object_02,object_01,624.69999998808,5,2,538.69999998808,0.1111111111111111,1,object_09,1,773,0,1,7,library_6,2,memory-2step-stake-s,545,1405904,0.0-19.0-0.0-0.57,A5C2W2YA7OHF8,3QX22DUVPRXA8IOFTTHB0PBO5I3MV1,3BDCF01OG1AASDZTOU8IWVWGH85LYY,6,5
58,2,object_05,object_03,592.60000002384,3,1,345.59999996424,0.1111111111111111,1,object_09,5,778,0,1,3,forest_2,2,memory-2step-stake-s,546,1413573,0.0-19.0-0.0-0.58,A5C2W2YA7OHF8,3QX22DUVPRXA8IOFTTHB0PBO5I3MV1,3BDCF01OG1AASDZTOU8IWVWGH85LYY,3,4
59,2,object_05,object_03,538.30000001192,3,1,508.69999998808,0.0,1,object_09,5,778,0,0,0,forest_4,2,memory-2step-stake-s,547,1421295,0.0-19.0-0.0-0.59,A5C2W2YA7OHF8,3QX22DUVPRXA8IOFTTHB0PBO5I3MV1,3BDCF01OG1AASDZTOU8IWVWGH85LYY,3,4
60,3,object_02,object_01,674.19999998808,6,1,420.40000003576,0.1111111111111111,2,object_04,1,779,0,3,1,library_6,2,memory-2step-stake-s,548,1429030,0.0-19.0-0.0-0.60,A5C2W2YA7OHF8,3QX22DUVPRXA8IOFTTHB0PBO5I3MV1,3BDCF01OG1AASDZTOU8IWVWGH85LYY,6,5
61,3,object_02,object_01,825.0,6,1,288.59999996424,0.2222222222222222,2,object_04,1,781,0,9,2,library_7,2,memory-2step-stake-s,549,1436737,0.0-19.0-0.0-0.61,A5C2W2YA7OHF8,3QX22DUVPRXA8IOFTTHB0PBO5I3MV1,3BDCF01OG1AASDZTOU8IWVWGH85LYY,6,5
62,1,object_08,object_10,739.5,1,2,308.39999997616,0.6666666666666666,1,object_09,5,811,0,6,3,desert_5,2,memory-2step-stake-s,550,1444886,0.0-19.0-0.0-0.62,A5C2W2YA7OHF8,3QX22DUVPRXA8IOFTTHB0PBO5I3MV1,3BDCF01OG1AASDZTOU8IWVWGH85LYY,2,1
63,3,object_01,object_02,1111.3000000119,6,2,335.39999997616,0.5555555555555556,2,object_04,1,816,0,5,5,library_4,2,memory-2step-stake-s,551,1452965,0.0-19.0-0.0-0.63,A5C2W2YA7OHF8,3QX22DUVPRXA8IOFTTHB0PBO5I3MV1,3BDCF01OG1AASDZTOU8IWVWGH85LYY,5,6
64,2,object_03,object_05,873.30000001192,4,1,372.5,0.5555555555555556,2,object_04,1,821,0,6,5,forest_6,2,memory-2step-stake-s,552,1461060,0.0-19.0-0.0-0.64,A5C2W2YA7OHF8,3QX22DUVPRXA8IOFTTHB0PBO5I3MV1,3BDCF01OG1AASDZTOU8IWVWGH85LYY,4,3
65,4,object_07,object_06,717.59999996424,8,2,312.19999998808,0.5555555555555556,2,object_04,1,826,0,5,5,restaurant_7,2,memory-2step-stake-s,553,1469097,0.0-19.0-0.0-0.65,A5C2W2YA7OHF8,3QX22DUVPRXA8IOFTTHB0PBO5I3MV1,3BDCF01OG1AASDZTOU8IWVWGH85LYY,7,8
66,2,object_05,object_03,605.0,3,1,327.90000003576,0.4444444444444444,1,object_09,5,846,0,4,5,forest_4,2,memory-2step-stake-s,554,1477047,0.0-19.0-0.0-0.66,A5C2W2YA7OHF8,3QX22DUVPRXA8IOFTTHB0PBO5I3MV1,3BDCF01OG1AASDZTOU8IWVWGH85LYY,3,4
67,1,object_08,object_10,740.39999997616,1,2,606.20000004768,0.4444444444444444,1,object_09,5,866,0,4,4,desert_4,2,memory-2step-stake-s,555,1485287,0.0-19.0-0.0-0.67,A5C2W2YA7OHF8,3QX22DUVPRXA8IOFTTHB0PBO5I3MV1,3BDCF01OG1AASDZTOU8IWVWGH85LYY,2,1
68,2,object_05,object_03,853.80000001192,3,1,456.5,0.4444444444444444,1,object_09,1,870,0,4,0,forest_6,2,memory-2step-stake-s,556,1493365,0.0-19.0-0.0-0.68,A5C2W2YA7OHF8,3QX22DUVPRXA8IOFTTHB0PBO5I3MV1,3BDCF01OG1AASDZTOU8IWVWGH85LYY,3,4
69,2,object_05,object_03,712.0,4,2,425.30000001192,0.2222222222222222,2,object_04,1,872,0,2,2,forest_6,2,memory-2step-stake-s,557,1501215,0.0-19.0-0.0-0.69,A5C2W2YA7OHF8,3QX22DUVPRXA8IOFTTHB0PBO5I3MV1,3BDCF01OG1AASDZTOU8IWVWGH85LYY,3,4
70,2,object_05,object_03,568.90000003576,3,1,284.5,0.1111111111111111,1,object_09,5,877,0,1,3,forest_3,2,memory-2step-stake-s,558,1508818,0.0-19.0-0.0-0.70,A5C2W2YA7OHF8,3QX22DUVPRXA8IOFTTHB0PBO5I3MV1,3BDCF01OG1AASDZTOU8IWVWGH85LYY,3,4
71,1,object_10,object_08,601.89999997616,2,2,284.30000001192,0.1111111111111111,2,object_04,5,882,0,1,1,desert_1,2,memory-2step-stake-s,559,1516424,0.0-19.0-0.0-0.71,A5C2W2YA7OHF8,3QX22DUVPRXA8IOFTTHB0PBO5I3MV1,3BDCF01OG1AASDZTOU8IWVWGH85LYY,1,2
72,3,object_01,object_02,640.19999998808,5,1,290.40000003576,0.3333333333333333,1,object_09,5,897,0,3,2,library_6,2,memory-2step-stake-s,560,1524251,0.0-19.0-0.0-0.72,A5C2W2YA7OHF8,3QX22DUVPRXA8IOFTTHB0PBO5I3MV1,3BDCF01OG1AASDZTOU8IWVWGH85LYY,5,6
73,1,object_08,object_10,643.60000002384,1,2,275.40000003576,0.1111111111111111,1,object_09,5,902,0,1,1,desert_4,2,memory-2step-stake-s,561,1531846,0.0-19.0-0.0-0.73,A5C2W2YA7OHF8,3QX22DUVPRXA8IOFTTHB0PBO5I3MV1,3BDCF01OG1AASDZTOU8IWVWGH85LYY,2,1
74,4,object_07,object_06,817.20000004768,7,1,396.0,0.3333333333333333,1,object_09,1,905,0,3,2,restaurant_1,2,memory-2step-stake-s,562,1539773,0.0-19.0-0.0-0.74,A5C2W2YA7OHF8,3QX22DUVPRXA8IOFTTHB0PBO5I3MV1,3BDCF01OG1AASDZTOU8IWVWGH85LYY,7,8
75,1,object_08,object_10,574.60000002384,1,2,1040.8999999762,0.3333333333333333,1,object_09,1,908,0,3,2,desert_3,2,memory-2step-stake-s,563,1548338,0.0-19.0-0.0-0.75,A5C2W2YA7OHF8,3QX22DUVPRXA8IOFTTHB0PBO5I3MV1,3BDCF01OG1AASDZTOU8IWVWGH85LYY,2,1
76,3,object_01,object_02,706.0,5,1,401.69999998808,0.3333333333333333,1,object_09,5,923,0,3,2,library_4,2,memory-2step-stake-s,564,1556264,0.0-19.0-0.0-0.76,A5C2W2YA7OHF8,3QX22DUVPRXA8IOFTTHB0PBO5I3MV1,3BDCF01OG1AASDZTOU8IWVWGH85LYY,5,6
77,4,object_07,object_06,812.5,7,1,294.90000003576,0.1111111111111111,1,object_09,1,924,0,1,5,restaurant_1,2,memory-2step-stake-s,565,1563879,0.0-19.0-0.0-0.77,A5C2W2YA7OHF8,3QX22DUVPRXA8IOFTTHB0PBO5I3MV1,3BDCF01OG1AASDZTOU8IWVWGH85LYY,7,8
78,4,object_07,object_06,828.29999995232,7,1,286.69999998808,0.3333333333333333,1,object_09,1,927,0,3,5,restaurant_3,2,memory-2step-stake-s,566,1571688,0.0-19.0-0.0-0.78,A5C2W2YA7OHF8,3QX22DUVPRXA8IOFTTHB0PBO5I3MV1,3BDCF01OG1AASDZTOU8IWVWGH85LYY,7,8
79,3,object_01,object_02,701.20000004768,5,1,317.30000001192,0.5555555555555556,1,object_09,5,952,0,5,8,library_4,2,memory-2step-stake-s,567,1579745,0.0-19.0-0.0-0.79,A5C2W2YA7OHF8,3QX22DUVPRXA8IOFTTHB0PBO5I3MV1,3BDCF01OG1AASDZTOU8IWVWGH85LYY,5,6
80,4,object_06,object_07,637.69999998808,7,2,310.90000003576,0.8888888888888888,1,object_09,1,960,0,8,9,restaurant_7,2,memory-2step-stake-s,568,1588091,0.0-19.0-0.0-0.80,A5C2W2YA7OHF8,3QX22DUVPRXA8IOFTTHB0PBO5I3MV1,3BDCF01OG1AASDZTOU8IWVWGH85LYY,8,7
81,2,object_03,object_05,937.5,3,2,428.59999996424,1.0,1,object_09,5,1005,0,9,7,forest_2,2,memory-2step-stake-s,569,1596652,0.0-19.0-0.0-0.81,A5C2W2YA7OHF8,3QX22DUVPRXA8IOFTTHB0PBO5I3MV1,3BDCF01OG1AASDZTOU8IWVWGH85LYY,4,3
82,2,object_03,object_05,662.39999997616,3,2,352.0,0.8888888888888888,1,object_09,5,1045,0,8,7,forest_2,2,memory-2step-stake-s,570,1605039,0.0-19.0-0.0-0.82,A5C2W2YA7OHF8,3QX22DUVPRXA8IOFTTHB0PBO5I3MV1,3BDCF01OG1AASDZTOU8IWVWGH85LYY,4,3
83,3,object_01,object_02,588.89999997616,5,1,355.5,0.5555555555555556,1,object_09,1,1050,0,5,4,library_2,2,memory-2step-stake-s,571,1613124,0.0-19.0-0.0-0.83,A5C2W2YA7OHF8,3QX22DUVPRXA8IOFTTHB0PBO5I3MV1,3BDCF01OG1AASDZTOU8IWVWGH85LYY,5,6
84,2,object_05,object_03,708.5,3,1,295.5,0.4444444444444444,1,object_09,5,1070,0,4,7,forest_3,2,memory-2step-stake-s,572,1621050,0.0-19.0-0.0-0.84,A5C2W2YA7OHF8,3QX22DUVPRXA8IOFTTHB0PBO5I3MV1,3BDCF01OG1AASDZTOU8IWVWGH85LYY,3,4
85,2,object_03,object_05,674.59999996424,3,2,435.59999996424,0.2222222222222222,1,object_09,5,1080,0,2,5,forest_6,2,memory-2step-stake-s,573,1628909,0.0-19.0-0.0-0.85,A5C2W2YA7OHF8,3QX22DUVPRXA8IOFTTHB0PBO5I3MV1,3BDCF01OG1AASDZTOU8IWVWGH85LYY,4,3
86,1,object_08,object_10,1119.5,2,1,448.39999997616,0.7777777777777778,2,object_04,1,1087,0,4,7,desert_1,2,memory-2step-stake-s,574,1637288,0.0-19.0-0.0-0.86,A5C2W2YA7OHF8,3QX22DUVPRXA8IOFTTHB0PBO5I3MV1,3BDCF01OG1AASDZTOU8IWVWGH85LYY,2,1
87,1,object_10,object_08,852.69999998808,2,2,419.79999995232,0.7777777777777778,2,object_04,1,1094,0,4,7,desert_5,2,memory-2step-stake-s,575,1645637,0.0-19.0-0.0-0.87,A5C2W2YA7OHF8,3QX22DUVPRXA8IOFTTHB0PBO5I3MV1,3BDCF01OG1AASDZTOU8IWVWGH85LYY,1,2
88,3,object_02,object_01,639.5,5,2,336.59999996424,0.5555555555555556,1,object_09,5,1119,0,5,8,library_7,2,memory-2step-stake-s,576,1653699,0.0-19.0-0.0-0.88,A5C2W2YA7OHF8,3QX22DUVPRXA8IOFTTHB0PBO5I3MV1,3BDCF01OG1AASDZTOU8IWVWGH85LYY,6,5
89,1,object_08,object_10,586.80000001192,1,2,321.40000003576,0.3333333333333333,1,object_09,5,1134,0,3,6,desert_4,2,memory-2step-stake-s,577,1661546,0.0-19.0-0.0-0.89,A5C2W2YA7OHF8,3QX22DUVPRXA8IOFTTHB0PBO5I3MV1,3BDCF01OG1AASDZTOU8IWVWGH85LYY,2,1
90,3,object_02,object_01,609.69999998808,5,2,282.39999997616,0.5555555555555556,1,object_09,1,1139,0,5,6,library_4,2,memory-2step-stake-s,578,1669556,0.0-19.0-0.0-0.90,A5C2W2YA7OHF8,3QX22DUVPRXA8IOFTTHB0PBO5I3MV1,3BDCF01OG1AASDZTOU8IWVWGH85LYY,6,5
91,4,object_07,object_06,850.10000002384,7,1,399.39999997616,0.1111111111111111,1,object_09,1,1140,0,1,6,restaurant_7,2,memory-2step-stake-s,579,1677272,0.0-19.0-0.0-0.91,A5C2W2YA7OHF8,3QX22DUVPRXA8IOFTTHB0PBO5I3MV1,3BDCF01OG1AASDZTOU8IWVWGH85LYY,7,8
92,3,object_02,object_01,705.80000001192,6,1,371.69999998808,1.0,2,object_04,1,1149,0,0,9,library_7,2,memory-2step-stake-s,580,1685789,0.0-19.0-0.0-0.92,A5C2W2YA7OHF8,3QX22DUVPRXA8IOFTTHB0PBO5I3MV1,3BDCF01OG1AASDZTOU8IWVWGH85LYY,6,5
93,2,object_03,object_05,783.40000003576,4,1,311.10000002384,0.7777777777777778,2,object_04,5,1184,0,0,7,forest_3,2,memory-2step-stake-s,581,1694040,0.0-19.0-0.0-0.93,A5C2W2YA7OHF8,3QX22DUVPRXA8IOFTTHB0PBO5I3MV1,3BDCF01OG1AASDZTOU8IWVWGH85LYY,4,3
94,3,object_02,object_01,657.09999996424,5,2,234.09999996424,0.1111111111111111,1,object_09,1,1185,0,1,8,library_4,2,memory-2step-stake-s,582,1701598,0.0-19.0-0.0-0.94,A5C2W2YA7OHF8,3QX22DUVPRXA8IOFTTHB0PBO5I3MV1,3BDCF01OG1AASDZTOU8IWVWGH85LYY,6,5
95,4,object_07,object_06,795.69999998808,8,2,332.10000002384,0.7777777777777778,2,object_04,1,1192,0,1,7,restaurant_1,2,memory-2step-stake-s,583,1709864,0.0-19.0-0.0-0.95,A5C2W2YA7OHF8,3QX22DUVPRXA8IOFTTHB0PBO5I3MV1,3BDCF01OG1AASDZTOU8IWVWGH85LYY,7,8
96,4,object_06,object_07,1390.1000000238,7,2,616.80000001192,0.3333333333333333,1,object_09,1,1195,0,3,8,restaurant_2,2,memory-2step-stake-s,584,1718020,0.0-19.0-0.0-0.96,A5C2W2YA7OHF8,3QX22DUVPRXA8IOFTTHB0PBO5I3MV1,3BDCF01OG1AASDZTOU8IWVWGH85LYY,8,7
97,3,object_01,object_02,715.69999998808,5,1,318.30000001192,0.5555555555555556,1,object_09,1,1200,0,5,8,library_4,2,memory-2step-stake-s,585,1726059,0.0-19.0-0.0-0.97,A5C2W2YA7OHF8,3QX22DUVPRXA8IOFTTHB0PBO5I3MV1,3BDCF01OG1AASDZTOU8IWVWGH85LYY,5,6
98,2,object_05,object_03,820.90000003576,3,1,768.10000002384,0.8888888888888888,1,object_09,1,1208,0,8,6,forest_6,2,memory-2step-stake-s,586,1734851,0.0-19.0-0.0-0.98,A5C2W2YA7OHF8,3QX22DUVPRXA8IOFTTHB0PBO5I3MV1,3BDCF01OG1AASDZTOU8IWVWGH85LYY,3,4
99,4,object_06,object_07,842.80000001192,7,2,349.20000004768,0.7777777777777778,1,object_09,5,1243,0,7,7,restaurant_1,2,memory-2step-stake-s,587,1743127,0.0-19.0-0.0-0.99,A5C2W2YA7OHF8,3QX22DUVPRXA8IOFTTHB0PBO5I3MV1,3BDCF01OG1AASDZTOU8IWVWGH85LYY,8,7
100,4,object_07,object_06,760.10000002384,8,2,274.0,0.4444444444444444,2,object_04,1,1247,0,8,4,restaurant_3,2,memory-2step-stake-s,588,1751022,0.0-19.0-0.0-0.100,A5C2W2YA7OHF8,3QX22DUVPRXA8IOFTTHB0PBO5I3MV1,3BDCF01OG1AASDZTOU8IWVWGH85LYY,7,8
101,4,object_06,object_07,1465.1000000238,8,1,450.90000003576,0.4444444444444444,2,object_04,1,1251,0,5,4,restaurant_7,2,memory-2step-stake-s,589,1759096,0.0-19.0-0.0-0.101,A5C2W2YA7OHF8,3QX22DUVPRXA8IOFTTHB0PBO5I3MV1,3BDCF01OG1AASDZTOU8IWVWGH85LYY,8,7
102,2,object_05,object_03,591.40000003576,3,1,289.69999998808,0.5555555555555556,1,object_09,5,1276,0,5,7,forest_6,2,memory-2step-stake-s,590,1767118,0.0-19.0-0.0-0.102,A5C2W2YA7OHF8,3QX22DUVPRXA8IOFTTHB0PBO5I3MV1,3BDCF01OG1AASDZTOU8IWVWGH85LYY,3,4
103,2,object_03,object_05,679.80000001192,3,2,595.89999997616,0.6666666666666666,1,object_09,1,1282,0,6,9,forest_4,2,memory-2step-stake-s,591,1775538,0.0-19.0-0.0-0.103,A5C2W2YA7OHF8,3QX22DUVPRXA8IOFTTHB0PBO5I3MV1,3BDCF01OG1AASDZTOU8IWVWGH85LYY,4,3
104,2,object_03,object_05,1249.1000000238,4,1,268.60000002384,1.0,2,object_04,1,1291,0,8,9,forest_4,2,memory-2step-stake-s,592,1783938,0.0-19.0-0.0-0.104,A5C2W2YA7OHF8,3QX22DUVPRXA8IOFTTHB0PBO5I3MV1,3BDCF01OG1AASDZTOU8IWVWGH85LYY,4,3
105,3,object_01,object_02,652.19999998808,6,2,341.30000001192,1.0,2,object_04,1,1300,0,8,9,library_7,2,memory-2step-stake-s,593,1792408,0.0-19.0-0.0-0.105,A5C2W2YA7OHF8,3QX22DUVPRXA8IOFTTHB0PBO5I3MV1,3BDCF01OG1AASDZTOU8IWVWGH85LYY,5,6
106,2,object_05,object_03,1015.0,4,2,335.30000001192,0.5555555555555556,2,object_04,5,1325,0,7,5,forest_6,2,memory-2step-stake-s,594,1800475,0.0-19.0-0.0-0.106,A5C2W2YA7OHF8,3QX22DUVPRXA8IOFTTHB0PBO5I3MV1,3BDCF01OG1AASDZTOU8IWVWGH85LYY,3,4
107,2,object_03,object_05,940.19999998808,4,1,287.0,0.6666666666666666,2,object_04,5,1355,0,8,6,forest_4,2,memory-2step-stake-s,595,1808584,0.0-19.0-0.0-0.107,A5C2W2YA7OHF8,3QX22DUVPRXA8IOFTTHB0PBO5I3MV1,3BDCF01OG1AASDZTOU8IWVWGH85LYY,4,3
108,2,object_03,object_05,726.0,4,1,392.60000002384,0.7777777777777778,2,object_04,5,1390,0,8,7,forest_4,2,memory-2step-stake-s,596,1816902,0.0-19.0-0.0-0.108,A5C2W2YA7OHF8,3QX22DUVPRXA8IOFTTHB0PBO5I3MV1,3BDCF01OG1AASDZTOU8IWVWGH85LYY,4,3
109,3,object_02,object_01,728.59999996424,6,1,362.30000001192,1.0,2,object_04,5,1435,0,9,9,library_2,2,memory-2step-stake-s,597,1825393,0.0-19.0-0.0-0.109,A5C2W2YA7OHF8,3QX22DUVPRXA8IOFTTHB0PBO5I3MV1,3BDCF01OG1AASDZTOU8IWVWGH85LYY,6,5
110,2,object_05,object_03,1030.0,3,1,445.5,0.8888888888888888,1,object_09,1,1443,0,8,8,forest_3,2,memory-2step-stake-s,598,1833866,0.0-19.0-0.0-0.110,A5C2W2YA7OHF8,3QX22DUVPRXA8IOFTTHB0PBO5I3MV1,3BDCF01OG1AASDZTOU8IWVWGH85LYY,3,4
111,2,object_03,object_05,661.5,3,2,497.19999998808,0.6666666666666666,1,object_09,5,1473,0,6,8,forest_2,2,memory-2step-stake-s,599,1842191,0.0-19.0-0.0-0.111,A5C2W2YA7OHF8,3QX22DUVPRXA8IOFTTHB0PBO5I3MV1,3BDCF01OG1AASDZTOU8IWVWGH85LYY,4,3
112,4,object_07,object_06,870.70000004768,8,2,410.29999995232,0.7777777777777778,2,object_04,1,1480,0,9,7,restaurant_7,2,memory-2step-stake-s,600,1850557,0.0-19.0-0.0-0.112,A5C2W2YA7OHF8,3QX22DUVPRXA8IOFTTHB0PBO5I3MV1,3BDCF01OG1AASDZTOU8IWVWGH85LYY,7,8
113,3,object_01,object_02,746.60000002384,6,2,332.40000003576,0.8888888888888888,2,object_04,1,1488,0,9,8,library_7,2,memory-2step-stake-s,601,1858936,0.0-19.0-0.0-0.113,A5C2W2YA7OHF8,3QX22DUVPRXA8IOFTTHB0PBO5I3MV1,3BDCF01OG1AASDZTOU8IWVWGH85LYY,5,6
114,1,object_08,object_10,908.89999997616,2,1,486.80000001192,0.8888888888888888,2,object_04,5,1528,0,4,8,desert_5,2,memory-2step-stake-s,602,1867456,0.0-19.0-0.0-0.114,A5C2W2YA7OHF8,3QX22DUVPRXA8IOFTTHB0PBO5I3MV1,3BDCF01OG1AASDZTOU8IWVWGH85LYY,2,1
115,1,object_10,object_08,965.30000001192,2,2,423.09999996424,0.7777777777777778,2,object_04,5,1563,0,4,7,desert_3,2,memory-2step-stake-s,603,1875808,0.0-19.0-0.0-0.115,A5C2W2YA7OHF8,3QX22DUVPRXA8IOFTTHB0PBO5I3MV1,3BDCF01OG1AASDZTOU8IWVWGH85LYY,1,2
116,3,object_01,object_02,1240.8000000119,5,1,-1.0,0.0,1,object_09,1,1563,0,4,6,library_6,2,memory-2step-stake-s,604,1884324,0.0-19.0-0.0-0.116,A5C2W2YA7OHF8,3QX22DUVPRXA8IOFTTHB0PBO5I3MV1,3BDCF01OG1AASDZTOU8IWVWGH85LYY,5,6
117,4,object_06,object_07,679.5,7,2,162.39999997616,0.2222222222222222,1,object_09,1,1565,0,2,6,restaurant_7,2,memory-2step-stake-s,605,1891909,0.0-19.0-0.0-0.117,A5C2W2YA7OHF8,3QX22DUVPRXA8IOFTTHB0PBO5I3MV1,3BDCF01OG1AASDZTOU8IWVWGH85LYY,8,7
118,1,object_10,object_08,1137.3000000119,2,2,304.59999996424,0.0,2,object_04,5,1565,0,4,0,desert_5,2,memory-2step-stake-s,606,1899442,0.0-19.0-0.0-0.118,A5C2W2YA7OHF8,3QX22DUVPRXA8IOFTTHB0PBO5I3MV1,3BDCF01OG1AASDZTOU8IWVWGH85LYY,1,2
119,3,object_02,object_01,752.5,5,2,266.80000001192,0.5555555555555556,1,object_09,5,1590,0,5,0,library_2,2,memory-2step-stake-s,607,1907436,0.0-19.0-0.0-0.119,A5C2W2YA7OHF8,3QX22DUVPRXA8IOFTTHB0PBO5I3MV1,3BDCF01OG1AASDZTOU8IWVWGH85LYY,6,5
120,4,object_07,object_06,616.69999998808,7,1,466.5,0.5555555555555556,1,object_09,1,1595,0,5,0,restaurant_3,2,memory-2step-stake-s,608,1915627,0.0-19.0-0.0-0.120,A5C2W2YA7OHF8,3QX22DUVPRXA8IOFTTHB0PBO5I3MV1,3BDCF01OG1AASDZTOU8IWVWGH85LYY,7,8
121,2,object_05,object_03,567.80000001192,3,1,344.69999998808,0.5555555555555556,1,object_09,5,1620,0,5,0,forest_2,2,memory-2step-stake-s,609,1923714,0.0-19.0-0.0-0.121,A5C2W2YA7OHF8,3QX22DUVPRXA8IOFTTHB0PBO5I3MV1,3BDCF01OG1AASDZTOU8IWVWGH85LYY,3,4
122,2,object_05,object_03,650.90000003576,3,1,284.80000001192,0.7777777777777778,1,object_09,5,1655,0,7,5,forest_2,2,memory-2step-stake-s,610,1931933,0.0-19.0-0.0-0.122,A5C2W2YA7OHF8,3QX22DUVPRXA8IOFTTHB0PBO5I3MV1,3BDCF01OG1AASDZTOU8IWVWGH85LYY,3,4
123,1,object_08,object_10,703.30000001192,2,1,369.69999998808,0.2222222222222222,2,object_04,1,1657,0,2,2,desert_1,2,memory-2step-stake-s,611,1939726,0.0-19.0-0.0-0.123,A5C2W2YA7OHF8,3QX22DUVPRXA8IOFTTHB0PBO5I3MV1,3BDCF01OG1AASDZTOU8IWVWGH85LYY,2,1
124,2,object_05,object_03,541.0,3,1,350.69999998808,0.4444444444444444,1,object_09,5,1677,0,4,0,forest_2,2,memory-2step-stake-s,612,1947705,0.0-19.0-0.0-0.124,A5C2W2YA7OHF8,3QX22DUVPRXA8IOFTTHB0PBO5I3MV1,3BDCF01OG1AASDZTOU8IWVWGH85LYY,3,4
125,4,object_07,object_06,703.19999998808,7,1,311.60000002384,0.5555555555555556,1,object_09,5,1702,0,5,3,restaurant_7,2,memory-2step-stake-s,613,1955752,0.0-19.0-0.0-0.125,A5C2W2YA7OHF8,3QX22DUVPRXA8IOFTTHB0PBO5I3MV1,3BDCF01OG1AASDZTOU8IWVWGH85LYY,7,8
126,3,object_02,object_01,965.19999998808,6,1,350.5,0.1111111111111111,2,object_04,1,1703,0,6,1,library_4,2,memory-2step-stake-s,614,1963424,0.0-19.0-0.0-0.126,A5C2W2YA7OHF8,3QX22DUVPRXA8IOFTTHB0PBO5I3MV1,3BDCF01OG1AASDZTOU8IWVWGH85LYY,6,5
127,3,object_02,object_01,588.5,5,2,287.39999997616,0.8888888888888888,1,object_09,1,1711,0,8,1,library_2,2,memory-2step-stake-s,615,1971745,0.0-19.0-0.0-0.127,A5C2W2YA7OHF8,3QX22DUVPRXA8IOFTTHB0PBO5I3MV1,3BDCF01OG1AASDZTOU8IWVWGH85LYY,6,5
128,3,object_02,object_01,635.10000002384,5,2,389.30000001192,0.6666666666666666,1,object_09,5,1741,0,6,2,library_6,2,memory-2step-stake-s,617,2126826,0.0-19.0-0.1-0.128,A5C2W2YA7OHF8,3QX22DUVPRXA8IOFTTHB0PBO5I3MV1,3BDCF01OG1AASDZTOU8IWVWGH85LYY,6,5
129,4,object_06,object_07,749.80000001192,8,1,316.30000001192,0.4444444444444444,2,object_04,1,1745,0,7,4,restaurant_2,2,memory-2step-stake-s,618,2134766,0.0-19.0-0.1-0.129,A5C2W2YA7OHF8,3QX22DUVPRXA8IOFTTHB0PBO5I3MV1,3BDCF01OG1AASDZTOU8IWVWGH85LYY,8,7
130,3,object_02,object_01,833.69999998808,6,1,315.79999995232,0.3333333333333333,2,object_04,1,1748,0,4,3,library_2,2,memory-2step-stake-s,619,2142608,0.0-19.0-0.1-0.130,A5C2W2YA7OHF8,3QX22DUVPRXA8IOFTTHB0PBO5I3MV1,3BDCF01OG1AASDZTOU8IWVWGH85LYY,6,5
131,3,object_02,object_01,462.09999996424,5,2,281.5,0.5555555555555556,1,object_09,1,1753,0,5,2,library_4,2,memory-2step-stake-s,620,2150612,0.0-19.0-0.1-0.131,A5C2W2YA7OHF8,3QX22DUVPRXA8IOFTTHB0PBO5I3MV1,3BDCF01OG1AASDZTOU8IWVWGH85LYY,6,5
132,1,object_08,object_10,722.20000004768,1,2,307.29999995232,0.6666666666666666,1,object_09,5,1783,0,6,3,desert_4,2,memory-2step-stake-s,621,2158750,0.0-19.0-0.1-0.132,A5C2W2YA7OHF8,3QX22DUVPRXA8IOFTTHB0PBO5I3MV1,3BDCF01OG1AASDZTOU8IWVWGH85LYY,2,1
133,4,object_07,object_06,863.90000003576,7,1,345.80000001192,0.5555555555555556,1,object_09,1,1788,0,5,3,restaurant_3,2,memory-2step-stake-s,622,2166824,0.0-19.0-0.1-0.133,A5C2W2YA7OHF8,3QX22DUVPRXA8IOFTTHB0PBO5I3MV1,3BDCF01OG1AASDZTOU8IWVWGH85LYY,7,8
134,3,object_01,object_02,478.79999995232,5,1,320.5,0.3333333333333333,1,object_09,5,1803,0,3,6,library_7,2,memory-2step-stake-s,623,2174669,0.0-19.0-0.1-0.134,A5C2W2YA7OHF8,3QX22DUVPRXA8IOFTTHB0PBO5I3MV1,3BDCF01OG1AASDZTOU8IWVWGH85LYY,5,6
135,2,object_05,object_03,640.69999998808,3,1,372.0,0.5555555555555556,1,object_09,5,1828,0,5,6,forest_6,2,memory-2step-stake-s,624,2182777,0.0-19.0-0.1-0.135,A5C2W2YA7OHF8,3QX22DUVPRXA8IOFTTHB0PBO5I3MV1,3BDCF01OG1AASDZTOU8IWVWGH85LYY,3,4
136,4,object_07,object_06,692.20000004768,7,1,359.59999996424,0.7777777777777778,1,object_09,5,1863,0,7,8,restaurant_1,2,memory-2step-stake-s,625,2191080,0.0-19.0-0.1-0.136,A5C2W2YA7OHF8,3QX22DUVPRXA8IOFTTHB0PBO5I3MV1,3BDCF01OG1AASDZTOU8IWVWGH85LYY,7,8
137,4,object_07,object_06,1070.6999999881,7,1,389.39999997616,1.0,1,object_09,1,1872,0,9,6,restaurant_1,2,memory-2step-stake-s,626,2199615,0.0-19.0-0.1-0.137,A5C2W2YA7OHF8,3QX22DUVPRXA8IOFTTHB0PBO5I3MV1,3BDCF01OG1AASDZTOU8IWVWGH85LYY,7,8
138,2,object_05,object_03,616.80000001192,3,1,480.5,0.8888888888888888,1,object_09,5,1912,0,8,4,forest_4,2,memory-2step-stake-s,627,2208126,0.0-19.0-0.1-0.138,A5C2W2YA7OHF8,3QX22DUVPRXA8IOFTTHB0PBO5I3MV1,3BDCF01OG1AASDZTOU8IWVWGH85LYY,3,4
139,1,object_08,object_10,824.40000003576,1,2,416.60000002384,0.7777777777777778,1,object_09,1,1919,0,7,6,desert_3,2,memory-2step-stake-s,628,2216478,0.0-19.0-0.1-0.139,A5C2W2YA7OHF8,3QX22DUVPRXA8IOFTTHB0PBO5I3MV1,3BDCF01OG1AASDZTOU8IWVWGH85LYY,2,1
140,3,object_02,object_01,685.89999997616,5,2,342.10000002384,1.0,1,object_09,1,1928,0,9,7,library_6,2,memory-2step-stake-s,629,2224953,0.0-19.0-0.1-0.140,A5C2W2YA7OHF8,3QX22DUVPRXA8IOFTTHB0PBO5I3MV1,3BDCF01OG1AASDZTOU8IWVWGH85LYY,6,5
141,2,object_05,object_03,592.30000001192,3,1,403.30000001192,0.7777777777777778,1,object_09,1,1935,0,7,8,forest_2,2,memory-2step-stake-s,630,2233280,0.0-19.0-0.1-0.141,A5C2W2YA7OHF8,3QX22DUVPRXA8IOFTTHB0PBO5I3MV1,3BDCF01OG1AASDZTOU8IWVWGH85LYY,3,4
142,1,object_10,object_08,904.80000001192,1,1,537.80000001192,0.7777777777777778,1,object_09,5,1970,0,7,2,desert_5,2,memory-2step-stake-s,631,2241746,0.0-19.0-0.1-0.142,A5C2W2YA7OHF8,3QX22DUVPRXA8IOFTTHB0PBO5I3MV1,3BDCF01OG1AASDZTOU8IWVWGH85LYY,1,2
143,1,object_08,object_10,619.39999997616,1,2,701.0,0.8888888888888888,1,object_09,1,1978,0,8,8,desert_3,2,memory-2step-stake-s,632,2250487,0.0-19.0-0.1-0.143,A5C2W2YA7OHF8,3QX22DUVPRXA8IOFTTHB0PBO5I3MV1,3BDCF01OG1AASDZTOU8IWVWGH85LYY,2,1
144,1,object_08,object_10,582.90000003576,1,2,375.90000003576,0.7777777777777778,1,object_09,5,2013,0,7,9,desert_1,2,memory-2step-stake-s,633,2258794,0.0-19.0-0.1-0.144,A5C2W2YA7OHF8,3QX22DUVPRXA8IOFTTHB0PBO5I3MV1,3BDCF01OG1AASDZTOU8IWVWGH85LYY,2,1
145,4,object_06,object_07,735.10000002384,7,2,367.39999997616,0.5555555555555556,1,object_09,1,2018,0,5,6,restaurant_2,2,memory-2step-stake-s,634,2266898,0.0-19.0-0.1-0.145,A5C2W2YA7OHF8,3QX22DUVPRXA8IOFTTHB0PBO5I3MV1,3BDCF01OG1AASDZTOU8IWVWGH85LYY,8,7
146,1,object_08,object_10,689.80000001192,1,2,474.0,0.4444444444444444,1,object_09,5,2038,0,4,7,desert_3,2,memory-2step-stake-s,635,2275029,0.0-19.0-0.1-0.146,A5C2W2YA7OHF8,3QX22DUVPRXA8IOFTTHB0PBO5I3MV1,3BDCF01OG1AASDZTOU8IWVWGH85LYY,2,1
147,1,object_08,object_10,592.0,1,2,318.80000001192,0.5555555555555556,1,object_09,5,2063,0,5,8,desert_1,2,memory-2step-stake-s,636,2283079,0.0-19.0-0.1-0.147,A5C2W2YA7OHF8,3QX22DUVPRXA8IOFTTHB0PBO5I3MV1,3BDCF01OG1AASDZTOU8IWVWGH85LYY,2,1
148,4,object_07,object_06,694.30000001192,7,1,383.09999996424,0.3333333333333333,1,object_09,5,2078,0,3,7,restaurant_3,2,memory-2step-stake-s,637,2290997,0.0-19.0-0.1-0.148,A5C2W2YA7OHF8,3QX22DUVPRXA8IOFTTHB0PBO5I3MV1,3BDCF01OG1AASDZTOU8IWVWGH85LYY,7,8
149,2,object_05,object_03,608.59999996424,3,1,361.60000002384,0.4444444444444444,1,object_09,5,2098,0,4,8,forest_3,2,memory-2step-stake-s,638,2298983,0.0-19.0-0.1-0.149,A5C2W2YA7OHF8,3QX22DUVPRXA8IOFTTHB0PBO5I3MV1,3BDCF01OG1AASDZTOU8IWVWGH85LYY,3,4
150,2,object_03,object_05,612.70000004768,3,2,355.79999995232,0.4444444444444444,1,object_09,1,2102,0,4,9,forest_2,2,memory-2step-stake-s,639,2306968,0.0-19.0-0.1-0.150,A5C2W2YA7OHF8,3QX22DUVPRXA8IOFTTHB0PBO5I3MV1,3BDCF01OG1AASDZTOU8IWVWGH85LYY,4,3
151,3,object_01,object_02,653.69999998808,5,1,485.69999998808,0.2222222222222222,1,object_09,1,2104,0,2,8,library_4,2,memory-2step-stake-s,640,2314881,0.0-19.0-0.1-0.151,A5C2W2YA7OHF8,3QX22DUVPRXA8IOFTTHB0PBO5I3MV1,3BDCF01OG1AASDZTOU8IWVWGH85LYY,5,6
152,3,object_02,object_01,596.39999997616,5,2,315.90000003576,0.0,1,object_09,1,2104,0,0,7,library_7,2,memory-2step-stake-s,641,2322422,0.0-19.0-0.1-0.152,A5C2W2YA7OHF8,3QX22DUVPRXA8IOFTTHB0PBO5I3MV1,3BDCF01OG1AASDZTOU8IWVWGH85LYY,6,5
153,4,object_06,object_07,881.19999998808,8,1,337.0,0.7777777777777778,2,object_04,1,2111,0,2,7,restaurant_1,2,memory-2step-stake-s,642,2330690,0.0-19.0-0.1-0.153,A5C2W2YA7OHF8,3QX22DUVPRXA8IOFTTHB0PBO5I3MV1,3BDCF01OG1AASDZTOU8IWVWGH85LYY,8,7
154,2,object_03,object_05,712.70000004768,4,1,387.0,0.6666666666666666,2,object_04,5,2141,0,2,6,forest_2,2,memory-2step-stake-s,643,2338932,0.0-19.0-0.1-0.154,A5C2W2YA7OHF8,3QX22DUVPRXA8IOFTTHB0PBO5I3MV1,3BDCF01OG1AASDZTOU8IWVWGH85LYY,4,3
155,3,object_01,object_02,631.39999997616,6,2,287.10000002384,0.6666666666666666,2,object_04,1,2147,0,2,6,library_6,2,memory-2step-stake-s,644,2347057,0.0-19.0-0.1-0.155,A5C2W2YA7OHF8,3QX22DUVPRXA8IOFTTHB0PBO5I3MV1,3BDCF01OG1AASDZTOU8IWVWGH85LYY,5,6
156,1,object_08,object_10,788.89999997616,2,1,373.80000001192,0.7777777777777778,2,object_04,5,2182,0,3,7,desert_4,2,memory-2step-stake-s,645,2355363,0.0-19.0-0.1-0.156,A5C2W2YA7OHF8,3QX22DUVPRXA8IOFTTHB0PBO5I3MV1,3BDCF01OG1AASDZTOU8IWVWGH85LYY,2,1
157,3,object_02,object_01,667.10000002384,6,1,403.19999998808,0.7777777777777778,2,object_04,5,2217,0,3,7,library_2,2,memory-2step-stake-s,646,2363697,0.0-19.0-0.1-0.157,A5C2W2YA7OHF8,3QX22DUVPRXA8IOFTTHB0PBO5I3MV1,3BDCF01OG1AASDZTOU8IWVWGH85LYY,6,5
158,3,object_02,object_01,658.69999998808,6,1,329.60000002384,0.8888888888888888,2,object_04,1,2225,0,5,8,library_4,2,memory-2step-stake-s,647,2372063,0.0-19.0-0.1-0.158,A5C2W2YA7OHF8,3QX22DUVPRXA8IOFTTHB0PBO5I3MV1,3BDCF01OG1AASDZTOU8IWVWGH85LYY,6,5
159,1,object_10,object_08,903.80000001192,2,2,529.39999997616,0.8888888888888888,2,object_04,1,2233,0,7,8,desert_1,2,memory-2step-stake-s,648,2380626,0.0-19.0-0.1-0.159,A5C2W2YA7OHF8,3QX22DUVPRXA8IOFTTHB0PBO5I3MV1,3BDCF01OG1AASDZTOU8IWVWGH85LYY,1,2
160,3,object_02,object_01,971.69999998808,6,1,269.5,1.0,2,object_04,1,2242,0,7,9,library_2,2,memory-2step-stake-s,649,2389024,0.0-19.0-0.1-0.160,A5C2W2YA7OHF8,3QX22DUVPRXA8IOFTTHB0PBO5I3MV1,3BDCF01OG1AASDZTOU8IWVWGH85LYY,6,5
161,4,object_07,object_06,1191.0999999642,8,2,386.09999996424,0.8888888888888888,2,object_04,1,2250,0,8,8,restaurant_7,2,memory-2step-stake-s,650,2397436,0.0-19.0-0.1-0.161,A5C2W2YA7OHF8,3QX22DUVPRXA8IOFTTHB0PBO5I3MV1,3BDCF01OG1AASDZTOU8IWVWGH85LYY,7,8
162,2,object_05,object_03,651.60000002384,4,2,490.79999995232,0.8888888888888888,2,object_04,5,2290,0,8,8,forest_2,2,memory-2step-stake-s,651,2405959,0.0-19.0-0.1-0.162,A5C2W2YA7OHF8,3QX22DUVPRXA8IOFTTHB0PBO5I3MV1,3BDCF01OG1AASDZTOU8IWVWGH85LYY,3,4
163,2,object_03,object_05,600.19999998808,4,1,300.5,0.7777777777777778,2,object_04,5,2325,0,7,7,forest_6,2,memory-2step-stake-s,652,2414197,0.0-19.0-0.1-0.163,A5C2W2YA7OHF8,3QX22DUVPRXA8IOFTTHB0PBO5I3MV1,3BDCF01OG1AASDZTOU8IWVWGH85LYY,4,3
164,1,object_08,object_10,609.20000004768,2,1,403.39999997616,0.8888888888888888,2,object_04,5,2365,0,6,8,desert_1,2,memory-2step-stake-s,653,2422632,0.0-19.0-0.1-0.164,A5C2W2YA7OHF8,3QX22DUVPRXA8IOFTTHB0PBO5I3MV1,3BDCF01OG1AASDZTOU8IWVWGH85LYY,2,1
165,2,object_05,object_03,631.69999998808,4,2,472.0,0.4444444444444444,2,object_04,1,2369,0,5,4,forest_4,2,memory-2step-stake-s,654,2430726,0.0-19.0-0.1-0.165,A5C2W2YA7OHF8,3QX22DUVPRXA8IOFTTHB0PBO5I3MV1,3BDCF01OG1AASDZTOU8IWVWGH85LYY,3,4
166,1,object_10,object_08,802.89999997616,2,2,386.60000002384,0.2222222222222222,2,object_04,1,2371,0,7,2,desert_3,2,memory-2step-stake-s,655,2438535,0.0-19.0-0.1-0.166,A5C2W2YA7OHF8,3QX22DUVPRXA8IOFTTHB0PBO5I3MV1,3BDCF01OG1AASDZTOU8IWVWGH85LYY,1,2
167,3,object_02,object_01,568.60000002384,5,2,275.30000001192,0.8888888888888888,1,object_09,1,2379,0,8,3,library_6,2,memory-2step-stake-s,656,2446836,0.0-19.0-0.1-0.167,A5C2W2YA7OHF8,3QX22DUVPRXA8IOFTTHB0PBO5I3MV1,3BDCF01OG1AASDZTOU8IWVWGH85LYY,6,5
168,3,object_02,object_01,524.0,5,2,326.0,0.8888888888888888,1,object_09,1,2387,0,8,3,library_7,2,memory-2step-stake-s,657,2455189,0.0-19.0-0.1-0.168,A5C2W2YA7OHF8,3QX22DUVPRXA8IOFTTHB0PBO5I3MV1,3BDCF01OG1AASDZTOU8IWVWGH85LYY,6,5
169,4,object_06,object_07,975.80000001192,7,2,528.39999997616,0.8888888888888888,1,object_09,1,2395,0,8,1,restaurant_2,2,memory-2step-stake-s,658,2463761,0.0-19.0-0.1-0.169,A5C2W2YA7OHF8,3QX22DUVPRXA8IOFTTHB0PBO5I3MV1,3BDCF01OG1AASDZTOU8IWVWGH85LYY,8,7
170,4,object_06,object_07,620.60000002384,7,2,349.5,0.7777777777777778,1,object_09,1,2402,0,7,4,restaurant_3,2,memory-2step-stake-s,659,2472039,0.0-19.0-0.1-0.170,A5C2W2YA7OHF8,3QX22DUVPRXA8IOFTTHB0PBO5I3MV1,3BDCF01OG1AASDZTOU8IWVWGH85LYY,8,7
171,2,object_03,object_05,614.0,3,2,319.30000001192,0.6666666666666666,1,object_09,5,2432,0,6,6,forest_3,2,memory-2step-stake-s,660,2480188,0.0-19.0-0.1-0.171,A5C2W2YA7OHF8,3QX22DUVPRXA8IOFTTHB0PBO5I3MV1,3BDCF01OG1AASDZTOU8IWVWGH85LYY,4,3
172,4,object_06,object_07,642.70000004768,7,2,370.69999998808,0.1111111111111111,1,object_09,1,2433,0,1,8,restaurant_1,2,memory-2step-stake-s,661,2487878,0.0-19.0-0.1-0.172,A5C2W2YA7OHF8,3QX22DUVPRXA8IOFTTHB0PBO5I3MV1,3BDCF01OG1AASDZTOU8IWVWGH85LYY,8,7
173,4,object_06,object_07,595.69999998808,8,1,372.5,1.0,2,object_04,5,2478,0,2,9,restaurant_3,2,memory-2step-stake-s,662,2496391,0.0-19.0-0.1-0.173,A5C2W2YA7OHF8,3QX22DUVPRXA8IOFTTHB0PBO5I3MV1,3BDCF01OG1AASDZTOU8IWVWGH85LYY,8,7
174,1,object_10,object_08,704.59999996424,2,2,352.69999998808,0.4444444444444444,2,object_04,5,2498,0,3,4,desert_1,2,memory-2step-stake-s,663,2504383,0.0-19.0-0.1-0.174,A5C2W2YA7OHF8,3QX22DUVPRXA8IOFTTHB0PBO5I3MV1,3BDCF01OG1AASDZTOU8IWVWGH85LYY,1,2
175,4,object_06,object_07,941.69999998808,8,1,518.59999996424,0.4444444444444444,2,object_04,1,2502,0,4,4,restaurant_1,2,memory-2step-stake-s,664,2512542,0.0-19.0-0.1-0.175,A5C2W2YA7OHF8,3QX22DUVPRXA8IOFTTHB0PBO5I3MV1,3BDCF01OG1AASDZTOU8IWVWGH85LYY,8,7
176,1,object_08,object_10,672.5,1,2,553.39999997616,0.7777777777777778,1,object_09,1,2509,0,7,5,desert_5,2,memory-2step-stake-s,665,2521022,0.0-19.0-0.1-0.176,A5C2W2YA7OHF8,3QX22DUVPRXA8IOFTTHB0PBO5I3MV1,3BDCF01OG1AASDZTOU8IWVWGH85LYY,2,1
177,1,object_08,object_10,576.69999998808,1,2,370.10000002384,0.8888888888888888,1,object_09,5,2549,0,8,4,desert_3,2,memory-2step-stake-s,666,2529431,0.0-19.0-0.1-0.177,A5C2W2YA7OHF8,3QX22DUVPRXA8IOFTTHB0PBO5I3MV1,3BDCF01OG1AASDZTOU8IWVWGH85LYY,2,1
178,4,object_07,object_06,789.80000001192,7,1,600.90000003576,0.7777777777777778,1,object_09,5,2584,0,7,4,restaurant_7,2,memory-2step-stake-s,667,2537960,0.0-19.0-0.1-0.178,A5C2W2YA7OHF8,3QX22DUVPRXA8IOFTTHB0PBO5I3MV1,3BDCF01OG1AASDZTOU8IWVWGH85LYY,7,8
179,4,object_06,object_07,630.19999998808,7,2,575.10000002384,0.6666666666666666,1,object_09,1,2590,0,6,1,restaurant_3,2,memory-2step-stake-s,668,2546364,0.0-19.0-0.1-0.179,A5C2W2YA7OHF8,3QX22DUVPRXA8IOFTTHB0PBO5I3MV1,3BDCF01OG1AASDZTOU8IWVWGH85LYY,8,7
180,4,object_06,object_07,679.0,7,2,680.60000002384,0.6666666666666666,1,object_09,1,2596,0,6,1,restaurant_3,2,memory-2step-stake-s,669,2554875,0.0-19.0-0.1-0.180,A5C2W2YA7OHF8,3QX22DUVPRXA8IOFTTHB0PBO5I3MV1,3BDCF01OG1AASDZTOU8IWVWGH85LYY,8,7
181,1,object_10,object_08,960.80000001192,1,1,545.19999998808,0.4444444444444444,1,object_09,5,2616,0,4,1,desert_1,2,memory-2step-stake-s,670,2563062,0.0-19.0-0.1-0.181,A5C2W2YA7OHF8,3QX22DUVPRXA8IOFTTHB0PBO5I3MV1,3BDCF01OG1AASDZTOU8IWVWGH85LYY,1,2
182,1,object_08,object_10,633.40000003576,1,2,312.90000003576,0.0,1,object_09,5,2616,0,0,5,desert_5,2,memory-2step-stake-s,671,2570593,0.0-19.0-0.1-0.182,A5C2W2YA7OHF8,3QX22DUVPRXA8IOFTTHB0PBO5I3MV1,3BDCF01OG1AASDZTOU8IWVWGH85LYY,2,1
183,1,object_08,object_10,876.19999998808,2,1,648.30000001192,0.4444444444444444,2,object_04,1,2620,0,1,4,desert_5,2,memory-2step-stake-s,672,2578865,0.0-19.0-0.1-0.183,A5C2W2YA7OHF8,3QX22DUVPRXA8IOFTTHB0PBO5I3MV1,3BDCF01OG1AASDZTOU8IWVWGH85LYY,2,1
184,4,object_07,object_06,1196.8999999762,8,2,373.69999998808,0.6666666666666666,2,object_04,1,2626,0,3,6,restaurant_1,2,memory-2step-stake-s,673,2587064,0.0-19.0-0.1-0.184,A5C2W2YA7OHF8,3QX22DUVPRXA8IOFTTHB0PBO5I3MV1,3BDCF01OG1AASDZTOU8IWVWGH85LYY,7,8
185,2,object_03,object_05,628.09999996424,4,1,310.19999998808,0.3333333333333333,2,object_04,1,2629,0,2,3,forest_4,2,memory-2step-stake-s,674,2594898,0.0-19.0-0.1-0.185,A5C2W2YA7OHF8,3QX22DUVPRXA8IOFTTHB0PBO5I3MV1,3BDCF01OG1AASDZTOU8IWVWGH85LYY,4,3
186,4,object_07,object_06,590.5,8,2,366.60000002384,0.2222222222222222,2,object_04,1,2631,0,3,2,restaurant_7,2,memory-2step-stake-s,675,2602700,0.0-19.0-0.1-0.186,A5C2W2YA7OHF8,3QX22DUVPRXA8IOFTTHB0PBO5I3MV1,3BDCF01OG1AASDZTOU8IWVWGH85LYY,7,8
187,3,object_01,object_02,488.19999998808,5,1,346.19999998808,0.2222222222222222,1,object_09,5,2641,0,2,2,library_6,2,memory-2step-stake-s,676,2610487,0.0-19.0-0.1-0.187,A5C2W2YA7OHF8,3QX22DUVPRXA8IOFTTHB0PBO5I3MV1,3BDCF01OG1AASDZTOU8IWVWGH85LYY,5,6
188,3,object_02,object_01,478.69999998808,5,2,437.39999997616,0.1111111111111111,1,object_09,1,2642,0,1,0,library_7,2,memory-2step-stake-s,677,2618247,0.0-19.0-0.1-0.188,A5C2W2YA7OHF8,3QX22DUVPRXA8IOFTTHB0PBO5I3MV1,3BDCF01OG1AASDZTOU8IWVWGH85LYY,6,5
189,3,object_02,object_01,652.5,6,1,348.69999998808,0.0,2,object_04,1,2642,0,2,0,library_2,2,memory-2step-stake-s,678,2625818,0.0-19.0-0.1-0.189,A5C2W2YA7OHF8,3QX22DUVPRXA8IOFTTHB0PBO5I3MV1,3BDCF01OG1AASDZTOU8IWVWGH85LYY,6,5
190,1,object_10,object_08,909.59999996424,2,2,453.29999995232,0.4444444444444444,2,object_04,5,2662,0,0,4,desert_5,2,memory-2step-stake-s,679,2633897,0.0-19.0-0.1-0.190,A5C2W2YA7OHF8,3QX22DUVPRXA8IOFTTHB0PBO5I3MV1,3BDCF01OG1AASDZTOU8IWVWGH85LYY,1,2
191,1,object_10,object_08,801.29999995232,2,2,377.0,0.6666666666666666,2,object_04,5,2692,0,0,6,desert_3,2,memory-2step-stake-s,680,2642121,0.0-19.0-0.1-0.191,A5C2W2YA7OHF8,3QX22DUVPRXA8IOFTTHB0PBO5I3MV1,3BDCF01OG1AASDZTOU8IWVWGH85LYY,1,2
192,2,object_03,object_05,715.0,4,1,340.5,0.7777777777777778,2,object_04,1,2699,0,2,7,forest_4,2,memory-2step-stake-s,681,2650382,0.0-19.0-0.1-0.192,A5C2W2YA7OHF8,3QX22DUVPRXA8IOFTTHB0PBO5I3MV1,3BDCF01OG1AASDZTOU8IWVWGH85LYY,4,3
193,4,object_06,object_07,667.0,7,2,748.59999996424,0.6666666666666666,1,object_09,5,2729,0,6,8,restaurant_3,2,memory-2step-stake-s,682,2658963,0.0-19.0-0.1-0.193,A5C2W2YA7OHF8,3QX22DUVPRXA8IOFTTHB0PBO5I3MV1,3BDCF01OG1AASDZTOU8IWVWGH85LYY,8,7
194,3,object_02,object_01,708.29999995232,5,2,398.89999997616,0.8888888888888888,1,object_09,1,2737,0,8,9,library_7,2,memory-2step-stake-s,683,2667388,0.0-19.0-0.1-0.194,A5C2W2YA7OHF8,3QX22DUVPRXA8IOFTTHB0PBO5I3MV1,3BDCF01OG1AASDZTOU8IWVWGH85LYY,6,5
195,2,object_05,object_03,819.30000001192,3,1,327.59999996424,0.7777777777777778,1,object_09,5,2772,0,7,8,forest_2,2,memory-2step-stake-s,684,2675637,0.0-19.0-0.1-0.195,A5C2W2YA7OHF8,3QX22DUVPRXA8IOFTTHB0PBO5I3MV1,3BDCF01OG1AASDZTOU8IWVWGH85LYY,3,4
196,1,object_10,object_08,808.5,1,1,363.0,0.4444444444444444,1,object_09,5,2792,0,4,6,desert_5,2,memory-2step-stake-s,685,2683622,0.0-19.0-0.1-0.196,A5C2W2YA7OHF8,3QX22DUVPRXA8IOFTTHB0PBO5I3MV1,3BDCF01OG1AASDZTOU8IWVWGH85LYY,1,2
197,1,object_08,object_10,909.79999995232,1,2,399.89999997616,1.0,1,object_09,5,2837,0,9,5,desert_4,2,memory-2step-stake-s,686,2692152,0.0-19.0-0.1-0.197,A5C2W2YA7OHF8,3QX22DUVPRXA8IOFTTHB0PBO5I3MV1,3BDCF01OG1AASDZTOU8IWVWGH85LYY,2,1
198,3,object_01,object_02,697.69999998808,5,1,322.60000002384,0.8888888888888888,1,object_09,1,2845,0,8,2,library_7,2,memory-2step-stake-s,687,2700510,0.0-19.0-0.1-0.198,A5C2W2YA7OHF8,3QX22DUVPRXA8IOFTTHB0PBO5I3MV1,3BDCF01OG1AASDZTOU8IWVWGH85LYY,5,6
199,4,object_07,object_06,730.5,7,1,355.5,0.3333333333333333,1,object_09,1,2848,0,3,2,restaurant_7,2,memory-2step-stake-s,688,2708388,0.0-19.0-0.1-0.199,A5C2W2YA7OHF8,3QX22DUVPRXA8IOFTTHB0PBO5I3MV1,3BDCF01OG1AASDZTOU8IWVWGH85LYY,7,8
200,1,object_08,object_10,1130.1999999881,2,1,478.19999998808,0.3333333333333333,2,object_04,5,2863,0,4,3,desert_1,2,memory-2step-stake-s,689,2716385,0.0-19.0-0.1-0.200,A5C2W2YA7OHF8,3QX22DUVPRXA8IOFTTHB0PBO5I3MV1,3BDCF01OG1AASDZTOU8IWVWGH85LYY,2,1
201,1,object_10,object_08,896.10000002384,1,1,385.5,0.4444444444444444,1,object_09,1,2867,0,4,0,desert_3,2,memory-2step-stake-s,690,2724392,0.0-19.0-0.1-0.201,A5C2W2YA7OHF8,3QX22DUVPRXA8IOFTTHB0PBO5I3MV1,3BDCF01OG1AASDZTOU8IWVWGH85LYY,1,2
202,2,object_05,object_03,566.59999996424,3,1,536.69999998808,0.5555555555555556,1,object_09,1,2872,0,5,0,forest_3,2,memory-2step-stake-s,691,2732653,0.0-19.0-0.1-0.202,A5C2W2YA7OHF8,3QX22DUVPRXA8IOFTTHB0PBO5I3MV1,3BDCF01OG1AASDZTOU8IWVWGH85LYY,3,4
203,4,object_07,object_06,784.30000001192,7,1,376.89999997616,0.4444444444444444,1,object_09,1,2876,0,4,2,restaurant_7,2,memory-2step-stake-s,692,2740655,0.0-19.0-0.1-0.203,A5C2W2YA7OHF8,3QX22DUVPRXA8IOFTTHB0PBO5I3MV1,3BDCF01OG1AASDZTOU8IWVWGH85LYY,7,8
204,4,object_07,object_06,569.10000002384,7,1,531.5,0.1111111111111111,1,object_09,1,2877,0,1,0,restaurant_3,2,memory-2step-stake-s,693,2748502,0.0-19.0-0.1-0.204,A5C2W2YA7OHF8,3QX22DUVPRXA8IOFTTHB0PBO5I3MV1,3BDCF01OG1AASDZTOU8IWVWGH85LYY,7,8
205,2,object_05,object_03,535.80000001192,4,2,306.60000002384,0.5555555555555556,2,object_04,5,2902,0,3,5,forest_3,2,memory-2step-stake-s,694,2756532,0.0-19.0-0.1-0.205,A5C2W2YA7OHF8,3QX22DUVPRXA8IOFTTHB0PBO5I3MV1,3BDCF01OG1AASDZTOU8IWVWGH85LYY,3,4
206,3,object_01,object_02,1113.1999999881,6,2,348.69999998808,0.3333333333333333,2,object_04,1,2905,0,3,3,library_4,2,memory-2step-stake-s,695,2764401,0.0-19.0-0.1-0.206,A5C2W2YA7OHF8,3QX22DUVPRXA8IOFTTHB0PBO5I3MV1,3BDCF01OG1AASDZTOU8IWVWGH85LYY,5,6
207,1,object_10,object_08,913.19999998808,1,1,411.39999997616,0.1111111111111111,1,object_09,5,2910,0,1,6,desert_1,2,memory-2step-stake-s,696,2772144,0.0-19.0-0.1-0.207,A5C2W2YA7OHF8,3QX22DUVPRXA8IOFTTHB0PBO5I3MV1,3BDCF01OG1AASDZTOU8IWVWGH85LYY,1,2
208,1,object_10,object_08,648.60000002384,1,1,327.89999997616,0.2222222222222222,1,object_09,5,2920,0,2,5,desert_3,2,memory-2step-stake-s,697,2779892,0.0-19.0-0.1-0.208,A5C2W2YA7OHF8,3QX22DUVPRXA8IOFTTHB0PBO5I3MV1,3BDCF01OG1AASDZTOU8IWVWGH85LYY,1,2
209,3,object_02,object_01,538.40000003576,5,2,308.39999997616,0.0,1,object_09,5,2920,0,0,7,library_4,2,memory-2step-stake-s,698,2787429,0.0-19.0-0.1-0.209,A5C2W2YA7OHF8,3QX22DUVPRXA8IOFTTHB0PBO5I3MV1,3BDCF01OG1AASDZTOU8IWVWGH85LYY,6,5
210,2,object_03,object_05,523.5,4,1,286.30000001192,0.8888888888888888,2,object_04,5,2960,0,1,8,forest_2,2,memory-2step-stake-s,699,2795747,0.0-19.0-0.1-0.210,A5C2W2YA7OHF8,3QX22DUVPRXA8IOFTTHB0PBO5I3MV1,3BDCF01OG1AASDZTOU8IWVWGH85LYY,4,3
211,4,object_06,object_07,893.5,8,1,888.0,0.7777777777777778,2,object_04,1,2967,0,0,7,restaurant_1,2,memory-2step-stake-s,700,2804565,0.0-19.0-0.1-0.211,A5C2W2YA7OHF8,3QX22DUVPRXA8IOFTTHB0PBO5I3MV1,3BDCF01OG1AASDZTOU8IWVWGH85LYY,8,7
212,1,object_08,object_10,705.39999997616,2,1,341.29999995232,0.8888888888888888,2,object_04,5,3007,0,1,8,desert_5,2,memory-2step-stake-s,701,2812933,0.0-19.0-0.1-0.212,A5C2W2YA7OHF8,3QX22DUVPRXA8IOFTTHB0PBO5I3MV1,3BDCF01OG1AASDZTOU8IWVWGH85LYY,2,1
213,1,object_08,object_10,962.0,2,1,762.90000003576,0.7777777777777778,2,object_04,5,3042,0,2,7,desert_4,2,memory-2step-stake-s,702,2821640,0.0-19.0-0.1-0.213,A5C2W2YA7OHF8,3QX22DUVPRXA8IOFTTHB0PBO5I3MV1,3BDCF01OG1AASDZTOU8IWVWGH85LYY,2,1
214,4,object_07,object_06,902.19999998808,8,2,670.0,1.0,2,object_04,1,3051,0,1,9,restaurant_2,2,memory-2step-stake-s,703,2830451,0.0-19.0-0.1-0.214,A5C2W2YA7OHF8,3QX22DUVPRXA8IOFTTHB0PBO5I3MV1,3BDCF01OG1AASDZTOU8IWVWGH85LYY,7,8
215,2,object_05,object_03,557.19999998808,4,2,1474.6999999881,0.7777777777777778,2,object_04,5,3086,0,1,7,forest_3,2,memory-2step-stake-s,704,2839846,0.0-19.0-0.1-0.215,A5C2W2YA7OHF8,3QX22DUVPRXA8IOFTTHB0PBO5I3MV1,3BDCF01OG1AASDZTOU8IWVWGH85LYY,3,4
216,3,object_02,object_01,1000.6000000238,6,1,751.5,0.8888888888888888,2,object_04,1,3094,0,1,8,library_4,2,memory-2step-stake-s,705,2848634,0.0-19.0-0.1-0.216,A5C2W2YA7OHF8,3QX22DUVPRXA8IOFTTHB0PBO5I3MV1,3BDCF01OG1AASDZTOU8IWVWGH85LYY,6,5
217,1,object_10,object_08,813.89999997616,2,2,238.80000001192,0.8888888888888888,2,object_04,5,3134,0,1,8,desert_1,2,memory-2step-stake-s,706,2856908,0.0-19.0-0.1-0.217,A5C2W2YA7OHF8,3QX22DUVPRXA8IOFTTHB0PBO5I3MV1,3BDCF01OG1AASDZTOU8IWVWGH85LYY,1,2
218,4,object_07,object_06,1109.6000000238,8,2,359.19999998808,0.8888888888888888,2,object_04,1,3142,0,1,8,restaurant_2,2,memory-2step-stake-s,707,2865301,0.0-19.0-0.1-0.218,A5C2W2YA7OHF8,3QX22DUVPRXA8IOFTTHB0PBO5I3MV1,3BDCF01OG1AASDZTOU8IWVWGH85LYY,7,8
219,3,object_02,object_01,768.29999995232,6,1,369.90000003576,0.7777777777777778,2,object_04,1,3149,0,1,7,library_2,2,memory-2step-stake-s,708,2873600,0.0-19.0-0.1-0.219,A5C2W2YA7OHF8,3QX22DUVPRXA8IOFTTHB0PBO5I3MV1,3BDCF01OG1AASDZTOU8IWVWGH85LYY,6,5
220,2,object_05,object_03,716.30000001192,4,2,389.29999995232,0.8888888888888888,2,object_04,5,3189,0,2,8,forest_4,2,memory-2step-stake-s,709,2882053,0.0-19.0-0.1-0.220,A5C2W2YA7OHF8,3QX22DUVPRXA8IOFTTHB0PBO5I3MV1,3BDCF01OG1AASDZTOU8IWVWGH85LYY,3,4
221,1,object_08,object_10,608.29999995232,2,1,433.19999998808,0.4444444444444444,2,object_04,5,3209,0,1,4,desert_4,2,memory-2step-stake-s,710,2890117,0.0-19.0-0.1-0.221,A5C2W2YA7OHF8,3QX22DUVPRXA8IOFTTHB0PBO5I3MV1,3BDCF01OG1AASDZTOU8IWVWGH85LYY,2,1
222,3,object_01,object_02,743.10000002384,6,2,351.80000001192,0.6666666666666666,2,object_04,1,3215,0,1,6,library_2,2,memory-2step-stake-s,711,2898301,0.0-19.0-0.1-0.222,A5C2W2YA7OHF8,3QX22DUVPRXA8IOFTTHB0PBO5I3MV1,3BDCF01OG1AASDZTOU8IWVWGH85LYY,5,6
223,4,object_07,object_06,797.10000002384,8,2,326.90000003576,0.6666666666666666,2,object_04,1,3221,0,0,6,restaurant_1,2,memory-2step-stake-s,712,2906458,0.0-19.0-0.1-0.223,A5C2W2YA7OHF8,3QX22DUVPRXA8IOFTTHB0PBO5I3MV1,3BDCF01OG1AASDZTOU8IWVWGH85LYY,7,8
224,4,object_06,object_07,719.39999997616,8,1,314.0,0.8888888888888888,2,object_04,1,3229,0,1,8,restaurant_2,2,memory-2step-stake-s,713,2914805,0.0-19.0-0.1-0.224,A5C2W2YA7OHF8,3QX22DUVPRXA8IOFTTHB0PBO5I3MV1,3BDCF01OG1AASDZTOU8IWVWGH85LYY,8,7
225,4,object_07,object_06,922.69999998808,8,2,467.0,0.8888888888888888,2,object_04,1,3237,0,0,8,restaurant_1,2,memory-2step-stake-s,714,2923310,0.0-19.0-0.1-0.225,A5C2W2YA7OHF8,3QX22DUVPRXA8IOFTTHB0PBO5I3MV1,3BDCF01OG1AASDZTOU8IWVWGH85LYY,7,8
226,1,object_08,object_10,576.70000004768,2,1,360.69999998808,1.0,2,object_04,5,3282,0,1,9,desert_3,2,memory-2step-stake-s,715,2931800,0.0-19.0-0.1-0.226,A5C2W2YA7OHF8,3QX22DUVPRXA8IOFTTHB0PBO5I3MV1,3BDCF01OG1AASDZTOU8IWVWGH85LYY,2,1
227,1,object_10,object_08,944.90000003576,1,1,354.5,0.5555555555555556,1,object_09,1,3287,0,5,9,desert_4,2,memory-2step-stake-s,716,2939878,0.0-19.0-0.1-0.227,A5C2W2YA7OHF8,3QX22DUVPRXA8IOFTTHB0PBO5I3MV1,3BDCF01OG1AASDZTOU8IWVWGH85LYY,1,2
228,3,object_02,object_01,785.39999997616,6,1,304.80000001192,0.8888888888888888,2,object_04,1,3295,0,7,8,library_2,2,memory-2step-stake-s,717,2948241,0.0-19.0-0.1-0.228,A5C2W2YA7OHF8,3QX22DUVPRXA8IOFTTHB0PBO5I3MV1,3BDCF01OG1AASDZTOU8IWVWGH85LYY,6,5
229,4,object_07,object_06,567.59999996424,8,2,424.40000003576,1.0,2,object_04,1,3304,0,8,9,restaurant_7,2,memory-2step-stake-s,718,2956792,0.0-19.0-0.1-0.229,A5C2W2YA7OHF8,3QX22DUVPRXA8IOFTTHB0PBO5I3MV1,3BDCF01OG1AASDZTOU8IWVWGH85LYY,7,8
230,3,object_01,object_02,875.69999998808,6,2,390.10000002384,0.8888888888888888,2,object_04,1,3312,0,7,8,library_7,2,memory-2step-stake-s,719,2965221,0.0-19.0-0.1-0.230,A5C2W2YA7OHF8,3QX22DUVPRXA8IOFTTHB0PBO5I3MV1,3BDCF01OG1AASDZTOU8IWVWGH85LYY,5,6
231,4,object_06,object_07,555.90000003576,8,1,493.19999998808,0.6666666666666666,2,object_04,5,3342,0,8,6,restaurant_7,2,memory-2step-stake-s,720,2973547,0.0-19.0-0.1-0.231,A5C2W2YA7OHF8,3QX22DUVPRXA8IOFTTHB0PBO5I3MV1,3BDCF01OG1AASDZTOU8IWVWGH85LYY,8,7
232,3,object_01,object_02,628.19999998808,6,2,299.89999997616,0.4444444444444444,2,object_04,1,3346,0,5,4,library_7,2,memory-2step-stake-s,721,2981485,0.0-19.0-0.1-0.232,A5C2W2YA7OHF8,3QX22DUVPRXA8IOFTTHB0PBO5I3MV1,3BDCF01OG1AASDZTOU8IWVWGH85LYY,5,6
233,2,object_05,object_03,608.60000002384,3,1,331.30000001192,0.8888888888888888,1,object_09,5,3386,0,8,7,forest_4,2,memory-2step-stake-s,722,2989844,0.0-19.0-0.1-0.233,A5C2W2YA7OHF8,3QX22DUVPRXA8IOFTTHB0PBO5I3MV1,3BDCF01OG1AASDZTOU8IWVWGH85LYY,3,4
234,4,object_06,object_07,1123.6999999881,7,2,851.30000001192,0.6666666666666666,1,object_09,1,3392,0,6,8,restaurant_7,2,memory-2step-stake-s,723,2998522,0.0-19.0-0.1-0.234,A5C2W2YA7OHF8,3QX22DUVPRXA8IOFTTHB0PBO5I3MV1,3BDCF01OG1AASDZTOU8IWVWGH85LYY,8,7
235,4,object_06,object_07,620.70000004768,7,2,397.5,0.6666666666666666,1,object_09,1,3398,0,6,7,restaurant_2,2,memory-2step-stake-s,724,3006771,0.0-19.0-0.1-0.235,A5C2W2YA7OHF8,3QX22DUVPRXA8IOFTTHB0PBO5I3MV1,3BDCF01OG1AASDZTOU8IWVWGH85LYY,8,7
236,3,object_01,object_02,666.89999997616,5,1,347.19999998808,0.5555555555555556,1,object_09,1,3403,0,5,3,library_6,2,memory-2step-stake-s,725,3014843,0.0-19.0-0.1-0.236,A5C2W2YA7OHF8,3QX22DUVPRXA8IOFTTHB0PBO5I3MV1,3BDCF01OG1AASDZTOU8IWVWGH85LYY,5,6
237,2,object_03,object_05,588.10000002384,3,2,366.29999995232,0.1111111111111111,1,object_09,5,3408,0,1,6,forest_2,2,memory-2step-stake-s,726,3022528,0.0-19.0-0.1-0.237,A5C2W2YA7OHF8,3QX22DUVPRXA8IOFTTHB0PBO5I3MV1,3BDCF01OG1AASDZTOU8IWVWGH85LYY,4,3
238,1,object_10,object_08,828.30000001192,2,2,453.19999998808,0.7777777777777778,2,object_04,5,3443,0,2,7,desert_4,2,memory-2step-stake-s,727,3030913,0.0-19.0-0.1-0.238,A5C2W2YA7OHF8,3QX22DUVPRXA8IOFTTHB0PBO5I3MV1,3BDCF01OG1AASDZTOU8IWVWGH85LYY,1,2
239,3,object_02,object_01,982.0,6,1,429.80000001192,0.4444444444444444,2,object_04,1,3447,0,1,4,library_2,2,memory-2step-stake-s,728,3038967,0.0-19.0-0.1-0.239,A5C2W2YA7OHF8,3QX22DUVPRXA8IOFTTHB0PBO5I3MV1,3BDCF01OG1AASDZTOU8IWVWGH85LYY,6,5
240,4,object_07,object_06,881.80000001192,7,1,352.80000001192,0.1111111111111111,1,object_09,1,3448,0,1,3,restaurant_1,2,memory-2step-stake-s,729,3046640,0.0-19.0-0.1-0.240,A5C2W2YA7OHF8,3QX22DUVPRXA8IOFTTHB0PBO5I3MV1,3BDCF01OG1AASDZTOU8IWVWGH85LYY,7,8
241,2,object_05,object_03,862.09999996424,4,2,287.19999998808,0.2222222222222222,2,object_04,5,3458,0,0,2,forest_3,2,memory-2step-stake-s,730,3054349,0.0-19.0-0.1-0.241,A5C2W2YA7OHF8,3QX22DUVPRXA8IOFTTHB0PBO5I3MV1,3BDCF01OG1AASDZTOU8IWVWGH85LYY,3,4
242,1,object_08,object_10,626.0,1,2,322.80000001192,0.0,1,object_09,1,3458,0,0,4,desert_1,2,memory-2step-stake-s,731,3061891,0.0-19.0-0.1-0.242,A5C2W2YA7OHF8,3QX22DUVPRXA8IOFTTHB0PBO5I3MV1,3BDCF01OG1AASDZTOU8IWVWGH85LYY,2,1
243,1,object_10,object_08,1089.6999999881,1,1,378.19999998808,0.2222222222222222,1,object_09,5,3468,0,2,6,desert_5,2,memory-2step-stake-s,732,3069693,0.0-19.0-0.1-0.243,A5C2W2YA7OHF8,3QX22DUVPRXA8IOFTTHB0PBO5I3MV1,3BDCF01OG1AASDZTOU8IWVWGH85LYY,1,2
244,2,object_03,object_05,668.69999998808,3,2,308.19999998808,0.0,1,object_09,5,3468,0,0,4,forest_6,2,memory-2step-stake-s,733,3077228,0.0-19.0-0.1-0.244,A5C2W2YA7OHF8,3QX22DUVPRXA8IOFTTHB0PBO5I3MV1,3BDCF01OG1AASDZTOU8IWVWGH85LYY,4,3
245,3,object_01,object_02,1193.8999999762,6,2,339.39999997616,0.3333333333333333,2,object_04,1,3471,0,0,3,library_6,2,memory-2step-stake-s,734,3085092,0.0-19.0-0.1-0.245,A5C2W2YA7OHF8,3QX22DUVPRXA8IOFTTHB0PBO5I3MV1,3BDCF01OG1AASDZTOU8IWVWGH85LYY,5,6
246,3,object_01,object_02,619.69999998808,6,2,492.89999997616,0.2222222222222222,2,object_04,5,3481,0,2,2,library_2,2,memory-2step-stake-s,735,3093013,0.0-19.0-0.1-0.246,A5C2W2YA7OHF8,3QX22DUVPRXA8IOFTTHB0PBO5I3MV1,3BDCF01OG1AASDZTOU8IWVWGH85LYY,5,6
247,3,object_02,object_01,687.19999998808,5,2,329.30000001192,0.4444444444444444,1,object_09,1,3485,0,4,2,library_2,2,memory-2step-stake-s,736,3100967,0.0-19.0-0.1-0.247,A5C2W2YA7OHF8,3QX22DUVPRXA8IOFTTHB0PBO5I3MV1,3BDCF01OG1AASDZTOU8IWVWGH85LYY,6,5
248,4,object_07,object_06,733.69999998808,7,1,368.60000002384,0.2222222222222222,1,object_09,1,3487,0,2,3,restaurant_3,2,memory-2step-stake-s,737,3108758,0.0-19.0-0.1-0.248,A5C2W2YA7OHF8,3QX22DUVPRXA8IOFTTHB0PBO5I3MV1,3BDCF01OG1AASDZTOU8IWVWGH85LYY,7,8
249,1,object_10,object_08,750.39999997616,2,2,281.59999996424,0.0,2,object_04,5,3487,0,5,0,desert_3,2,memory-2step-stake-s,738,3116258,0.0-19.0-0.1-0.249,A5C2W2YA7OHF8,3QX22DUVPRXA8IOFTTHB0PBO5I3MV1,3BDCF01OG1AASDZTOU8IWVWGH85LYY,1,2
250,4,object_06,object_07,-1.0,-1,-1,-1.0,0.0,-,0,1,3487,0,7,3,restaurant_2,2,memory-2step-stake-s,739,3122775,0.0-19.0-0.1-0.250,A5C2W2YA7OHF8,3QX22DUVPRXA8IOFTTHB0PBO5I3MV1,3BDCF01OG1AASDZTOU8IWVWGH85LYY,8,7
251,4,object_06,object_07,773.39999997616,7,2,438.89999997616,1.0,1,object_09,1,3496,0,9,4,restaurant_2,2,memory-2step-stake-s,740,3131348,0.0-19.0-0.1-0.251,A5C2W2YA7OHF8,3QX22DUVPRXA8IOFTTHB0PBO5I3MV1,3BDCF01OG1AASDZTOU8IWVWGH85LYY,8,7
252,1,object_10,object_08,927.80000001192,1,1,297.60000002384,0.8888888888888888,1,object_09,5,3536,0,8,5,desert_4,2,memory-2step-stake-s,741,3139679,0.0-19.0-0.1-0.252,A5C2W2YA7OHF8,3QX22DUVPRXA8IOFTTHB0PBO5I3MV1,3BDCF01OG1AASDZTOU8IWVWGH85LYY,1,2
253,2,object_03,object_05,580.10000002384,3,2,484.69999998808,0.8888888888888888,1,object_09,5,3576,0,8,3,forest_2,2,memory-2step-stake-s,742,3148200,0.0-19.0-0.1-0.253,A5C2W2YA7OHF8,3QX22DUVPRXA8IOFTTHB0PBO5I3MV1,3BDCF01OG1AASDZTOU8IWVWGH85LYY,4,3
254,1,object_08,object_10,1066.8000000119,1,2,298.39999997616,0.8888888888888888,1,object_09,5,3616,0,8,3,desert_4,2,memory-2step-stake-s,743,3156531,0.0-19.0-0.1-0.254,A5C2W2YA7OHF8,3QX22DUVPRXA8IOFTTHB0PBO5I3MV1,3BDCF01OG1AASDZTOU8IWVWGH85LYY,2,1
255,1,object_10,object_08,764.5,1,1,252.90000003576,0.7777777777777778,1,object_09,5,3651,0,7,3,desert_4,2,memory-2step-stake-s,744,3164711,0.0-19.0-0.1-0.255,A5C2W2YA7OHF8,3QX22DUVPRXA8IOFTTHB0PBO5I3MV1,3BDCF01OG1AASDZTOU8IWVWGH85LYY,1,2
