,state1,stim_left,stim_right,rt_1,choice1,response1,rt_2,points,state2,stim_state2,stake,score,practice,rews1,rews2,background,high_arm,trial_type,trial_index,time_elapsed,internal_node_id,subid,hitid,assignmentid,stim_left_num,stim_right_num
0,1,object_02,object_01,666.0,2,1,-1.0,0.0,2,object_05,5,0,0,3,1,desert_2,1,memory-2step-stake-s,493,1018588,0.0-19.0-0.0-0.0,A2RBVMD2HTBCZ9,3DW3BNF1HKYVNTMBZS7SV7ATLD58VQ,3Z4XG4ZF4C7QD1P0P9DC8C31V028XF,2,1
1,2,object_06,object_03,694.0,3,2,688.0,0.4444444444444444,1,object_10,1,4,0,4,1,forest_3,1,memory-2step-stake-s,494,1026978,0.0-19.0-0.0-0.1,A2RBVMD2HTBCZ9,3DW3BNF1HKYVNTMBZS7SV7ATLD58VQ,3Z4XG4ZF4C7QD1P0P9DC8C31V028XF,4,3
2,4,object_04,object_07,39.0,7,1,597.0,0.4444444444444444,1,object_10,5,24,0,4,1,restaurant_5,1,memory-2step-stake-s,495,1035278,0.0-19.0-0.0-0.2,A2RBVMD2HTBCZ9,3DW3BNF1HKYVNTMBZS7SV7ATLD58VQ,3Z4XG4ZF4C7QD1P0P9DC8C31V028XF,7,8
3,2,object_03,object_06,373.0,4,2,775.0,0.3333333333333333,2,object_05,1,27,0,4,3,forest_5,1,memory-2step-stake-s,496,1043657,0.0-19.0-0.0-0.3,A2RBVMD2HTBCZ9,3DW3BNF1HKYVNTMBZS7SV7ATLD58VQ,3Z4XG4ZF4C7QD1P0P9DC8C31V028XF,3,4
4,4,object_04,object_07,640.0,7,1,505.0,0.5555555555555556,1,object_10,5,52,0,5,6,restaurant_4,1,memory-2step-stake-s,497,1051977,0.0-19.0-0.0-0.4,A2RBVMD2HTBCZ9,3DW3BNF1HKYVNTMBZS7SV7ATLD58VQ,3Z4XG4ZF4C7QD1P0P9DC8C31V028XF,7,8
5,1,object_01,object_02,709.0,2,2,665.0,0.6666666666666666,2,object_05,1,58,0,6,6,desert_5,1,memory-2step-stake-s,498,1060576,0.0-19.0-0.0-0.5,A2RBVMD2HTBCZ9,3DW3BNF1HKYVNTMBZS7SV7ATLD58VQ,3Z4XG4ZF4C7QD1P0P9DC8C31V028XF,1,2
6,3,object_08,object_09,707.0,6,1,623.0,0.4444444444444444,2,object_05,5,78,0,4,4,library_3,1,memory-2step-stake-s,499,1068906,0.0-19.0-0.0-0.6,A2RBVMD2HTBCZ9,3DW3BNF1HKYVNTMBZS7SV7ATLD58VQ,3Z4XG4ZF4C7QD1P0P9DC8C31V028XF,6,5
7,3,object_08,object_09,548.0,6,1,784.0,0.4444444444444444,2,object_05,5,98,0,4,4,library_3,1,memory-2step-stake-s,500,1077396,0.0-19.0-0.0-0.7,A2RBVMD2HTBCZ9,3DW3BNF1HKYVNTMBZS7SV7ATLD58VQ,3Z4XG4ZF4C7QD1P0P9DC8C31V028XF,6,5
8,3,object_09,object_08,715.0,6,2,502.0,0.2222222222222222,2,object_05,5,108,0,2,2,library_5,1,memory-2step-stake-s,501,1085386,0.0-19.0-0.0-0.8,A2RBVMD2HTBCZ9,3DW3BNF1HKYVNTMBZS7SV7ATLD58VQ,3Z4XG4ZF4C7QD1P0P9DC8C31V028XF,5,6
9,4,object_04,object_07,418.0,7,1,533.0,0.0,1,object_10,5,108,0,0,2,restaurant_4,1,memory-2step-stake-s,502,1093185,0.0-19.0-0.0-0.9,A2RBVMD2HTBCZ9,3DW3BNF1HKYVNTMBZS7SV7ATLD58VQ,3Z4XG4ZF4C7QD1P0P9DC8C31V028XF,7,8
10,2,object_06,object_03,580.0,3,2,635.0,0.1111111111111111,1,object_10,1,109,0,1,3,forest_3,1,memory-2step-stake-s,503,1101205,0.0-19.0-0.0-0.10,A2RBVMD2HTBCZ9,3DW3BNF1HKYVNTMBZS7SV7ATLD58VQ,3Z4XG4ZF4C7QD1P0P9DC8C31V028XF,4,3
11,3,object_09,object_08,671.0,6,2,427.0,0.2222222222222222,2,object_05,1,111,0,7,2,library_1,1,memory-2step-stake-s,504,1109115,0.0-19.0-0.0-0.11,A2RBVMD2HTBCZ9,3DW3BNF1HKYVNTMBZS7SV7ATLD58VQ,3Z4XG4ZF4C7QD1P0P9DC8C31V028XF,5,6
12,4,object_04,object_07,683.0,8,2,481.0,0.2222222222222222,2,object_05,5,121,0,5,2,restaurant_2,1,memory-2step-stake-s,505,1117075,0.0-19.0-0.0-0.12,A2RBVMD2HTBCZ9,3DW3BNF1HKYVNTMBZS7SV7ATLD58VQ,3Z4XG4ZF4C7QD1P0P9DC8C31V028XF,7,8
13,1,object_02,object_01,558.0,2,1,573.0,0.2222222222222222,2,object_05,1,123,0,5,2,desert_2,1,memory-2step-stake-s,506,1125114,0.0-19.0-0.0-0.13,A2RBVMD2HTBCZ9,3DW3BNF1HKYVNTMBZS7SV7ATLD58VQ,3Z4XG4ZF4C7QD1P0P9DC8C31V028XF,2,1
14,1,object_01,object_02,718.0,1,1,624.0,0.6666666666666666,1,object_10,1,129,0,6,4,desert_8,1,memory-2step-stake-s,507,1133674,0.0-19.0-0.0-0.14,A2RBVMD2HTBCZ9,3DW3BNF1HKYVNTMBZS7SV7ATLD58VQ,3Z4XG4ZF4C7QD1P0P9DC8C31V028XF,1,2
15,1,object_02,object_01,629.0,1,2,685.0,0.7777777777777778,1,object_10,1,136,0,7,5,desert_2,1,memory-2step-stake-s,508,1142404,0.0-19.0-0.0-0.15,A2RBVMD2HTBCZ9,3DW3BNF1HKYVNTMBZS7SV7ATLD58VQ,3Z4XG4ZF4C7QD1P0P9DC8C31V028XF,2,1
16,3,object_09,object_08,640.0,6,2,606.0,0.4444444444444444,2,object_05,5,156,0,9,4,library_5,1,memory-2step-stake-s,509,1150723,0.0-19.0-0.0-0.16,A2RBVMD2HTBCZ9,3DW3BNF1HKYVNTMBZS7SV7ATLD58VQ,3Z4XG4ZF4C7QD1P0P9DC8C31V028XF,5,6
17,2,object_06,object_03,682.0,4,1,747.0,0.6666666666666666,2,object_05,1,162,0,9,6,forest_7,1,memory-2step-stake-s,510,1159402,0.0-19.0-0.0-0.17,A2RBVMD2HTBCZ9,3DW3BNF1HKYVNTMBZS7SV7ATLD58VQ,3Z4XG4ZF4C7QD1P0P9DC8C31V028XF,4,3
18,4,object_07,object_04,782.0,8,1,598.0,0.6666666666666666,2,object_05,1,168,0,9,6,restaurant_2,1,memory-2step-stake-s,511,1167922,0.0-19.0-0.0-0.18,A2RBVMD2HTBCZ9,3DW3BNF1HKYVNTMBZS7SV7ATLD58VQ,3Z4XG4ZF4C7QD1P0P9DC8C31V028XF,8,7
19,2,object_06,object_03,1151.0,3,2,421.0,0.8888888888888888,1,object_10,1,176,0,8,4,forest_3,1,memory-2step-stake-s,512,1176472,0.0-19.0-0.0-0.19,A2RBVMD2HTBCZ9,3DW3BNF1HKYVNTMBZS7SV7ATLD58VQ,3Z4XG4ZF4C7QD1P0P9DC8C31V028XF,4,3
20,2,object_03,object_06,783.0,3,1,451.0,1.0,1,object_10,1,185,0,9,7,forest_3,1,memory-2step-stake-s,513,1185182,0.0-19.0-0.0-0.20,A2RBVMD2HTBCZ9,3DW3BNF1HKYVNTMBZS7SV7ATLD58VQ,3Z4XG4ZF4C7QD1P0P9DC8C31V028XF,3,4
21,3,object_09,object_08,975.0,5,1,642.0,0.6666666666666666,1,object_10,5,215,0,6,5,library_5,1,memory-2step-stake-s,514,1193741,0.0-19.0-0.0-0.21,A2RBVMD2HTBCZ9,3DW3BNF1HKYVNTMBZS7SV7ATLD58VQ,3Z4XG4ZF4C7QD1P0P9DC8C31V028XF,5,6
22,3,object_09,object_08,507.0,6,2,364.0,0.6666666666666666,2,object_05,5,245,0,5,6,library_5,1,memory-2step-stake-s,515,1202031,0.0-19.0-0.0-0.22,A2RBVMD2HTBCZ9,3DW3BNF1HKYVNTMBZS7SV7ATLD58VQ,3Z4XG4ZF4C7QD1P0P9DC8C31V028XF,5,6
23,3,object_08,object_09,1118.0,5,2,965.0,0.5555555555555556,1,object_10,5,270,0,5,8,library_2,1,memory-2step-stake-s,516,1210790,0.0-19.0-0.0-0.23,A2RBVMD2HTBCZ9,3DW3BNF1HKYVNTMBZS7SV7ATLD58VQ,3Z4XG4ZF4C7QD1P0P9DC8C31V028XF,6,5
24,3,object_09,object_08,939.0,5,1,488.0,0.8888888888888888,1,object_10,5,310,0,8,8,library_3,1,memory-2step-stake-s,517,1219410,0.0-19.0-0.0-0.24,A2RBVMD2HTBCZ9,3DW3BNF1HKYVNTMBZS7SV7ATLD58VQ,3Z4XG4ZF4C7QD1P0P9DC8C31V028XF,5,6
25,2,object_03,object_06,573.0,4,2,807.0,0.7777777777777778,2,object_05,1,317,0,4,7,forest_2,1,memory-2step-stake-s,518,1228260,0.0-19.0-0.0-0.25,A2RBVMD2HTBCZ9,3DW3BNF1HKYVNTMBZS7SV7ATLD58VQ,3Z4XG4ZF4C7QD1P0P9DC8C31V028XF,3,4
26,4,object_04,object_07,963.0,8,2,671.0,0.8888888888888888,2,object_05,5,357,0,2,8,restaurant_5,1,memory-2step-stake-s,519,1237070,0.0-19.0-0.0-0.26,A2RBVMD2HTBCZ9,3DW3BNF1HKYVNTMBZS7SV7ATLD58VQ,3Z4XG4ZF4C7QD1P0P9DC8C31V028XF,7,8
27,4,object_04,object_07,746.0,7,1,484.0,0.3333333333333333,1,object_10,1,360,0,3,8,restaurant_5,1,memory-2step-stake-s,520,1245140,0.0-19.0-0.0-0.27,A2RBVMD2HTBCZ9,3DW3BNF1HKYVNTMBZS7SV7ATLD58VQ,3Z4XG4ZF4C7QD1P0P9DC8C31V028XF,7,8
28,3,object_09,object_08,942.0,6,2,280.0,0.8888888888888888,2,object_05,5,400,0,4,8,library_1,1,memory-2step-stake-s,521,1253549,0.0-19.0-0.0-0.28,A2RBVMD2HTBCZ9,3DW3BNF1HKYVNTMBZS7SV7ATLD58VQ,3Z4XG4ZF4C7QD1P0P9DC8C31V028XF,5,6
29,4,object_07,object_04,686.0,8,1,573.0,0.7777777777777778,2,object_05,5,435,0,2,7,restaurant_8,1,memory-2step-stake-s,522,1262149,0.0-19.0-0.0-0.29,A2RBVMD2HTBCZ9,3DW3BNF1HKYVNTMBZS7SV7ATLD58VQ,3Z4XG4ZF4C7QD1P0P9DC8C31V028XF,8,7
30,2,object_03,object_06,739.0,4,2,646.0,0.8888888888888888,2,object_05,1,443,0,2,8,forest_5,1,memory-2step-stake-s,523,1270939,0.0-19.0-0.0-0.30,A2RBVMD2HTBCZ9,3DW3BNF1HKYVNTMBZS7SV7ATLD58VQ,3Z4XG4ZF4C7QD1P0P9DC8C31V028XF,3,4
31,4,object_04,object_07,972.0,7,1,549.0,0.1111111111111111,1,object_10,1,444,0,1,8,restaurant_4,1,memory-2step-stake-s,524,1278868,0.0-19.0-0.0-0.31,A2RBVMD2HTBCZ9,3DW3BNF1HKYVNTMBZS7SV7ATLD58VQ,3Z4XG4ZF4C7QD1P0P9DC8C31V028XF,7,8
32,2,object_03,object_06,858.0,4,2,556.0,0.8888888888888888,2,object_05,1,452,0,1,8,forest_3,1,memory-2step-stake-s,525,1287578,0.0-19.0-0.0-0.32,A2RBVMD2HTBCZ9,3DW3BNF1HKYVNTMBZS7SV7ATLD58VQ,3Z4XG4ZF4C7QD1P0P9DC8C31V028XF,3,4
33,3,object_09,object_08,722.0,6,2,392.0,0.5555555555555556,2,object_05,5,477,0,0,5,library_2,1,memory-2step-stake-s,526,1295778,0.0-19.0-0.0-0.33,A2RBVMD2HTBCZ9,3DW3BNF1HKYVNTMBZS7SV7ATLD58VQ,3Z4XG4ZF4C7QD1P0P9DC8C31V028XF,5,6
34,1,object_02,object_01,639.0,2,1,556.0,0.4444444444444444,2,object_05,1,481,0,1,4,desert_8,1,memory-2step-stake-s,527,1304037,0.0-19.0-0.0-0.34,A2RBVMD2HTBCZ9,3DW3BNF1HKYVNTMBZS7SV7ATLD58VQ,3Z4XG4ZF4C7QD1P0P9DC8C31V028XF,2,1
35,1,object_02,object_01,1135.0,2,1,703.0,0.5555555555555556,2,object_05,1,486,0,4,5,desert_8,1,memory-2step-stake-s,528,1312548,0.0-19.0-0.0-0.35,A2RBVMD2HTBCZ9,3DW3BNF1HKYVNTMBZS7SV7ATLD58VQ,3Z4XG4ZF4C7QD1P0P9DC8C31V028XF,2,1
36,2,object_03,object_06,1219.0,3,1,528.0,0.6666666666666666,1,object_10,1,492,0,6,7,forest_7,1,memory-2step-stake-s,529,1321007,0.0-19.0-0.0-0.36,A2RBVMD2HTBCZ9,3DW3BNF1HKYVNTMBZS7SV7ATLD58VQ,3Z4XG4ZF4C7QD1P0P9DC8C31V028XF,3,4
37,1,object_02,object_01,788.0,1,2,605.0,0.7777777777777778,1,object_10,1,499,0,7,8,desert_3,1,memory-2step-stake-s,530,1329657,0.0-19.0-0.0-0.37,A2RBVMD2HTBCZ9,3DW3BNF1HKYVNTMBZS7SV7ATLD58VQ,3Z4XG4ZF4C7QD1P0P9DC8C31V028XF,2,1
38,2,object_03,object_06,873.0,3,1,662.0,0.3333333333333333,1,object_10,1,502,0,3,8,forest_5,1,memory-2step-stake-s,531,1337916,0.0-19.0-0.0-0.38,A2RBVMD2HTBCZ9,3DW3BNF1HKYVNTMBZS7SV7ATLD58VQ,3Z4XG4ZF4C7QD1P0P9DC8C31V028XF,3,4
39,2,object_06,object_03,671.0,3,2,379.0,0.2222222222222222,1,object_10,1,504,0,2,8,forest_2,1,memory-2step-stake-s,532,1345776,0.0-19.0-0.0-0.39,A2RBVMD2HTBCZ9,3DW3BNF1HKYVNTMBZS7SV7ATLD58VQ,3Z4XG4ZF4C7QD1P0P9DC8C31V028XF,4,3
40,4,object_04,object_07,820.0,7,1,528.0,0.1111111111111111,1,object_10,5,509,0,1,5,restaurant_2,1,memory-2step-stake-s,533,1353686,0.0-19.0-0.0-0.40,A2RBVMD2HTBCZ9,3DW3BNF1HKYVNTMBZS7SV7ATLD58VQ,3Z4XG4ZF4C7QD1P0P9DC8C31V028XF,7,8
41,3,object_09,object_08,1109.0,6,2,550.0,0.6666666666666666,2,object_05,5,539,0,2,6,library_5,1,memory-2step-stake-s,534,1362166,0.0-19.0-0.0-0.41,A2RBVMD2HTBCZ9,3DW3BNF1HKYVNTMBZS7SV7ATLD58VQ,3Z4XG4ZF4C7QD1P0P9DC8C31V028XF,5,6
42,3,object_08,object_09,727.0,5,2,495.0,0.0,1,object_10,5,539,0,0,5,library_3,1,memory-2step-stake-s,535,1369925,0.0-19.0-0.0-0.42,A2RBVMD2HTBCZ9,3DW3BNF1HKYVNTMBZS7SV7ATLD58VQ,3Z4XG4ZF4C7QD1P0P9DC8C31V028XF,6,5
43,4,object_07,object_04,988.0,8,1,557.0,0.7777777777777778,2,object_05,5,574,0,1,7,restaurant_5,1,memory-2step-stake-s,536,1378525,0.0-19.0-0.0-0.43,A2RBVMD2HTBCZ9,3DW3BNF1HKYVNTMBZS7SV7ATLD58VQ,3Z4XG4ZF4C7QD1P0P9DC8C31V028XF,8,7
44,4,object_04,object_07,736.0,8,2,474.0,0.7777777777777778,2,object_05,5,609,0,4,7,restaurant_2,1,memory-2step-stake-s,537,1387045,0.0-19.0-0.0-0.44,A2RBVMD2HTBCZ9,3DW3BNF1HKYVNTMBZS7SV7ATLD58VQ,3Z4XG4ZF4C7QD1P0P9DC8C31V028XF,7,8
45,3,object_08,object_09,924.0,5,2,386.0,0.5555555555555556,1,object_10,5,634,0,5,6,library_1,1,memory-2step-stake-s,538,1395255,0.0-19.0-0.0-0.45,A2RBVMD2HTBCZ9,3DW3BNF1HKYVNTMBZS7SV7ATLD58VQ,3Z4XG4ZF4C7QD1P0P9DC8C31V028XF,6,5
46,3,object_08,object_09,587.0,6,1,287.0,0.6666666666666666,2,object_05,5,664,0,2,6,library_5,1,memory-2step-stake-s,539,1403464,0.0-19.0-0.0-0.46,A2RBVMD2HTBCZ9,3DW3BNF1HKYVNTMBZS7SV7ATLD58VQ,3Z4XG4ZF4C7QD1P0P9DC8C31V028XF,6,5
47,3,object_08,object_09,806.0,6,1,724.0,0.8888888888888888,2,object_05,1,672,0,4,8,library_5,1,memory-2step-stake-s,540,1412334,0.0-19.0-0.0-0.47,A2RBVMD2HTBCZ9,3DW3BNF1HKYVNTMBZS7SV7ATLD58VQ,3Z4XG4ZF4C7QD1P0P9DC8C31V028XF,6,5
48,1,object_01,object_02,795.0,1,1,402.0,0.6666666666666666,1,object_10,1,678,0,6,9,desert_8,1,memory-2step-stake-s,541,1420663,0.0-19.0-0.0-0.48,A2RBVMD2HTBCZ9,3DW3BNF1HKYVNTMBZS7SV7ATLD58VQ,3Z4XG4ZF4C7QD1P0P9DC8C31V028XF,1,2
49,4,object_07,object_04,1073.0,8,1,484.0,0.6666666666666666,2,object_05,5,708,0,8,6,restaurant_8,1,memory-2step-stake-s,542,1429063,0.0-19.0-0.0-0.49,A2RBVMD2HTBCZ9,3DW3BNF1HKYVNTMBZS7SV7ATLD58VQ,3Z4XG4ZF4C7QD1P0P9DC8C31V028XF,8,7
50,3,object_08,object_09,1024.0,5,2,702.0,0.8888888888888888,1,object_10,5,748,0,8,7,library_5,1,memory-2step-stake-s,543,1437913,0.0-19.0-0.0-0.50,A2RBVMD2HTBCZ9,3DW3BNF1HKYVNTMBZS7SV7ATLD58VQ,3Z4XG4ZF4C7QD1P0P9DC8C31V028XF,6,5
51,3,object_08,object_09,1083.0,5,2,613.0,0.7777777777777778,1,object_10,1,755,0,7,7,library_2,1,memory-2step-stake-s,544,1446552,0.0-19.0-0.0-0.51,A2RBVMD2HTBCZ9,3DW3BNF1HKYVNTMBZS7SV7ATLD58VQ,3Z4XG4ZF4C7QD1P0P9DC8C31V028XF,6,5
52,4,object_07,object_04,784.0,8,1,523.0,0.5555555555555556,2,object_05,1,760,0,5,5,restaurant_8,1,memory-2step-stake-s,545,1454882,0.0-19.0-0.0-0.52,A2RBVMD2HTBCZ9,3DW3BNF1HKYVNTMBZS7SV7ATLD58VQ,3Z4XG4ZF4C7QD1P0P9DC8C31V028XF,8,7
53,4,object_04,object_07,-1.0,-1,-1,-1.0,0.0,-,0,5,760,0,7,5,restaurant_5,1,memory-2step-stake-s,546,1461441,0.0-19.0-0.0-0.53,A2RBVMD2HTBCZ9,3DW3BNF1HKYVNTMBZS7SV7ATLD58VQ,3Z4XG4ZF4C7QD1P0P9DC8C31V028XF,7,8
54,2,object_03,object_06,612.0,3,1,481.0,0.6666666666666666,1,object_10,1,766,0,6,7,forest_5,1,memory-2step-stake-s,547,1469851,0.0-19.0-0.0-0.54,A2RBVMD2HTBCZ9,3DW3BNF1HKYVNTMBZS7SV7ATLD58VQ,3Z4XG4ZF4C7QD1P0P9DC8C31V028XF,3,4
55,1,object_01,object_02,504.0,2,2,330.0,0.8888888888888888,2,object_05,1,774,0,6,8,desert_8,1,memory-2step-stake-s,548,1478331,0.0-19.0-0.0-0.55,A2RBVMD2HTBCZ9,3DW3BNF1HKYVNTMBZS7SV7ATLD58VQ,3Z4XG4ZF4C7QD1P0P9DC8C31V028XF,1,2
56,2,object_03,object_06,862.0,3,1,482.0,0.7777777777777778,1,object_10,1,781,0,7,7,forest_2,1,memory-2step-stake-s,549,1486841,0.0-19.0-0.0-0.56,A2RBVMD2HTBCZ9,3DW3BNF1HKYVNTMBZS7SV7ATLD58VQ,3Z4XG4ZF4C7QD1P0P9DC8C31V028XF,3,4
57,1,object_01,object_02,714.0,1,1,445.0,0.7777777777777778,1,object_10,1,788,0,7,6,desert_5,1,memory-2step-stake-s,550,1495320,0.0-19.0-0.0-0.57,A2RBVMD2HTBCZ9,3DW3BNF1HKYVNTMBZS7SV7ATLD58VQ,3Z4XG4ZF4C7QD1P0P9DC8C31V028XF,1,2
58,2,object_03,object_06,555.0,4,2,305.0,0.6666666666666666,2,object_05,1,794,0,6,6,forest_5,1,memory-2step-stake-s,551,1503560,0.0-19.0-0.0-0.58,A2RBVMD2HTBCZ9,3DW3BNF1HKYVNTMBZS7SV7ATLD58VQ,3Z4XG4ZF4C7QD1P0P9DC8C31V028XF,3,4
59,3,object_09,object_08,696.0,5,1,436.0,0.5555555555555556,1,object_10,5,819,0,5,6,library_2,1,memory-2step-stake-s,552,1511820,0.0-19.0-0.0-0.59,A2RBVMD2HTBCZ9,3DW3BNF1HKYVNTMBZS7SV7ATLD58VQ,3Z4XG4ZF4C7QD1P0P9DC8C31V028XF,5,6
60,1,object_01,object_02,928.0,1,1,399.0,0.7777777777777778,1,object_10,1,826,0,7,7,desert_3,1,memory-2step-stake-s,553,1520260,0.0-19.0-0.0-0.60,A2RBVMD2HTBCZ9,3DW3BNF1HKYVNTMBZS7SV7ATLD58VQ,3Z4XG4ZF4C7QD1P0P9DC8C31V028XF,1,2
61,4,object_07,object_04,850.0,7,2,470.0,1.0,1,object_10,5,871,0,9,8,restaurant_2,1,memory-2step-stake-s,554,1528979,0.0-19.0-0.0-0.61,A2RBVMD2HTBCZ9,3DW3BNF1HKYVNTMBZS7SV7ATLD58VQ,3Z4XG4ZF4C7QD1P0P9DC8C31V028XF,8,7
62,4,object_07,object_04,729.0,7,2,459.0,0.6666666666666666,1,object_10,1,877,0,6,9,restaurant_2,1,memory-2step-stake-s,555,1537359,0.0-19.0-0.0-0.62,A2RBVMD2HTBCZ9,3DW3BNF1HKYVNTMBZS7SV7ATLD58VQ,3Z4XG4ZF4C7QD1P0P9DC8C31V028XF,8,7
63,1,object_01,object_02,861.0,1,1,381.0,0.4444444444444444,1,object_10,1,881,0,4,9,desert_3,1,memory-2step-stake-s,556,1545449,0.0-19.0-0.0-0.63,A2RBVMD2HTBCZ9,3DW3BNF1HKYVNTMBZS7SV7ATLD58VQ,3Z4XG4ZF4C7QD1P0P9DC8C31V028XF,1,2
64,2,object_03,object_06,774.0,4,2,354.0,0.5555555555555556,2,object_05,5,906,0,6,5,forest_2,1,memory-2step-stake-s,557,1553618,0.0-19.0-0.0-0.64,A2RBVMD2HTBCZ9,3DW3BNF1HKYVNTMBZS7SV7ATLD58VQ,3Z4XG4ZF4C7QD1P0P9DC8C31V028XF,3,4
65,2,object_06,object_03,1177.0,4,1,496.0,0.2222222222222222,2,object_05,5,916,0,9,2,forest_7,1,memory-2step-stake-s,558,1561608,0.0-19.0-0.0-0.65,A2RBVMD2HTBCZ9,3DW3BNF1HKYVNTMBZS7SV7ATLD58VQ,3Z4XG4ZF4C7QD1P0P9DC8C31V028XF,4,3
66,1,object_01,object_02,692.0,2,2,571.0,0.3333333333333333,2,object_05,1,919,0,7,3,desert_8,1,memory-2step-stake-s,559,1569768,0.0-19.0-0.0-0.66,A2RBVMD2HTBCZ9,3DW3BNF1HKYVNTMBZS7SV7ATLD58VQ,3Z4XG4ZF4C7QD1P0P9DC8C31V028XF,1,2
67,4,object_07,object_04,736.0,8,1,414.0,0.3333333333333333,2,object_05,5,934,0,9,3,restaurant_2,1,memory-2step-stake-s,560,1577777,0.0-19.0-0.0-0.67,A2RBVMD2HTBCZ9,3DW3BNF1HKYVNTMBZS7SV7ATLD58VQ,3Z4XG4ZF4C7QD1P0P9DC8C31V028XF,8,7
68,1,object_02,object_01,899.0,1,2,290.0,0.7777777777777778,1,object_10,5,969,0,7,1,desert_8,1,memory-2step-stake-s,561,1586097,0.0-19.0-0.0-0.68,A2RBVMD2HTBCZ9,3DW3BNF1HKYVNTMBZS7SV7ATLD58VQ,3Z4XG4ZF4C7QD1P0P9DC8C31V028XF,2,1
69,1,object_02,object_01,921.0,1,2,351.0,0.7777777777777778,1,object_10,1,976,0,7,0,desert_3,1,memory-2step-stake-s,562,1594487,0.0-19.0-0.0-0.69,A2RBVMD2HTBCZ9,3DW3BNF1HKYVNTMBZS7SV7ATLD58VQ,3Z4XG4ZF4C7QD1P0P9DC8C31V028XF,2,1
70,3,object_08,object_09,765.0,6,1,424.0,0.3333333333333333,2,object_05,1,979,0,8,3,library_3,1,memory-2step-stake-s,563,1602507,0.0-19.0-0.0-0.70,A2RBVMD2HTBCZ9,3DW3BNF1HKYVNTMBZS7SV7ATLD58VQ,3Z4XG4ZF4C7QD1P0P9DC8C31V028XF,6,5
71,3,object_08,object_09,1316.0,6,1,358.0,0.4444444444444444,2,object_05,5,999,0,9,4,library_5,1,memory-2step-stake-s,564,1610576,0.0-19.0-0.0-0.71,A2RBVMD2HTBCZ9,3DW3BNF1HKYVNTMBZS7SV7ATLD58VQ,3Z4XG4ZF4C7QD1P0P9DC8C31V028XF,6,5
72,3,object_08,object_09,1380.0,5,2,381.0,1.0,1,object_10,1,1008,0,9,2,library_1,1,memory-2step-stake-s,565,1619207,0.0-19.0-0.0-0.72,A2RBVMD2HTBCZ9,3DW3BNF1HKYVNTMBZS7SV7ATLD58VQ,3Z4XG4ZF4C7QD1P0P9DC8C31V028XF,6,5
73,2,object_06,object_03,864.0,3,2,436.0,0.6666666666666666,1,object_10,1,1014,0,6,3,forest_2,1,memory-2step-stake-s,566,1627577,0.0-19.0-0.0-0.73,A2RBVMD2HTBCZ9,3DW3BNF1HKYVNTMBZS7SV7ATLD58VQ,3Z4XG4ZF4C7QD1P0P9DC8C31V028XF,4,3
74,4,object_07,object_04,906.0,8,1,467.0,0.5555555555555556,2,object_05,5,1039,0,7,5,restaurant_8,1,memory-2step-stake-s,567,1635856,0.0-19.0-0.0-0.74,A2RBVMD2HTBCZ9,3DW3BNF1HKYVNTMBZS7SV7ATLD58VQ,3Z4XG4ZF4C7QD1P0P9DC8C31V028XF,8,7
75,1,object_01,object_02,1020.0,2,2,421.0,0.6666666666666666,2,object_05,1,1045,0,6,6,desert_3,1,memory-2step-stake-s,568,1644207,0.0-19.0-0.0-0.75,A2RBVMD2HTBCZ9,3DW3BNF1HKYVNTMBZS7SV7ATLD58VQ,3Z4XG4ZF4C7QD1P0P9DC8C31V028XF,1,2
76,1,object_02,object_01,1193.0,2,1,276.0,1.0,2,object_05,1,1054,0,4,9,desert_2,1,memory-2step-stake-s,569,1652746,0.0-19.0-0.0-0.76,A2RBVMD2HTBCZ9,3DW3BNF1HKYVNTMBZS7SV7ATLD58VQ,3Z4XG4ZF4C7QD1P0P9DC8C31V028XF,2,1
77,1,object_02,object_01,1088.0,2,1,559.0,0.7777777777777778,2,object_05,1,1061,0,1,7,desert_5,1,memory-2step-stake-s,570,1661346,0.0-19.0-0.0-0.77,A2RBVMD2HTBCZ9,3DW3BNF1HKYVNTMBZS7SV7ATLD58VQ,3Z4XG4ZF4C7QD1P0P9DC8C31V028XF,2,1
78,1,object_02,object_01,702.0,2,1,423.0,0.6666666666666666,2,object_05,1,1067,0,2,6,desert_3,1,memory-2step-stake-s,571,1669695,0.0-19.0-0.0-0.78,A2RBVMD2HTBCZ9,3DW3BNF1HKYVNTMBZS7SV7ATLD58VQ,3Z4XG4ZF4C7QD1P0P9DC8C31V028XF,2,1
79,4,object_07,object_04,646.0,7,2,267.0,0.1111111111111111,1,object_10,1,1068,0,1,8,restaurant_4,1,memory-2step-stake-s,572,1677377,0.0-19.0-0.0-0.79,A2RBVMD2HTBCZ9,3DW3BNF1HKYVNTMBZS7SV7ATLD58VQ,3Z4XG4ZF4C7QD1P0P9DC8C31V028XF,8,7
80,2,object_03,object_06,673.0,3,1,502.0,0.1111111111111111,1,object_10,1,1069,0,1,8,forest_7,1,memory-2step-stake-s,573,1685248,0.0-19.0-0.0-0.80,A2RBVMD2HTBCZ9,3DW3BNF1HKYVNTMBZS7SV7ATLD58VQ,3Z4XG4ZF4C7QD1P0P9DC8C31V028XF,3,4
81,1,object_02,object_01,729.0,1,2,278.0,0.1111111111111111,1,object_10,1,1070,0,1,9,desert_2,1,memory-2step-stake-s,574,1692907,0.0-19.0-0.0-0.81,A2RBVMD2HTBCZ9,3DW3BNF1HKYVNTMBZS7SV7ATLD58VQ,3Z4XG4ZF4C7QD1P0P9DC8C31V028XF,2,1
82,4,object_04,object_07,635.0,7,1,436.0,0.4444444444444444,1,object_10,1,1074,0,4,9,restaurant_5,1,memory-2step-stake-s,575,1701057,0.0-19.0-0.0-0.82,A2RBVMD2HTBCZ9,3DW3BNF1HKYVNTMBZS7SV7ATLD58VQ,3Z4XG4ZF4C7QD1P0P9DC8C31V028XF,7,8
83,2,object_03,object_06,840.0,3,1,351.0,0.6666666666666666,1,object_10,1,1080,0,6,9,forest_7,1,memory-2step-stake-s,576,1709326,0.0-19.0-0.0-0.83,A2RBVMD2HTBCZ9,3DW3BNF1HKYVNTMBZS7SV7ATLD58VQ,3Z4XG4ZF4C7QD1P0P9DC8C31V028XF,3,4
84,4,object_04,object_07,844.0,8,2,605.0,0.7777777777777778,2,object_05,5,1115,0,9,7,restaurant_5,1,memory-2step-stake-s,577,1717966,0.0-19.0-0.0-0.84,A2RBVMD2HTBCZ9,3DW3BNF1HKYVNTMBZS7SV7ATLD58VQ,3Z4XG4ZF4C7QD1P0P9DC8C31V028XF,7,8
85,1,object_02,object_01,597.0,2,1,347.0,0.6666666666666666,2,object_05,1,1121,0,6,6,desert_3,1,memory-2step-stake-s,578,1726246,0.0-19.0-0.0-0.85,A2RBVMD2HTBCZ9,3DW3BNF1HKYVNTMBZS7SV7ATLD58VQ,3Z4XG4ZF4C7QD1P0P9DC8C31V028XF,2,1
86,1,object_02,object_01,424.0,2,1,243.0,0.6666666666666666,2,object_05,5,1151,0,6,6,desert_8,1,memory-2step-stake-s,579,1734416,0.0-19.0-0.0-0.86,A2RBVMD2HTBCZ9,3DW3BNF1HKYVNTMBZS7SV7ATLD58VQ,3Z4XG4ZF4C7QD1P0P9DC8C31V028XF,2,1
87,4,object_07,object_04,920.0,8,1,487.0,0.6666666666666666,2,object_05,5,1181,0,7,6,restaurant_8,1,memory-2step-stake-s,580,1742836,0.0-19.0-0.0-0.87,A2RBVMD2HTBCZ9,3DW3BNF1HKYVNTMBZS7SV7ATLD58VQ,3Z4XG4ZF4C7QD1P0P9DC8C31V028XF,8,7
88,2,object_06,object_03,801.0,3,2,332.0,0.6666666666666666,1,object_10,1,1187,0,6,5,forest_3,1,memory-2step-stake-s,581,1751086,0.0-19.0-0.0-0.88,A2RBVMD2HTBCZ9,3DW3BNF1HKYVNTMBZS7SV7ATLD58VQ,3Z4XG4ZF4C7QD1P0P9DC8C31V028XF,4,3
89,1,object_02,object_01,876.0,1,2,487.0,0.7777777777777778,1,object_10,1,1194,0,7,5,desert_3,1,memory-2step-stake-s,582,1759606,0.0-19.0-0.0-0.89,A2RBVMD2HTBCZ9,3DW3BNF1HKYVNTMBZS7SV7ATLD58VQ,3Z4XG4ZF4C7QD1P0P9DC8C31V028XF,2,1
90,3,object_09,object_08,960.0,5,1,380.0,0.7777777777777778,1,object_10,1,1201,0,7,9,library_5,1,memory-2step-stake-s,583,1768025,0.0-19.0-0.0-0.90,A2RBVMD2HTBCZ9,3DW3BNF1HKYVNTMBZS7SV7ATLD58VQ,3Z4XG4ZF4C7QD1P0P9DC8C31V028XF,5,6
91,1,object_02,object_01,644.0,2,1,304.0,0.8888888888888888,2,object_05,1,1209,0,4,8,desert_2,1,memory-2step-stake-s,584,1776456,0.0-19.0-0.0-0.91,A2RBVMD2HTBCZ9,3DW3BNF1HKYVNTMBZS7SV7ATLD58VQ,3Z4XG4ZF4C7QD1P0P9DC8C31V028XF,2,1
92,1,object_01,object_02,717.0,2,2,268.0,0.7777777777777778,2,object_05,5,1244,0,0,7,desert_3,1,memory-2step-stake-s,585,1784755,0.0-19.0-0.0-0.92,A2RBVMD2HTBCZ9,3DW3BNF1HKYVNTMBZS7SV7ATLD58VQ,3Z4XG4ZF4C7QD1P0P9DC8C31V028XF,1,2
93,4,object_04,object_07,1121.0,8,2,363.0,0.6666666666666666,2,object_05,5,1274,0,1,6,restaurant_8,1,memory-2step-stake-s,586,1793025,0.0-19.0-0.0-0.93,A2RBVMD2HTBCZ9,3DW3BNF1HKYVNTMBZS7SV7ATLD58VQ,3Z4XG4ZF4C7QD1P0P9DC8C31V028XF,7,8
94,4,object_07,object_04,767.0,8,1,455.0,0.5555555555555556,2,object_05,5,1299,0,2,5,restaurant_2,1,memory-2step-stake-s,587,1801306,0.0-19.0-0.0-0.94,A2RBVMD2HTBCZ9,3DW3BNF1HKYVNTMBZS7SV7ATLD58VQ,3Z4XG4ZF4C7QD1P0P9DC8C31V028XF,8,7
95,4,object_04,object_07,852.0,8,2,503.0,0.6666666666666666,2,object_05,5,1329,0,2,6,restaurant_5,1,memory-2step-stake-s,588,1809735,0.0-19.0-0.0-0.95,A2RBVMD2HTBCZ9,3DW3BNF1HKYVNTMBZS7SV7ATLD58VQ,3Z4XG4ZF4C7QD1P0P9DC8C31V028XF,7,8
96,4,object_07,object_04,807.0,8,1,378.0,0.4444444444444444,2,object_05,5,1349,0,1,4,restaurant_5,1,memory-2step-stake-s,589,1817824,0.0-19.0-0.0-0.96,A2RBVMD2HTBCZ9,3DW3BNF1HKYVNTMBZS7SV7ATLD58VQ,3Z4XG4ZF4C7QD1P0P9DC8C31V028XF,8,7
97,1,object_01,object_02,614.0,2,2,303.0,0.3333333333333333,2,object_05,1,1352,0,1,3,desert_5,1,memory-2step-stake-s,590,1825734,0.0-19.0-0.0-0.97,A2RBVMD2HTBCZ9,3DW3BNF1HKYVNTMBZS7SV7ATLD58VQ,3Z4XG4ZF4C7QD1P0P9DC8C31V028XF,1,2
98,1,object_01,object_02,633.0,1,1,353.0,0.2222222222222222,1,object_10,1,1354,0,2,1,desert_5,1,memory-2step-stake-s,591,1833574,0.0-19.0-0.0-0.98,A2RBVMD2HTBCZ9,3DW3BNF1HKYVNTMBZS7SV7ATLD58VQ,3Z4XG4ZF4C7QD1P0P9DC8C31V028XF,1,2
99,2,object_03,object_06,870.0,3,1,580.0,0.3333333333333333,1,object_10,1,1357,0,3,4,forest_2,1,memory-2step-stake-s,592,1841754,0.0-19.0-0.0-0.99,A2RBVMD2HTBCZ9,3DW3BNF1HKYVNTMBZS7SV7ATLD58VQ,3Z4XG4ZF4C7QD1P0P9DC8C31V028XF,3,4
100,4,object_04,object_07,708.0,8,2,360.0,0.6666666666666666,2,object_05,5,1387,0,2,6,restaurant_8,1,memory-2step-stake-s,593,1850033,0.0-19.0-0.0-0.100,A2RBVMD2HTBCZ9,3DW3BNF1HKYVNTMBZS7SV7ATLD58VQ,3Z4XG4ZF4C7QD1P0P9DC8C31V028XF,7,8
101,3,object_09,object_08,777.0,5,1,496.0,0.5555555555555556,1,object_10,5,1412,0,5,4,library_1,1,memory-2step-stake-s,594,1858333,0.0-19.0-0.0-0.101,A2RBVMD2HTBCZ9,3DW3BNF1HKYVNTMBZS7SV7ATLD58VQ,3Z4XG4ZF4C7QD1P0P9DC8C31V028XF,5,6
102,2,object_03,object_06,755.0,4,2,366.0,0.5555555555555556,2,object_05,1,1417,0,7,5,forest_2,1,memory-2step-stake-s,595,1866513,0.0-19.0-0.0-0.102,A2RBVMD2HTBCZ9,3DW3BNF1HKYVNTMBZS7SV7ATLD58VQ,3Z4XG4ZF4C7QD1P0P9DC8C31V028XF,3,4
103,3,object_09,object_08,744.0,5,1,474.0,0.3333333333333333,1,object_10,5,1432,0,3,5,library_5,1,memory-2step-stake-s,596,1874572,0.0-19.0-0.0-0.103,A2RBVMD2HTBCZ9,3DW3BNF1HKYVNTMBZS7SV7ATLD58VQ,3Z4XG4ZF4C7QD1P0P9DC8C31V028XF,5,6
104,4,object_07,object_04,673.0,7,2,673.0,0.4444444444444444,1,object_10,5,1452,0,4,5,restaurant_5,1,memory-2step-stake-s,597,1882942,0.0-19.0-0.0-0.104,A2RBVMD2HTBCZ9,3DW3BNF1HKYVNTMBZS7SV7ATLD58VQ,3Z4XG4ZF4C7QD1P0P9DC8C31V028XF,8,7
105,3,object_09,object_08,701.0,5,1,471.0,0.6666666666666666,1,object_10,5,1482,0,6,6,library_2,1,memory-2step-stake-s,598,1891342,0.0-19.0-0.0-0.105,A2RBVMD2HTBCZ9,3DW3BNF1HKYVNTMBZS7SV7ATLD58VQ,3Z4XG4ZF4C7QD1P0P9DC8C31V028XF,5,6
106,2,object_03,object_06,543.0,4,2,560.0,0.8888888888888888,2,object_05,1,1490,0,5,8,forest_2,1,memory-2step-stake-s,599,1900031,0.0-19.0-0.0-0.106,A2RBVMD2HTBCZ9,3DW3BNF1HKYVNTMBZS7SV7ATLD58VQ,3Z4XG4ZF4C7QD1P0P9DC8C31V028XF,3,4
107,2,object_03,object_06,746.0,3,1,486.0,0.2222222222222222,1,object_10,1,1492,0,2,8,forest_3,1,memory-2step-stake-s,600,1908001,0.0-19.0-0.0-0.107,A2RBVMD2HTBCZ9,3DW3BNF1HKYVNTMBZS7SV7ATLD58VQ,3Z4XG4ZF4C7QD1P0P9DC8C31V028XF,3,4
108,4,object_07,object_04,546.0,7,2,417.0,0.0,1,object_10,5,1492,0,0,7,restaurant_5,1,memory-2step-stake-s,601,1915681,0.0-19.0-0.0-0.108,A2RBVMD2HTBCZ9,3DW3BNF1HKYVNTMBZS7SV7ATLD58VQ,3Z4XG4ZF4C7QD1P0P9DC8C31V028XF,8,7
109,4,object_04,object_07,586.0,7,1,325.0,0.2222222222222222,1,object_10,5,1502,0,2,5,restaurant_4,1,memory-2step-stake-s,602,1923500,0.0-19.0-0.0-0.109,A2RBVMD2HTBCZ9,3DW3BNF1HKYVNTMBZS7SV7ATLD58VQ,3Z4XG4ZF4C7QD1P0P9DC8C31V028XF,7,8
110,1,object_01,object_02,586.0,2,2,316.0,0.5555555555555556,2,object_05,1,1507,0,2,5,desert_3,1,memory-2step-stake-s,603,1931630,0.0-19.0-0.0-0.110,A2RBVMD2HTBCZ9,3DW3BNF1HKYVNTMBZS7SV7ATLD58VQ,3Z4XG4ZF4C7QD1P0P9DC8C31V028XF,1,2
111,4,object_04,object_07,625.0,8,2,365.0,0.5555555555555556,2,object_05,5,1532,0,1,5,restaurant_4,1,memory-2step-stake-s,604,1939820,0.0-19.0-0.0-0.111,A2RBVMD2HTBCZ9,3DW3BNF1HKYVNTMBZS7SV7ATLD58VQ,3Z4XG4ZF4C7QD1P0P9DC8C31V028XF,7,8
112,2,object_03,object_06,745.0,3,1,435.0,0.2222222222222222,1,object_10,1,1534,0,2,6,forest_3,1,memory-2step-stake-s,605,1947750,0.0-19.0-0.0-0.112,A2RBVMD2HTBCZ9,3DW3BNF1HKYVNTMBZS7SV7ATLD58VQ,3Z4XG4ZF4C7QD1P0P9DC8C31V028XF,3,4
113,4,object_04,object_07,475.0,8,2,355.0,0.4444444444444444,2,object_05,5,1554,0,2,4,restaurant_8,1,memory-2step-stake-s,606,1955820,0.0-19.0-0.0-0.113,A2RBVMD2HTBCZ9,3DW3BNF1HKYVNTMBZS7SV7ATLD58VQ,3Z4XG4ZF4C7QD1P0P9DC8C31V028XF,7,8
114,1,object_01,object_02,565.0,1,1,494.0,0.1111111111111111,1,object_10,1,1555,0,1,4,desert_8,1,memory-2step-stake-s,607,1963699,0.0-19.0-0.0-0.114,A2RBVMD2HTBCZ9,3DW3BNF1HKYVNTMBZS7SV7ATLD58VQ,3Z4XG4ZF4C7QD1P0P9DC8C31V028XF,1,2
115,2,object_03,object_06,645.0,4,2,497.0,0.6666666666666666,2,object_05,1,1561,0,1,6,forest_7,1,memory-2step-stake-s,608,1972119,0.0-19.0-0.0-0.115,A2RBVMD2HTBCZ9,3DW3BNF1HKYVNTMBZS7SV7ATLD58VQ,3Z4XG4ZF4C7QD1P0P9DC8C31V028XF,3,4
116,4,object_07,object_04,435.0,8,1,563.0,0.7777777777777778,2,object_05,5,1596,0,1,7,restaurant_2,1,memory-2step-stake-s,609,1980709,0.0-19.0-0.0-0.116,A2RBVMD2HTBCZ9,3DW3BNF1HKYVNTMBZS7SV7ATLD58VQ,3Z4XG4ZF4C7QD1P0P9DC8C31V028XF,8,7
117,4,object_07,object_04,354.0,7,2,303.0,0.1111111111111111,1,object_10,1,1597,0,1,6,restaurant_4,1,memory-2step-stake-s,610,1988388,0.0-19.0-0.0-0.117,A2RBVMD2HTBCZ9,3DW3BNF1HKYVNTMBZS7SV7ATLD58VQ,3Z4XG4ZF4C7QD1P0P9DC8C31V028XF,8,7
118,3,object_09,object_08,594.0,5,1,305.0,0.1111111111111111,1,object_10,5,1602,0,1,7,library_5,1,memory-2step-stake-s,611,1996068,0.0-19.0-0.0-0.118,A2RBVMD2HTBCZ9,3DW3BNF1HKYVNTMBZS7SV7ATLD58VQ,3Z4XG4ZF4C7QD1P0P9DC8C31V028XF,5,6
119,4,object_04,object_07,506.0,8,2,526.0,0.8888888888888888,2,object_05,5,1642,0,1,8,restaurant_8,1,memory-2step-stake-s,612,2004747,0.0-19.0-0.0-0.119,A2RBVMD2HTBCZ9,3DW3BNF1HKYVNTMBZS7SV7ATLD58VQ,3Z4XG4ZF4C7QD1P0P9DC8C31V028XF,7,8
120,2,object_03,object_06,554.0,3,1,285.0,0.3333333333333333,1,object_10,1,1645,0,3,7,forest_2,1,memory-2step-stake-s,613,2012638,0.0-19.0-0.0-0.120,A2RBVMD2HTBCZ9,3DW3BNF1HKYVNTMBZS7SV7ATLD58VQ,3Z4XG4ZF4C7QD1P0P9DC8C31V028XF,3,4
121,2,object_03,object_06,465.0,4,2,606.0,0.8888888888888888,2,object_05,1,1653,0,2,8,forest_3,1,memory-2step-stake-s,614,2021397,0.0-19.0-0.0-0.121,A2RBVMD2HTBCZ9,3DW3BNF1HKYVNTMBZS7SV7ATLD58VQ,3Z4XG4ZF4C7QD1P0P9DC8C31V028XF,3,4
122,4,object_07,object_04,504.0,7,2,383.0,0.3333333333333333,1,object_10,5,1668,0,3,8,restaurant_5,1,memory-2step-stake-s,615,2029387,0.0-19.0-0.0-0.122,A2RBVMD2HTBCZ9,3DW3BNF1HKYVNTMBZS7SV7ATLD58VQ,3Z4XG4ZF4C7QD1P0P9DC8C31V028XF,8,7
123,3,object_08,object_09,486.0,6,1,276.0,0.8888888888888888,2,object_05,5,1708,0,7,8,library_2,1,memory-2step-stake-s,616,2037817,0.0-19.0-0.0-0.123,A2RBVMD2HTBCZ9,3DW3BNF1HKYVNTMBZS7SV7ATLD58VQ,3Z4XG4ZF4C7QD1P0P9DC8C31V028XF,6,5
124,2,object_03,object_06,699.0,4,2,257.0,0.7777777777777778,2,object_05,5,1743,0,8,7,forest_2,1,memory-2step-stake-s,617,2046106,0.0-19.0-0.0-0.124,A2RBVMD2HTBCZ9,3DW3BNF1HKYVNTMBZS7SV7ATLD58VQ,3Z4XG4ZF4C7QD1P0P9DC8C31V028XF,3,4
125,4,object_04,object_07,697.0,7,1,340.0,0.6666666666666666,1,object_10,5,1773,0,6,7,restaurant_2,1,memory-2step-stake-s,618,2054366,0.0-19.0-0.0-0.125,A2RBVMD2HTBCZ9,3DW3BNF1HKYVNTMBZS7SV7ATLD58VQ,3Z4XG4ZF4C7QD1P0P9DC8C31V028XF,7,8
126,2,object_03,object_06,598.0,4,2,239.0,0.6666666666666666,2,object_05,5,1803,0,6,6,forest_5,1,memory-2step-stake-s,619,2062536,0.0-19.0-0.0-0.126,A2RBVMD2HTBCZ9,3DW3BNF1HKYVNTMBZS7SV7ATLD58VQ,3Z4XG4ZF4C7QD1P0P9DC8C31V028XF,3,4
127,2,object_03,object_06,700.0,3,1,430.0,0.7777777777777778,1,object_10,5,1838,0,7,6,forest_3,1,memory-2step-stake-s,620,2071006,0.0-19.0-0.0-0.127,A2RBVMD2HTBCZ9,3DW3BNF1HKYVNTMBZS7SV7ATLD58VQ,3Z4XG4ZF4C7QD1P0P9DC8C31V028XF,3,4
128,3,object_09,object_08,663.0,6,2,355.0,0.4444444444444444,2,object_05,5,1858,0,5,4,library_1,1,memory-2step-stake-s,622,2082005,0.0-19.0-0.1-0.128,A2RBVMD2HTBCZ9,3DW3BNF1HKYVNTMBZS7SV7ATLD58VQ,3Z4XG4ZF4C7QD1P0P9DC8C31V028XF,5,6
129,4,object_07,object_04,455.0,8,1,455.0,0.5555555555555556,2,object_05,1,1863,0,6,5,restaurant_4,1,memory-2step-stake-s,623,2090284,0.0-19.0-0.1-0.129,A2RBVMD2HTBCZ9,3DW3BNF1HKYVNTMBZS7SV7ATLD58VQ,3Z4XG4ZF4C7QD1P0P9DC8C31V028XF,8,7
130,2,object_03,object_06,545.0,4,2,535.0,0.5555555555555556,2,object_05,1,1868,0,6,5,forest_3,1,memory-2step-stake-s,624,2098634,0.0-19.0-0.1-0.130,A2RBVMD2HTBCZ9,3DW3BNF1HKYVNTMBZS7SV7ATLD58VQ,3Z4XG4ZF4C7QD1P0P9DC8C31V028XF,3,4
131,3,object_08,object_09,546.0,6,1,406.0,0.1111111111111111,2,object_05,5,1873,0,6,1,library_1,1,memory-2step-stake-s,625,2106424,0.0-19.0-0.1-0.131,A2RBVMD2HTBCZ9,3DW3BNF1HKYVNTMBZS7SV7ATLD58VQ,3Z4XG4ZF4C7QD1P0P9DC8C31V028XF,6,5
132,3,object_09,object_08,447.0,6,2,258.0,0.1111111111111111,2,object_05,5,1878,0,8,1,library_3,1,memory-2step-stake-s,626,2114054,0.0-19.0-0.1-0.132,A2RBVMD2HTBCZ9,3DW3BNF1HKYVNTMBZS7SV7ATLD58VQ,3Z4XG4ZF4C7QD1P0P9DC8C31V028XF,5,6
133,1,object_02,object_01,850.0,2,1,533.0,0.2222222222222222,2,object_05,1,1880,0,7,2,desert_3,1,memory-2step-stake-s,627,2122074,0.0-19.0-0.1-0.133,A2RBVMD2HTBCZ9,3DW3BNF1HKYVNTMBZS7SV7ATLD58VQ,3Z4XG4ZF4C7QD1P0P9DC8C31V028XF,2,1
134,3,object_08,object_09,973.0,5,2,434.0,0.8888888888888888,1,object_10,5,1920,0,8,1,library_3,1,memory-2step-stake-s,628,2130653,0.0-19.0-0.1-0.134,A2RBVMD2HTBCZ9,3DW3BNF1HKYVNTMBZS7SV7ATLD58VQ,3Z4XG4ZF4C7QD1P0P9DC8C31V028XF,6,5
135,2,object_06,object_03,795.0,3,2,265.0,0.8888888888888888,1,object_10,1,1928,0,8,0,forest_7,1,memory-2step-stake-s,629,2139053,0.0-19.0-0.1-0.135,A2RBVMD2HTBCZ9,3DW3BNF1HKYVNTMBZS7SV7ATLD58VQ,3Z4XG4ZF4C7QD1P0P9DC8C31V028XF,4,3
136,4,object_07,object_04,607.0,8,1,476.0,0.2222222222222222,2,object_05,5,1938,0,8,2,restaurant_4,1,memory-2step-stake-s,630,2147023,0.0-19.0-0.1-0.136,A2RBVMD2HTBCZ9,3DW3BNF1HKYVNTMBZS7SV7ATLD58VQ,3Z4XG4ZF4C7QD1P0P9DC8C31V028XF,8,7
137,2,object_03,object_06,609.0,3,1,399.0,0.8888888888888888,1,object_10,1,1946,0,8,5,forest_5,1,memory-2step-stake-s,631,2155573,0.0-19.0-0.1-0.137,A2RBVMD2HTBCZ9,3DW3BNF1HKYVNTMBZS7SV7ATLD58VQ,3Z4XG4ZF4C7QD1P0P9DC8C31V028XF,3,4
138,4,object_07,object_04,620.0,7,2,440.0,0.7777777777777778,1,object_10,5,1981,0,7,5,restaurant_8,1,memory-2step-stake-s,632,2164052,0.0-19.0-0.1-0.138,A2RBVMD2HTBCZ9,3DW3BNF1HKYVNTMBZS7SV7ATLD58VQ,3Z4XG4ZF4C7QD1P0P9DC8C31V028XF,8,7
139,1,object_02,object_01,520.0,2,1,362.0,0.1111111111111111,2,object_05,1,1982,0,8,1,desert_5,1,memory-2step-stake-s,633,2171782,0.0-19.0-0.1-0.139,A2RBVMD2HTBCZ9,3DW3BNF1HKYVNTMBZS7SV7ATLD58VQ,3Z4XG4ZF4C7QD1P0P9DC8C31V028XF,2,1
140,3,object_08,object_09,733.0,5,2,494.0,0.6666666666666666,1,object_10,5,2012,0,6,2,library_5,1,memory-2step-stake-s,634,2180191,0.0-19.0-0.1-0.140,A2RBVMD2HTBCZ9,3DW3BNF1HKYVNTMBZS7SV7ATLD58VQ,3Z4XG4ZF4C7QD1P0P9DC8C31V028XF,6,5
141,2,object_03,object_06,1003.0,4,2,575.0,0.4444444444444444,2,object_05,5,2032,0,6,4,forest_3,1,memory-2step-stake-s,635,2188471,0.0-19.0-0.1-0.141,A2RBVMD2HTBCZ9,3DW3BNF1HKYVNTMBZS7SV7ATLD58VQ,3Z4XG4ZF4C7QD1P0P9DC8C31V028XF,3,4
142,3,object_08,object_09,496.0,6,1,227.0,0.4444444444444444,2,object_05,5,2052,0,8,4,library_2,1,memory-2step-stake-s,636,2196411,0.0-19.0-0.1-0.142,A2RBVMD2HTBCZ9,3DW3BNF1HKYVNTMBZS7SV7ATLD58VQ,3Z4XG4ZF4C7QD1P0P9DC8C31V028XF,6,5
143,3,object_08,object_09,548.0,6,1,289.0,0.3333333333333333,2,object_05,1,2055,0,7,3,library_2,1,memory-2step-stake-s,637,2204290,0.0-19.0-0.1-0.143,A2RBVMD2HTBCZ9,3DW3BNF1HKYVNTMBZS7SV7ATLD58VQ,3Z4XG4ZF4C7QD1P0P9DC8C31V028XF,6,5
144,1,object_01,object_02,462.0,2,2,824.0,0.6666666666666666,2,object_05,1,2061,0,9,6,desert_5,1,memory-2step-stake-s,638,2213051,0.0-19.0-0.1-0.144,A2RBVMD2HTBCZ9,3DW3BNF1HKYVNTMBZS7SV7ATLD58VQ,3Z4XG4ZF4C7QD1P0P9DC8C31V028XF,1,2
145,3,object_09,object_08,593.0,5,1,494.0,0.8888888888888888,1,object_10,1,2069,0,8,7,library_1,1,memory-2step-stake-s,639,2221679,0.0-19.0-0.1-0.145,A2RBVMD2HTBCZ9,3DW3BNF1HKYVNTMBZS7SV7ATLD58VQ,3Z4XG4ZF4C7QD1P0P9DC8C31V028XF,5,6
146,1,object_01,object_02,734.0,2,2,515.0,0.4444444444444444,2,object_05,1,2073,0,8,4,desert_5,1,memory-2step-stake-s,640,2229900,0.0-19.0-0.1-0.146,A2RBVMD2HTBCZ9,3DW3BNF1HKYVNTMBZS7SV7ATLD58VQ,3Z4XG4ZF4C7QD1P0P9DC8C31V028XF,1,2
147,4,object_04,object_07,637.0,8,2,338.0,0.6666666666666666,2,object_05,5,2103,0,4,6,restaurant_4,1,memory-2step-stake-s,641,2238169,0.0-19.0-0.1-0.147,A2RBVMD2HTBCZ9,3DW3BNF1HKYVNTMBZS7SV7ATLD58VQ,3Z4XG4ZF4C7QD1P0P9DC8C31V028XF,7,8
148,2,object_06,object_03,569.0,4,1,448.0,0.8888888888888888,2,object_05,5,2143,0,6,8,forest_5,1,memory-2step-stake-s,642,2246759,0.0-19.0-0.1-0.148,A2RBVMD2HTBCZ9,3DW3BNF1HKYVNTMBZS7SV7ATLD58VQ,3Z4XG4ZF4C7QD1P0P9DC8C31V028XF,4,3
149,2,object_06,object_03,539.0,4,1,470.0,0.6666666666666666,2,object_05,1,2149,0,9,6,forest_5,1,memory-2step-stake-s,643,2255158,0.0-19.0-0.1-0.149,A2RBVMD2HTBCZ9,3DW3BNF1HKYVNTMBZS7SV7ATLD58VQ,3Z4XG4ZF4C7QD1P0P9DC8C31V028XF,4,3
150,4,object_04,object_07,392.0,8,2,422.0,0.6666666666666666,2,object_05,5,2179,0,8,6,restaurant_2,1,memory-2step-stake-s,644,2263509,0.0-19.0-0.1-0.150,A2RBVMD2HTBCZ9,3DW3BNF1HKYVNTMBZS7SV7ATLD58VQ,3Z4XG4ZF4C7QD1P0P9DC8C31V028XF,7,8
151,1,object_02,object_01,773.0,2,1,195.0,0.6666666666666666,2,object_05,1,2185,0,6,6,desert_5,1,memory-2step-stake-s,645,2271638,0.0-19.0-0.1-0.151,A2RBVMD2HTBCZ9,3DW3BNF1HKYVNTMBZS7SV7ATLD58VQ,3Z4XG4ZF4C7QD1P0P9DC8C31V028XF,2,1
152,3,object_09,object_08,676.0,6,2,189.0,0.8888888888888888,2,object_05,5,2225,0,9,8,library_1,1,memory-2step-stake-s,646,2279968,0.0-19.0-0.1-0.152,A2RBVMD2HTBCZ9,3DW3BNF1HKYVNTMBZS7SV7ATLD58VQ,3Z4XG4ZF4C7QD1P0P9DC8C31V028XF,5,6
153,2,object_03,object_06,720.0,3,1,520.0,0.7777777777777778,1,object_10,5,2260,0,7,7,forest_2,1,memory-2step-stake-s,647,2288517,0.0-19.0-0.1-0.153,A2RBVMD2HTBCZ9,3DW3BNF1HKYVNTMBZS7SV7ATLD58VQ,3Z4XG4ZF4C7QD1P0P9DC8C31V028XF,3,4
154,2,object_03,object_06,593.0,3,1,164.0,0.7777777777777778,1,object_10,1,2267,0,7,6,forest_7,1,memory-2step-stake-s,648,2296728,0.0-19.0-0.1-0.154,A2RBVMD2HTBCZ9,3DW3BNF1HKYVNTMBZS7SV7ATLD58VQ,3Z4XG4ZF4C7QD1P0P9DC8C31V028XF,3,4
155,3,object_08,object_09,786.0,6,1,377.0,0.5555555555555556,2,object_05,5,2292,0,9,5,library_3,1,memory-2step-stake-s,649,2304917,0.0-19.0-0.1-0.155,A2RBVMD2HTBCZ9,3DW3BNF1HKYVNTMBZS7SV7ATLD58VQ,3Z4XG4ZF4C7QD1P0P9DC8C31V028XF,6,5
156,3,object_08,object_09,1198.0,5,2,402.0,0.8888888888888888,1,object_10,1,2300,0,8,8,library_1,1,memory-2step-stake-s,650,2313467,0.0-19.0-0.1-0.156,A2RBVMD2HTBCZ9,3DW3BNF1HKYVNTMBZS7SV7ATLD58VQ,3Z4XG4ZF4C7QD1P0P9DC8C31V028XF,6,5
157,4,object_04,object_07,872.0,8,2,415.0,0.7777777777777778,2,object_05,5,2335,0,9,7,restaurant_4,1,memory-2step-stake-s,651,2321916,0.0-19.0-0.1-0.157,A2RBVMD2HTBCZ9,3DW3BNF1HKYVNTMBZS7SV7ATLD58VQ,3Z4XG4ZF4C7QD1P0P9DC8C31V028XF,7,8
158,3,object_08,object_09,885.0,5,2,269.0,0.7777777777777778,1,object_10,5,2370,0,7,8,library_5,1,memory-2step-stake-s,652,2330226,0.0-19.0-0.1-0.158,A2RBVMD2HTBCZ9,3DW3BNF1HKYVNTMBZS7SV7ATLD58VQ,3Z4XG4ZF4C7QD1P0P9DC8C31V028XF,6,5
159,3,object_09,object_08,998.0,5,1,311.0,0.7777777777777778,1,object_10,1,2377,0,7,7,library_3,1,memory-2step-stake-s,653,2338576,0.0-19.0-0.1-0.159,A2RBVMD2HTBCZ9,3DW3BNF1HKYVNTMBZS7SV7ATLD58VQ,3Z4XG4ZF4C7QD1P0P9DC8C31V028XF,5,6
160,2,object_06,object_03,733.0,3,2,513.0,1.0,1,object_10,1,2386,0,9,6,forest_7,1,memory-2step-stake-s,654,2347345,0.0-19.0-0.1-0.160,A2RBVMD2HTBCZ9,3DW3BNF1HKYVNTMBZS7SV7ATLD58VQ,3Z4XG4ZF4C7QD1P0P9DC8C31V028XF,4,3
161,2,object_06,object_03,616.0,4,1,258.0,0.4444444444444444,2,object_05,1,2390,0,8,4,forest_2,1,memory-2step-stake-s,655,2355315,0.0-19.0-0.1-0.161,A2RBVMD2HTBCZ9,3DW3BNF1HKYVNTMBZS7SV7ATLD58VQ,3Z4XG4ZF4C7QD1P0P9DC8C31V028XF,4,3
162,4,object_07,object_04,900.0,8,1,351.0,0.3333333333333333,2,object_05,1,2393,0,6,3,restaurant_8,1,memory-2step-stake-s,656,2363255,0.0-19.0-0.1-0.162,A2RBVMD2HTBCZ9,3DW3BNF1HKYVNTMBZS7SV7ATLD58VQ,3Z4XG4ZF4C7QD1P0P9DC8C31V028XF,8,7
163,2,object_06,object_03,535.0,3,2,307.0,0.6666666666666666,1,object_10,5,2423,0,6,2,forest_7,1,memory-2step-stake-s,657,2371485,0.0-19.0-0.1-0.163,A2RBVMD2HTBCZ9,3DW3BNF1HKYVNTMBZS7SV7ATLD58VQ,3Z4XG4ZF4C7QD1P0P9DC8C31V028XF,4,3
164,1,object_01,object_02,-1.0,-1,-1,-1.0,0.0,-,0,1,2423,0,3,2,desert_8,1,memory-2step-stake-s,658,2378035,0.0-19.0-0.1-0.164,A2RBVMD2HTBCZ9,3DW3BNF1HKYVNTMBZS7SV7ATLD58VQ,3Z4XG4ZF4C7QD1P0P9DC8C31V028XF,1,2
165,4,object_04,object_07,626.0,8,2,549.0,0.2222222222222222,2,object_05,5,2433,0,2,2,restaurant_4,1,memory-2step-stake-s,659,2386064,0.0-19.0-0.1-0.165,A2RBVMD2HTBCZ9,3DW3BNF1HKYVNTMBZS7SV7ATLD58VQ,3Z4XG4ZF4C7QD1P0P9DC8C31V028XF,7,8
166,1,object_01,object_02,1291.0,1,1,1392.0,0.2222222222222222,1,object_10,1,2435,0,2,1,desert_8,1,memory-2step-stake-s,660,2394934,0.0-19.0-0.1-0.166,A2RBVMD2HTBCZ9,3DW3BNF1HKYVNTMBZS7SV7ATLD58VQ,3Z4XG4ZF4C7QD1P0P9DC8C31V028XF,1,2
167,2,object_06,object_03,965.0,4,1,946.0,0.2222222222222222,2,object_05,1,2437,0,1,2,forest_3,1,memory-2step-stake-s,661,2403364,0.0-19.0-0.1-0.167,A2RBVMD2HTBCZ9,3DW3BNF1HKYVNTMBZS7SV7ATLD58VQ,3Z4XG4ZF4C7QD1P0P9DC8C31V028XF,4,3
168,1,object_01,object_02,940.0,2,2,461.0,0.2222222222222222,2,object_05,1,2439,0,3,2,desert_8,1,memory-2step-stake-s,662,2411293,0.0-19.0-0.1-0.168,A2RBVMD2HTBCZ9,3DW3BNF1HKYVNTMBZS7SV7ATLD58VQ,3Z4XG4ZF4C7QD1P0P9DC8C31V028XF,1,2
169,1,object_01,object_02,894.0,2,2,426.0,0.2222222222222222,2,object_05,1,2441,0,1,2,desert_3,1,memory-2step-stake-s,663,2419212,0.0-19.0-0.1-0.169,A2RBVMD2HTBCZ9,3DW3BNF1HKYVNTMBZS7SV7ATLD58VQ,3Z4XG4ZF4C7QD1P0P9DC8C31V028XF,1,2
170,1,object_01,object_02,650.0,1,1,521.0,0.1111111111111111,1,object_10,1,2442,0,1,1,desert_8,1,memory-2step-stake-s,664,2427112,0.0-19.0-0.1-0.170,A2RBVMD2HTBCZ9,3DW3BNF1HKYVNTMBZS7SV7ATLD58VQ,3Z4XG4ZF4C7QD1P0P9DC8C31V028XF,1,2
171,4,object_07,object_04,615.0,8,1,517.0,0.3333333333333333,2,object_05,5,2457,0,2,3,restaurant_8,1,memory-2step-stake-s,665,2435232,0.0-19.0-0.1-0.171,A2RBVMD2HTBCZ9,3DW3BNF1HKYVNTMBZS7SV7ATLD58VQ,3Z4XG4ZF4C7QD1P0P9DC8C31V028XF,8,7
172,4,object_04,object_07,671.0,8,2,373.0,0.5555555555555556,2,object_05,1,2462,0,3,5,restaurant_5,1,memory-2step-stake-s,666,2443412,0.0-19.0-0.1-0.172,A2RBVMD2HTBCZ9,3DW3BNF1HKYVNTMBZS7SV7ATLD58VQ,3Z4XG4ZF4C7QD1P0P9DC8C31V028XF,7,8
173,1,object_01,object_02,637.0,2,2,338.0,0.3333333333333333,2,object_05,1,2465,0,6,3,desert_3,1,memory-2step-stake-s,667,2451351,0.0-19.0-0.1-0.173,A2RBVMD2HTBCZ9,3DW3BNF1HKYVNTMBZS7SV7ATLD58VQ,3Z4XG4ZF4C7QD1P0P9DC8C31V028XF,1,2
174,2,object_03,object_06,572.0,4,2,474.0,0.0,2,object_05,5,2465,0,5,0,forest_7,1,memory-2step-stake-s,668,2459082,0.0-19.0-0.1-0.174,A2RBVMD2HTBCZ9,3DW3BNF1HKYVNTMBZS7SV7ATLD58VQ,3Z4XG4ZF4C7QD1P0P9DC8C31V028XF,3,4
175,4,object_04,object_07,358.0,7,1,200.0,0.4444444444444444,1,object_10,5,2485,0,4,0,restaurant_8,1,memory-2step-stake-s,669,2466982,0.0-19.0-0.1-0.175,A2RBVMD2HTBCZ9,3DW3BNF1HKYVNTMBZS7SV7ATLD58VQ,3Z4XG4ZF4C7QD1P0P9DC8C31V028XF,7,8
176,2,object_03,object_06,953.0,4,2,336.0,0.0,2,object_05,1,2485,0,4,0,forest_2,1,memory-2step-stake-s,670,2474592,0.0-19.0-0.1-0.176,A2RBVMD2HTBCZ9,3DW3BNF1HKYVNTMBZS7SV7ATLD58VQ,3Z4XG4ZF4C7QD1P0P9DC8C31V028XF,3,4
177,3,object_09,object_08,690.0,5,1,313.0,0.2222222222222222,1,object_10,5,2495,0,2,0,library_2,1,memory-2step-stake-s,671,2482381,0.0-19.0-0.1-0.177,A2RBVMD2HTBCZ9,3DW3BNF1HKYVNTMBZS7SV7ATLD58VQ,3Z4XG4ZF4C7QD1P0P9DC8C31V028XF,5,6
178,2,object_03,object_06,587.0,4,2,349.0,0.2222222222222222,2,object_05,5,2505,0,2,2,forest_5,1,memory-2step-stake-s,672,2490221,0.0-19.0-0.1-0.178,A2RBVMD2HTBCZ9,3DW3BNF1HKYVNTMBZS7SV7ATLD58VQ,3Z4XG4ZF4C7QD1P0P9DC8C31V028XF,3,4
179,1,object_01,object_02,644.0,2,2,226.0,0.4444444444444444,2,object_05,1,2509,0,2,4,desert_3,1,memory-2step-stake-s,673,2498160,0.0-19.0-0.1-0.179,A2RBVMD2HTBCZ9,3DW3BNF1HKYVNTMBZS7SV7ATLD58VQ,3Z4XG4ZF4C7QD1P0P9DC8C31V028XF,1,2
180,1,object_02,object_01,360.0,2,1,322.0,0.3333333333333333,2,object_05,1,2512,0,5,3,desert_2,1,memory-2step-stake-s,674,2506081,0.0-19.0-0.1-0.180,A2RBVMD2HTBCZ9,3DW3BNF1HKYVNTMBZS7SV7ATLD58VQ,3Z4XG4ZF4C7QD1P0P9DC8C31V028XF,2,1
181,1,object_02,object_01,617.0,1,2,228.0,0.5555555555555556,1,object_10,5,2537,0,5,4,desert_2,1,memory-2step-stake-s,675,2514161,0.0-19.0-0.1-0.181,A2RBVMD2HTBCZ9,3DW3BNF1HKYVNTMBZS7SV7ATLD58VQ,3Z4XG4ZF4C7QD1P0P9DC8C31V028XF,2,1
182,2,object_03,object_06,932.0,3,1,604.0,0.4444444444444444,1,object_10,1,2541,0,4,6,forest_5,1,memory-2step-stake-s,676,2522463,0.0-19.0-0.1-0.182,A2RBVMD2HTBCZ9,3DW3BNF1HKYVNTMBZS7SV7ATLD58VQ,3Z4XG4ZF4C7QD1P0P9DC8C31V028XF,3,4
183,3,object_08,object_09,668.0,5,2,380.0,0.4444444444444444,1,object_10,5,2561,0,4,8,library_3,1,memory-2step-stake-s,677,2530542,0.0-19.0-0.1-0.183,A2RBVMD2HTBCZ9,3DW3BNF1HKYVNTMBZS7SV7ATLD58VQ,3Z4XG4ZF4C7QD1P0P9DC8C31V028XF,6,5
184,2,object_06,object_03,764.0,4,1,328.0,0.8888888888888888,2,object_05,1,2569,0,2,8,forest_5,1,memory-2step-stake-s,678,2539022,0.0-19.0-0.1-0.184,A2RBVMD2HTBCZ9,3DW3BNF1HKYVNTMBZS7SV7ATLD58VQ,3Z4XG4ZF4C7QD1P0P9DC8C31V028XF,4,3
185,1,object_01,object_02,740.0,1,1,251.0,0.2222222222222222,1,object_10,1,2571,0,2,9,desert_5,1,memory-2step-stake-s,679,2546762,0.0-19.0-0.1-0.185,A2RBVMD2HTBCZ9,3DW3BNF1HKYVNTMBZS7SV7ATLD58VQ,3Z4XG4ZF4C7QD1P0P9DC8C31V028XF,1,2
186,3,object_08,object_09,757.0,5,2,270.0,0.3333333333333333,1,object_10,5,2586,0,3,7,library_2,1,memory-2step-stake-s,680,2554632,0.0-19.0-0.1-0.186,A2RBVMD2HTBCZ9,3DW3BNF1HKYVNTMBZS7SV7ATLD58VQ,3Z4XG4ZF4C7QD1P0P9DC8C31V028XF,6,5
187,2,object_03,object_06,684.0,3,1,305.0,0.4444444444444444,1,object_10,1,2590,0,4,8,forest_2,1,memory-2step-stake-s,681,2562641,0.0-19.0-0.1-0.187,A2RBVMD2HTBCZ9,3DW3BNF1HKYVNTMBZS7SV7ATLD58VQ,3Z4XG4ZF4C7QD1P0P9DC8C31V028XF,3,4
188,4,object_07,object_04,833.0,8,1,470.0,0.7777777777777778,2,object_05,5,2625,0,6,7,restaurant_8,1,memory-2step-stake-s,682,2571141,0.0-19.0-0.1-0.188,A2RBVMD2HTBCZ9,3DW3BNF1HKYVNTMBZS7SV7ATLD58VQ,3Z4XG4ZF4C7QD1P0P9DC8C31V028XF,8,7
189,2,object_03,object_06,694.0,3,1,275.0,0.8888888888888888,1,object_10,1,2633,0,8,7,forest_7,1,memory-2step-stake-s,683,2579571,0.0-19.0-0.1-0.189,A2RBVMD2HTBCZ9,3DW3BNF1HKYVNTMBZS7SV7ATLD58VQ,3Z4XG4ZF4C7QD1P0P9DC8C31V028XF,3,4
190,3,object_09,object_08,651.0,6,2,272.0,0.6666666666666666,2,object_05,5,2663,0,7,6,library_2,1,memory-2step-stake-s,684,2587760,0.0-19.0-0.1-0.190,A2RBVMD2HTBCZ9,3DW3BNF1HKYVNTMBZS7SV7ATLD58VQ,3Z4XG4ZF4C7QD1P0P9DC8C31V028XF,5,6
191,4,object_07,object_04,686.0,8,1,418.0,0.6666666666666666,2,object_05,5,2693,0,9,6,restaurant_2,1,memory-2step-stake-s,685,2596110,0.0-19.0-0.1-0.191,A2RBVMD2HTBCZ9,3DW3BNF1HKYVNTMBZS7SV7ATLD58VQ,3Z4XG4ZF4C7QD1P0P9DC8C31V028XF,8,7
192,2,object_06,object_03,693.0,3,2,303.0,0.7777777777777778,1,object_10,1,2700,0,7,6,forest_3,1,memory-2step-stake-s,686,2604429,0.0-19.0-0.1-0.192,A2RBVMD2HTBCZ9,3DW3BNF1HKYVNTMBZS7SV7ATLD58VQ,3Z4XG4ZF4C7QD1P0P9DC8C31V028XF,4,3
193,4,object_04,object_07,506.0,8,2,260.0,0.4444444444444444,2,object_05,5,2720,0,5,4,restaurant_2,1,memory-2step-stake-s,687,2612400,0.0-19.0-0.1-0.193,A2RBVMD2HTBCZ9,3DW3BNF1HKYVNTMBZS7SV7ATLD58VQ,3Z4XG4ZF4C7QD1P0P9DC8C31V028XF,7,8
194,2,object_03,object_06,432.0,3,1,336.0,0.7777777777777778,1,object_10,1,2727,0,7,5,forest_3,1,memory-2step-stake-s,688,2620780,0.0-19.0-0.1-0.194,A2RBVMD2HTBCZ9,3DW3BNF1HKYVNTMBZS7SV7ATLD58VQ,3Z4XG4ZF4C7QD1P0P9DC8C31V028XF,3,4
195,3,object_09,object_08,628.0,6,2,289.0,0.6666666666666666,2,object_05,5,2757,0,8,6,library_3,1,memory-2step-stake-s,689,2628999,0.0-19.0-0.1-0.195,A2RBVMD2HTBCZ9,3DW3BNF1HKYVNTMBZS7SV7ATLD58VQ,3Z4XG4ZF4C7QD1P0P9DC8C31V028XF,5,6
196,2,object_03,object_06,585.0,3,1,340.0,0.8888888888888888,1,object_10,1,2765,0,8,7,forest_3,1,memory-2step-stake-s,690,2637479,0.0-19.0-0.1-0.196,A2RBVMD2HTBCZ9,3DW3BNF1HKYVNTMBZS7SV7ATLD58VQ,3Z4XG4ZF4C7QD1P0P9DC8C31V028XF,3,4
197,3,object_09,object_08,619.0,6,2,272.0,0.7777777777777778,2,object_05,1,2772,0,4,7,library_2,1,memory-2step-stake-s,691,2645780,0.0-19.0-0.1-0.197,A2RBVMD2HTBCZ9,3DW3BNF1HKYVNTMBZS7SV7ATLD58VQ,3Z4XG4ZF4C7QD1P0P9DC8C31V028XF,5,6
198,3,object_08,object_09,585.0,6,1,308.0,0.8888888888888888,2,object_05,1,2780,0,9,8,library_3,1,memory-2step-stake-s,692,2654240,0.0-19.0-0.1-0.198,A2RBVMD2HTBCZ9,3DW3BNF1HKYVNTMBZS7SV7ATLD58VQ,3Z4XG4ZF4C7QD1P0P9DC8C31V028XF,6,5
199,3,object_09,object_08,631.0,6,2,393.0,0.8888888888888888,2,object_05,5,2820,0,5,8,library_1,1,memory-2step-stake-s,693,2662770,0.0-19.0-0.1-0.199,A2RBVMD2HTBCZ9,3DW3BNF1HKYVNTMBZS7SV7ATLD58VQ,3Z4XG4ZF4C7QD1P0P9DC8C31V028XF,5,6
200,1,object_02,object_01,687.0,2,1,279.0,0.7777777777777778,2,object_05,5,2855,0,5,7,desert_5,1,memory-2step-stake-s,694,2671089,0.0-19.0-0.1-0.200,A2RBVMD2HTBCZ9,3DW3BNF1HKYVNTMBZS7SV7ATLD58VQ,3Z4XG4ZF4C7QD1P0P9DC8C31V028XF,2,1
201,3,object_08,object_09,1143.0,5,2,314.0,0.5555555555555556,1,object_10,5,2880,0,5,8,library_3,1,memory-2step-stake-s,695,2679229,0.0-19.0-0.1-0.201,A2RBVMD2HTBCZ9,3DW3BNF1HKYVNTMBZS7SV7ATLD58VQ,3Z4XG4ZF4C7QD1P0P9DC8C31V028XF,6,5
202,2,object_03,object_06,580.0,3,1,252.0,0.7777777777777778,1,object_10,1,2887,0,7,9,forest_7,1,memory-2step-stake-s,696,2687508,0.0-19.0-0.1-0.202,A2RBVMD2HTBCZ9,3DW3BNF1HKYVNTMBZS7SV7ATLD58VQ,3Z4XG4ZF4C7QD1P0P9DC8C31V028XF,3,4
203,1,object_01,object_02,635.0,2,2,309.0,1.0,2,object_05,1,2896,0,8,9,desert_2,1,memory-2step-stake-s,697,2696068,0.0-19.0-0.1-0.203,A2RBVMD2HTBCZ9,3DW3BNF1HKYVNTMBZS7SV7ATLD58VQ,3Z4XG4ZF4C7QD1P0P9DC8C31V028XF,1,2
204,3,object_09,object_08,623.0,5,1,364.0,0.8888888888888888,1,object_10,5,2936,0,8,8,library_3,1,memory-2step-stake-s,698,2704578,0.0-19.0-0.1-0.204,A2RBVMD2HTBCZ9,3DW3BNF1HKYVNTMBZS7SV7ATLD58VQ,3Z4XG4ZF4C7QD1P0P9DC8C31V028XF,5,6
205,3,object_09,object_08,538.0,6,2,331.0,1.0,2,object_05,5,2981,0,8,9,library_2,1,memory-2step-stake-s,699,2713167,0.0-19.0-0.1-0.205,A2RBVMD2HTBCZ9,3DW3BNF1HKYVNTMBZS7SV7ATLD58VQ,3Z4XG4ZF4C7QD1P0P9DC8C31V028XF,5,6
206,1,object_01,object_02,544.0,1,1,294.0,1.0,1,object_10,5,3026,0,9,7,desert_3,1,memory-2step-stake-s,700,2721727,0.0-19.0-0.1-0.206,A2RBVMD2HTBCZ9,3DW3BNF1HKYVNTMBZS7SV7ATLD58VQ,3Z4XG4ZF4C7QD1P0P9DC8C31V028XF,1,2
207,2,object_03,object_06,660.0,4,2,253.0,0.7777777777777778,2,object_05,1,3033,0,7,7,forest_7,1,memory-2step-stake-s,701,2730017,0.0-19.0-0.1-0.207,A2RBVMD2HTBCZ9,3DW3BNF1HKYVNTMBZS7SV7ATLD58VQ,3Z4XG4ZF4C7QD1P0P9DC8C31V028XF,3,4
208,2,object_06,object_03,558.0,4,1,311.0,0.7777777777777778,2,object_05,5,3068,0,7,7,forest_5,1,memory-2step-stake-s,702,2738356,0.0-19.0-0.1-0.208,A2RBVMD2HTBCZ9,3DW3BNF1HKYVNTMBZS7SV7ATLD58VQ,3Z4XG4ZF4C7QD1P0P9DC8C31V028XF,4,3
209,2,object_06,object_03,673.0,3,2,236.0,0.8888888888888888,1,object_10,1,3076,0,8,5,forest_5,1,memory-2step-stake-s,703,2746737,0.0-19.0-0.1-0.209,A2RBVMD2HTBCZ9,3DW3BNF1HKYVNTMBZS7SV7ATLD58VQ,3Z4XG4ZF4C7QD1P0P9DC8C31V028XF,4,3
210,1,object_01,object_02,870.0,1,1,382.0,0.4444444444444444,1,object_10,1,3080,0,4,4,desert_2,1,memory-2step-stake-s,704,2754816,0.0-19.0-0.1-0.210,A2RBVMD2HTBCZ9,3DW3BNF1HKYVNTMBZS7SV7ATLD58VQ,3Z4XG4ZF4C7QD1P0P9DC8C31V028XF,1,2
211,4,object_04,object_07,668.0,8,2,302.0,0.6666666666666666,2,object_05,5,3110,0,7,6,restaurant_5,1,memory-2step-stake-s,705,2763036,0.0-19.0-0.1-0.211,A2RBVMD2HTBCZ9,3DW3BNF1HKYVNTMBZS7SV7ATLD58VQ,3Z4XG4ZF4C7QD1P0P9DC8C31V028XF,7,8
212,1,object_02,object_01,825.0,2,1,277.0,0.6666666666666666,2,object_05,1,3116,0,8,6,desert_2,1,memory-2step-stake-s,706,2771235,0.0-19.0-0.1-0.212,A2RBVMD2HTBCZ9,3DW3BNF1HKYVNTMBZS7SV7ATLD58VQ,3Z4XG4ZF4C7QD1P0P9DC8C31V028XF,2,1
213,3,object_09,object_08,643.0,6,2,274.0,0.7777777777777778,2,object_05,5,3151,0,8,7,library_1,1,memory-2step-stake-s,707,2779555,0.0-19.0-0.1-0.213,A2RBVMD2HTBCZ9,3DW3BNF1HKYVNTMBZS7SV7ATLD58VQ,3Z4XG4ZF4C7QD1P0P9DC8C31V028XF,5,6
214,3,object_08,object_09,540.0,6,1,263.0,0.7777777777777778,2,object_05,5,3186,0,5,7,library_1,1,memory-2step-stake-s,708,2787855,0.0-19.0-0.1-0.214,A2RBVMD2HTBCZ9,3DW3BNF1HKYVNTMBZS7SV7ATLD58VQ,3Z4XG4ZF4C7QD1P0P9DC8C31V028XF,6,5
215,4,object_07,object_04,568.0,7,2,389.0,0.6666666666666666,1,object_10,5,3216,0,6,4,restaurant_8,1,memory-2step-stake-s,709,2796164,0.0-19.0-0.1-0.215,A2RBVMD2HTBCZ9,3DW3BNF1HKYVNTMBZS7SV7ATLD58VQ,3Z4XG4ZF4C7QD1P0P9DC8C31V028XF,8,7
216,1,object_01,object_02,613.0,1,1,207.0,0.5555555555555556,1,object_10,1,3221,0,5,4,desert_8,1,memory-2step-stake-s,710,2804185,0.0-19.0-0.1-0.216,A2RBVMD2HTBCZ9,3DW3BNF1HKYVNTMBZS7SV7ATLD58VQ,3Z4XG4ZF4C7QD1P0P9DC8C31V028XF,1,2
217,2,object_06,object_03,660.0,3,2,283.0,0.4444444444444444,1,object_10,1,3225,0,4,8,forest_7,1,memory-2step-stake-s,711,2812164,0.0-19.0-0.1-0.217,A2RBVMD2HTBCZ9,3DW3BNF1HKYVNTMBZS7SV7ATLD58VQ,3Z4XG4ZF4C7QD1P0P9DC8C31V028XF,4,3
218,1,object_02,object_01,467.0,2,1,271.0,0.8888888888888888,2,object_05,5,3265,0,4,8,desert_8,1,memory-2step-stake-s,712,2820573,0.0-19.0-0.1-0.218,A2RBVMD2HTBCZ9,3DW3BNF1HKYVNTMBZS7SV7ATLD58VQ,3Z4XG4ZF4C7QD1P0P9DC8C31V028XF,2,1
219,2,object_06,object_03,468.0,3,2,198.0,0.5555555555555556,1,object_10,1,3270,0,5,6,forest_2,1,memory-2step-stake-s,713,2828593,0.0-19.0-0.1-0.219,A2RBVMD2HTBCZ9,3DW3BNF1HKYVNTMBZS7SV7ATLD58VQ,3Z4XG4ZF4C7QD1P0P9DC8C31V028XF,4,3
220,4,object_07,object_04,542.0,8,1,334.0,0.7777777777777778,2,object_05,5,3305,0,4,7,restaurant_2,1,memory-2step-stake-s,714,2836953,0.0-19.0-0.1-0.220,A2RBVMD2HTBCZ9,3DW3BNF1HKYVNTMBZS7SV7ATLD58VQ,3Z4XG4ZF4C7QD1P0P9DC8C31V028XF,8,7
221,4,object_07,object_04,578.0,8,1,441.0,0.6666666666666666,2,object_05,1,3311,0,5,6,restaurant_4,1,memory-2step-stake-s,715,2845323,0.0-19.0-0.1-0.221,A2RBVMD2HTBCZ9,3DW3BNF1HKYVNTMBZS7SV7ATLD58VQ,3Z4XG4ZF4C7QD1P0P9DC8C31V028XF,8,7
222,3,object_08,object_09,656.0,5,2,287.0,0.5555555555555556,1,object_10,5,3336,0,5,5,library_5,1,memory-2step-stake-s,716,2853433,0.0-19.0-0.1-0.222,A2RBVMD2HTBCZ9,3DW3BNF1HKYVNTMBZS7SV7ATLD58VQ,3Z4XG4ZF4C7QD1P0P9DC8C31V028XF,6,5
223,3,object_09,object_08,523.0,5,1,276.0,0.6666666666666666,1,object_10,5,3366,0,6,3,library_1,1,memory-2step-stake-s,717,2861642,0.0-19.0-0.1-0.223,A2RBVMD2HTBCZ9,3DW3BNF1HKYVNTMBZS7SV7ATLD58VQ,3Z4XG4ZF4C7QD1P0P9DC8C31V028XF,5,6
224,3,object_09,object_08,749.0,6,2,527.0,0.2222222222222222,2,object_05,5,3376,0,3,2,library_2,1,memory-2step-stake-s,718,2869662,0.0-19.0-0.1-0.224,A2RBVMD2HTBCZ9,3DW3BNF1HKYVNTMBZS7SV7ATLD58VQ,3Z4XG4ZF4C7QD1P0P9DC8C31V028XF,5,6
225,4,object_07,object_04,528.0,8,1,869.0,0.1111111111111111,2,object_05,5,3381,0,2,1,restaurant_5,1,memory-2step-stake-s,719,2877901,0.0-19.0-0.1-0.225,A2RBVMD2HTBCZ9,3DW3BNF1HKYVNTMBZS7SV7ATLD58VQ,3Z4XG4ZF4C7QD1P0P9DC8C31V028XF,8,7
226,1,object_02,object_01,513.0,1,2,405.0,0.4444444444444444,1,object_10,1,3385,0,4,3,desert_2,1,memory-2step-stake-s,720,2886021,0.0-19.0-0.1-0.226,A2RBVMD2HTBCZ9,3DW3BNF1HKYVNTMBZS7SV7ATLD58VQ,3Z4XG4ZF4C7QD1P0P9DC8C31V028XF,2,1
227,3,object_09,object_08,679.0,5,1,481.0,0.4444444444444444,1,object_10,5,3405,0,4,2,library_2,1,memory-2step-stake-s,721,2894201,0.0-19.0-0.1-0.227,A2RBVMD2HTBCZ9,3DW3BNF1HKYVNTMBZS7SV7ATLD58VQ,3Z4XG4ZF4C7QD1P0P9DC8C31V028XF,5,6
228,2,object_06,object_03,688.0,3,2,358.0,0.5555555555555556,1,object_10,5,3430,0,5,0,forest_7,1,memory-2step-stake-s,722,2902380,0.0-19.0-0.1-0.228,A2RBVMD2HTBCZ9,3DW3BNF1HKYVNTMBZS7SV7ATLD58VQ,3Z4XG4ZF4C7QD1P0P9DC8C31V028XF,4,3
229,4,object_04,object_07,654.0,7,1,564.0,0.5555555555555556,1,object_10,5,3455,0,5,1,restaurant_5,1,memory-2step-stake-s,723,2910770,0.0-19.0-0.1-0.229,A2RBVMD2HTBCZ9,3DW3BNF1HKYVNTMBZS7SV7ATLD58VQ,3Z4XG4ZF4C7QD1P0P9DC8C31V028XF,7,8
230,1,object_02,object_01,680.0,2,1,511.0,0.0,2,object_05,1,3455,0,6,0,desert_2,1,memory-2step-stake-s,724,2918550,0.0-19.0-0.1-0.230,A2RBVMD2HTBCZ9,3DW3BNF1HKYVNTMBZS7SV7ATLD58VQ,3Z4XG4ZF4C7QD1P0P9DC8C31V028XF,2,1
231,4,object_07,object_04,568.0,7,2,250.0,0.3333333333333333,1,object_10,1,3458,0,3,1,restaurant_4,1,memory-2step-stake-s,725,2926389,0.0-19.0-0.1-0.231,A2RBVMD2HTBCZ9,3DW3BNF1HKYVNTMBZS7SV7ATLD58VQ,3Z4XG4ZF4C7QD1P0P9DC8C31V028XF,8,7
232,2,object_03,object_06,1214.0,3,1,428.0,0.3333333333333333,1,object_10,5,3473,0,3,0,forest_5,1,memory-2step-stake-s,726,2934419,0.0-19.0-0.1-0.232,A2RBVMD2HTBCZ9,3DW3BNF1HKYVNTMBZS7SV7ATLD58VQ,3Z4XG4ZF4C7QD1P0P9DC8C31V028XF,3,4
233,1,object_02,object_01,783.0,2,1,736.0,0.2222222222222222,2,object_05,5,3483,0,3,2,desert_2,1,memory-2step-stake-s,727,2942640,0.0-19.0-0.1-0.233,A2RBVMD2HTBCZ9,3DW3BNF1HKYVNTMBZS7SV7ATLD58VQ,3Z4XG4ZF4C7QD1P0P9DC8C31V028XF,2,1
234,1,object_02,object_01,740.0,1,2,364.0,0.4444444444444444,1,object_10,1,3487,0,4,0,desert_5,1,memory-2step-stake-s,728,2950709,0.0-19.0-0.1-0.234,A2RBVMD2HTBCZ9,3DW3BNF1HKYVNTMBZS7SV7ATLD58VQ,3Z4XG4ZF4C7QD1P0P9DC8C31V028XF,2,1
235,1,object_02,object_01,547.0,1,2,839.0,0.8888888888888888,1,object_10,1,3495,0,8,1,desert_2,1,memory-2step-stake-s,729,2959699,0.0-19.0-0.1-0.235,A2RBVMD2HTBCZ9,3DW3BNF1HKYVNTMBZS7SV7ATLD58VQ,3Z4XG4ZF4C7QD1P0P9DC8C31V028XF,2,1
236,1,object_02,object_01,663.0,1,2,365.0,0.8888888888888888,1,object_10,1,3503,0,8,1,desert_5,1,memory-2step-stake-s,730,2968209,0.0-19.0-0.1-0.236,A2RBVMD2HTBCZ9,3DW3BNF1HKYVNTMBZS7SV7ATLD58VQ,3Z4XG4ZF4C7QD1P0P9DC8C31V028XF,2,1
237,2,object_06,object_03,370.0,4,1,311.0,0.0,2,object_05,5,3503,0,7,0,forest_2,1,memory-2step-stake-s,731,2975788,0.0-19.0-0.1-0.237,A2RBVMD2HTBCZ9,3DW3BNF1HKYVNTMBZS7SV7ATLD58VQ,3Z4XG4ZF4C7QD1P0P9DC8C31V028XF,4,3
238,1,object_02,object_01,409.0,1,2,292.0,0.8888888888888888,1,object_10,1,3511,0,8,1,desert_5,1,memory-2step-stake-s,732,2984218,0.0-19.0-0.1-0.238,A2RBVMD2HTBCZ9,3DW3BNF1HKYVNTMBZS7SV7ATLD58VQ,3Z4XG4ZF4C7QD1P0P9DC8C31V028XF,2,1
239,3,object_09,object_08,715.0,5,1,467.0,0.7777777777777778,1,object_10,5,3546,0,7,3,library_5,1,memory-2step-stake-s,733,2992717,0.0-19.0-0.1-0.239,A2RBVMD2HTBCZ9,3DW3BNF1HKYVNTMBZS7SV7ATLD58VQ,3Z4XG4ZF4C7QD1P0P9DC8C31V028XF,5,6
240,1,object_01,object_02,581.0,2,2,434.0,0.1111111111111111,2,object_05,1,3547,0,3,1,desert_3,1,memory-2step-stake-s,734,3000517,0.0-19.0-0.1-0.240,A2RBVMD2HTBCZ9,3DW3BNF1HKYVNTMBZS7SV7ATLD58VQ,3Z4XG4ZF4C7QD1P0P9DC8C31V028XF,1,2
241,1,object_02,object_01,768.0,1,2,502.0,0.4444444444444444,1,object_10,5,3567,0,4,1,desert_2,1,memory-2step-stake-s,735,3008717,0.0-19.0-0.1-0.241,A2RBVMD2HTBCZ9,3DW3BNF1HKYVNTMBZS7SV7ATLD58VQ,3Z4XG4ZF4C7QD1P0P9DC8C31V028XF,2,1
242,3,object_09,object_08,736.0,5,1,559.0,0.4444444444444444,1,object_10,5,3587,0,4,0,library_3,1,memory-2step-stake-s,736,3016986,0.0-19.0-0.1-0.242,A2RBVMD2HTBCZ9,3DW3BNF1HKYVNTMBZS7SV7ATLD58VQ,3Z4XG4ZF4C7QD1P0P9DC8C31V028XF,5,6
243,4,object_07,object_04,803.0,8,1,454.0,0.2222222222222222,2,object_05,5,3597,0,3,2,restaurant_8,1,memory-2step-stake-s,737,3024926,0.0-19.0-0.1-0.243,A2RBVMD2HTBCZ9,3DW3BNF1HKYVNTMBZS7SV7ATLD58VQ,3Z4XG4ZF4C7QD1P0P9DC8C31V028XF,8,7
244,2,object_06,object_03,630.0,3,2,482.0,0.1111111111111111,1,object_10,1,3598,0,1,2,forest_5,1,memory-2step-stake-s,738,3032776,0.0-19.0-0.1-0.244,A2RBVMD2HTBCZ9,3DW3BNF1HKYVNTMBZS7SV7ATLD58VQ,3Z4XG4ZF4C7QD1P0P9DC8C31V028XF,4,3
245,3,object_09,object_08,490.0,5,1,240.0,0.0,1,object_10,1,3598,0,0,4,library_2,1,memory-2step-stake-s,739,3040275,0.0-19.0-0.1-0.245,A2RBVMD2HTBCZ9,3DW3BNF1HKYVNTMBZS7SV7ATLD58VQ,3Z4XG4ZF4C7QD1P0P9DC8C31V028XF,5,6
246,1,object_02,object_01,428.0,1,2,220.0,0.1111111111111111,1,object_10,5,3603,0,1,6,desert_5,1,memory-2step-stake-s,740,3047875,0.0-19.0-0.1-0.246,A2RBVMD2HTBCZ9,3DW3BNF1HKYVNTMBZS7SV7ATLD58VQ,3Z4XG4ZF4C7QD1P0P9DC8C31V028XF,2,1
247,1,object_02,object_01,585.0,2,1,298.0,0.6666666666666666,2,object_05,5,3633,0,0,6,desert_5,1,memory-2step-stake-s,741,3056105,0.0-19.0-0.1-0.247,A2RBVMD2HTBCZ9,3DW3BNF1HKYVNTMBZS7SV7ATLD58VQ,3Z4XG4ZF4C7QD1P0P9DC8C31V028XF,2,1
248,1,object_01,object_02,693.0,1,1,286.0,0.3333333333333333,1,object_10,1,3636,0,3,7,desert_8,1,memory-2step-stake-s,742,3063995,0.0-19.0-0.1-0.248,A2RBVMD2HTBCZ9,3DW3BNF1HKYVNTMBZS7SV7ATLD58VQ,3Z4XG4ZF4C7QD1P0P9DC8C31V028XF,1,2
249,3,object_09,object_08,653.0,6,2,432.0,0.4444444444444444,2,object_05,5,3656,0,6,4,library_1,1,memory-2step-stake-s,743,3072124,0.0-19.0-0.1-0.249,A2RBVMD2HTBCZ9,3DW3BNF1HKYVNTMBZS7SV7ATLD58VQ,3Z4XG4ZF4C7QD1P0P9DC8C31V028XF,5,6
250,4,object_04,object_07,847.0,7,1,270.0,0.6666666666666666,1,object_10,5,3686,0,6,5,restaurant_4,1,memory-2step-stake-s,744,3080315,0.0-19.0-0.1-0.250,A2RBVMD2HTBCZ9,3DW3BNF1HKYVNTMBZS7SV7ATLD58VQ,3Z4XG4ZF4C7QD1P0P9DC8C31V028XF,7,8
251,4,object_07,object_04,645.0,8,1,291.0,0.4444444444444444,2,object_05,5,3706,0,7,4,restaurant_2,1,memory-2step-stake-s,745,3088304,0.0-19.0-0.1-0.251,A2RBVMD2HTBCZ9,3DW3BNF1HKYVNTMBZS7SV7ATLD58VQ,3Z4XG4ZF4C7QD1P0P9DC8C31V028XF,8,7
252,4,object_04,object_07,684.0,8,2,436.0,0.5555555555555556,2,object_05,5,3731,0,8,5,restaurant_2,1,memory-2step-stake-s,746,3096564,0.0-19.0-0.1-0.252,A2RBVMD2HTBCZ9,3DW3BNF1HKYVNTMBZS7SV7ATLD58VQ,3Z4XG4ZF4C7QD1P0P9DC8C31V028XF,7,8
253,3,object_09,object_08,811.0,6,2,245.0,0.3333333333333333,2,object_05,5,3746,0,8,3,library_1,1,memory-2step-stake-s,747,3104394,0.0-19.0-0.1-0.253,A2RBVMD2HTBCZ9,3DW3BNF1HKYVNTMBZS7SV7ATLD58VQ,3Z4XG4ZF4C7QD1P0P9DC8C31V028XF,5,6
254,3,object_08,object_09,570.0,6,1,432.0,0.6666666666666666,2,object_05,5,3776,0,6,6,library_3,1,memory-2step-stake-s,748,3112743,0.0-19.0-0.1-0.254,A2RBVMD2HTBCZ9,3DW3BNF1HKYVNTMBZS7SV7ATLD58VQ,3Z4XG4ZF4C7QD1P0P9DC8C31V028XF,6,5
255,4,object_07,object_04,615.0,7,2,358.0,0.8888888888888888,1,object_10,1,3784,0,8,6,restaurant_4,1,memory-2step-stake-s,749,3121253,0.0-19.0-0.1-0.255,A2RBVMD2HTBCZ9,3DW3BNF1HKYVNTMBZS7SV7ATLD58VQ,3Z4XG4ZF4C7QD1P0P9DC8C31V028XF,8,7
