,state1,stim_left,stim_right,rt_1,choice1,response1,rt_2,points,state2,stim_state2,stake,score,practice,rews1,rews2,background,high_arm,trial_type,trial_index,time_elapsed,internal_node_id,subid,hitid,assignmentid,stim_left_num,stim_right_num
0,1,object_03,object_02,-1.0,-1,-1,-1.0,0.0,-,0,5,0,0,0,2,desert_3,2,memory-2step-stake-s,497,800130,0.0-19.0-0.0-0.0,A1Q56N80RJLQ7S,3Q9SPIIRXM2ML6FVM0W2D0Z2IA6WAR,3RXCAC0YIV5FRFUA0ZD8KQ36SAF8GW,2,1
1,3,object_06,object_09,236.29999998212,6,1,-1.0,0.0,2,object_07,5,0,0,1,2,library_1,2,memory-2step-stake-s,498,808637,0.0-19.0-0.0-0.1,A1Q56N80RJLQ7S,3Q9SPIIRXM2ML6FVM0W2D0Z2IA6WAR,3RXCAC0YIV5FRFUA0ZD8KQ36SAF8GW,6,5
2,3,object_09,object_06,467.90000000596,6,2,-1.0,0.0,2,object_07,5,0,0,5,1,library_6,2,memory-2step-stake-s,499,817145,0.0-19.0-0.0-0.2,A1Q56N80RJLQ7S,3Q9SPIIRXM2ML6FVM0W2D0Z2IA6WAR,3RXCAC0YIV5FRFUA0ZD8KQ36SAF8GW,5,6
3,4,object_01,object_10,1002.6000000238,8,1,-1.0,0.0,2,object_07,1,0,0,5,3,restaurant_8,2,memory-2step-stake-s,500,825673,0.0-19.0-0.0-0.3,A1Q56N80RJLQ7S,3Q9SPIIRXM2ML6FVM0W2D0Z2IA6WAR,3RXCAC0YIV5FRFUA0ZD8KQ36SAF8GW,8,7
4,4,object_01,object_10,763.20000001788,7,2,-1.0,0.0,1,object_04,1,0,0,5,2,restaurant_1,2,memory-2step-stake-s,501,834179,0.0-19.0-0.0-0.4,A1Q56N80RJLQ7S,3Q9SPIIRXM2ML6FVM0W2D0Z2IA6WAR,3RXCAC0YIV5FRFUA0ZD8KQ36SAF8GW,8,7
5,4,object_01,object_10,1140.0,8,1,-1.0,0.0,2,object_07,5,0,0,6,2,restaurant_7,2,memory-2step-stake-s,502,842685,0.0-19.0-0.0-0.5,A1Q56N80RJLQ7S,3Q9SPIIRXM2ML6FVM0W2D0Z2IA6WAR,3RXCAC0YIV5FRFUA0ZD8KQ36SAF8GW,8,7
6,2,object_08,object_05,544.69999998808,4,2,-1.0,0.0,2,object_07,1,0,0,2,5,forest_7,2,memory-2step-stake-s,503,851192,0.0-19.0-0.0-0.6,A1Q56N80RJLQ7S,3Q9SPIIRXM2ML6FVM0W2D0Z2IA6WAR,3RXCAC0YIV5FRFUA0ZD8KQ36SAF8GW,3,4
7,4,object_10,object_01,380.5,7,1,-1.0,0.0,1,object_04,1,0,0,5,4,restaurant_2,2,memory-2step-stake-s,504,859699,0.0-19.0-0.0-0.7,A1Q56N80RJLQ7S,3Q9SPIIRXM2ML6FVM0W2D0Z2IA6WAR,3RXCAC0YIV5FRFUA0ZD8KQ36SAF8GW,7,8
8,4,object_10,object_01,333.5,8,2,-1.0,0.0,2,object_07,5,0,0,5,3,restaurant_8,2,memory-2step-stake-s,505,868205,0.0-19.0-0.0-0.8,A1Q56N80RJLQ7S,3Q9SPIIRXM2ML6FVM0W2D0Z2IA6WAR,3RXCAC0YIV5FRFUA0ZD8KQ36SAF8GW,7,8
9,2,object_05,object_08,253.69999998808,4,1,-1.0,0.0,2,object_07,5,0,0,3,3,forest_7,2,memory-2step-stake-s,506,876712,0.0-19.0-0.0-0.9,A1Q56N80RJLQ7S,3Q9SPIIRXM2ML6FVM0W2D0Z2IA6WAR,3RXCAC0YIV5FRFUA0ZD8KQ36SAF8GW,4,3
10,3,object_09,object_06,48.600000023842,5,1,-1.0,0.0,1,object_04,1,0,0,1,0,library_3,2,memory-2step-stake-s,507,885219,0.0-19.0-0.0-0.10,A1Q56N80RJLQ7S,3Q9SPIIRXM2ML6FVM0W2D0Z2IA6WAR,3RXCAC0YIV5FRFUA0ZD8KQ36SAF8GW,5,6
11,2,object_08,object_05,123.69999998808,3,1,-1.0,0.0,1,object_04,1,0,0,3,2,forest_4,2,memory-2step-stake-s,508,893727,0.0-19.0-0.0-0.11,A1Q56N80RJLQ7S,3Q9SPIIRXM2ML6FVM0W2D0Z2IA6WAR,3RXCAC0YIV5FRFUA0ZD8KQ36SAF8GW,3,4
12,3,object_09,object_06,-1.0,-1,-1,-1.0,0.0,-,0,1,0,0,7,2,library_1,2,memory-2step-stake-s,509,900232,0.0-19.0-0.0-0.12,A1Q56N80RJLQ7S,3Q9SPIIRXM2ML6FVM0W2D0Z2IA6WAR,3RXCAC0YIV5FRFUA0ZD8KQ36SAF8GW,5,6
13,4,object_10,object_01,328.89999997616,7,1,-1.0,0.0,1,object_04,1,0,0,9,2,restaurant_2,2,memory-2step-stake-s,510,908739,0.0-19.0-0.0-0.13,A1Q56N80RJLQ7S,3Q9SPIIRXM2ML6FVM0W2D0Z2IA6WAR,3RXCAC0YIV5FRFUA0ZD8KQ36SAF8GW,7,8
14,4,object_10,object_01,222.0,7,1,-1.0,0.0,1,object_04,1,0,0,9,4,restaurant_1,2,memory-2step-stake-s,511,917246,0.0-19.0-0.0-0.14,A1Q56N80RJLQ7S,3Q9SPIIRXM2ML6FVM0W2D0Z2IA6WAR,3RXCAC0YIV5FRFUA0ZD8KQ36SAF8GW,7,8
15,2,object_05,object_08,202.40000000596,3,2,-1.0,0.0,1,object_04,5,0,0,7,6,forest_3,2,memory-2step-stake-s,512,925753,0.0-19.0-0.0-0.15,A1Q56N80RJLQ7S,3Q9SPIIRXM2ML6FVM0W2D0Z2IA6WAR,3RXCAC0YIV5FRFUA0ZD8KQ36SAF8GW,4,3
16,2,object_05,object_08,80.40000000596,3,2,-1.0,0.0,1,object_04,5,0,0,8,7,forest_3,2,memory-2step-stake-s,513,934260,0.0-19.0-0.0-0.16,A1Q56N80RJLQ7S,3Q9SPIIRXM2ML6FVM0W2D0Z2IA6WAR,3RXCAC0YIV5FRFUA0ZD8KQ36SAF8GW,4,3
17,1,object_02,object_03,161.0,2,2,-1.0,0.0,2,object_07,5,0,0,8,7,desert_4,2,memory-2step-stake-s,514,942768,0.0-19.0-0.0-0.17,A1Q56N80RJLQ7S,3Q9SPIIRXM2ML6FVM0W2D0Z2IA6WAR,3RXCAC0YIV5FRFUA0ZD8KQ36SAF8GW,1,2
18,2,object_08,object_05,189.70000001788,3,1,430.09999999404,0.7777777777777778,1,object_04,5,35,0,7,6,forest_3,2,memory-2step-stake-s,515,951109,0.0-19.0-0.0-0.18,A1Q56N80RJLQ7S,3Q9SPIIRXM2ML6FVM0W2D0Z2IA6WAR,3RXCAC0YIV5FRFUA0ZD8KQ36SAF8GW,3,4
19,2,object_08,object_05,77.0,3,1,242.90000000596,0.2222222222222222,1,object_04,5,45,0,2,6,forest_8,2,memory-2step-stake-s,516,958760,0.0-19.0-0.0-0.19,A1Q56N80RJLQ7S,3Q9SPIIRXM2ML6FVM0W2D0Z2IA6WAR,3RXCAC0YIV5FRFUA0ZD8KQ36SAF8GW,3,4
20,1,object_03,object_02,32.200000017881,1,2,60.5,0.5555555555555556,1,object_04,5,70,0,5,6,desert_8,2,memory-2step-stake-s,517,966531,0.0-19.0-0.0-0.20,A1Q56N80RJLQ7S,3Q9SPIIRXM2ML6FVM0W2D0Z2IA6WAR,3RXCAC0YIV5FRFUA0ZD8KQ36SAF8GW,2,1
21,1,object_02,object_03,149.09999999404,2,2,74.600000023842,0.4444444444444444,2,object_07,5,90,0,3,4,desert_3,2,memory-2step-stake-s,518,974214,0.0-19.0-0.0-0.21,A1Q56N80RJLQ7S,3Q9SPIIRXM2ML6FVM0W2D0Z2IA6WAR,3RXCAC0YIV5FRFUA0ZD8KQ36SAF8GW,1,2
22,3,object_09,object_06,193.39999997616,6,2,148.09999999404,0.5555555555555556,2,object_07,1,95,0,3,5,library_6,2,memory-2step-stake-s,519,982073,0.0-19.0-0.0-0.22,A1Q56N80RJLQ7S,3Q9SPIIRXM2ML6FVM0W2D0Z2IA6WAR,3RXCAC0YIV5FRFUA0ZD8KQ36SAF8GW,5,6
23,4,object_10,object_01,41.200000017881,7,1,236.20000001788,0.7777777777777778,1,object_04,1,102,0,7,5,restaurant_8,2,memory-2step-stake-s,520,990220,0.0-19.0-0.0-0.23,A1Q56N80RJLQ7S,3Q9SPIIRXM2ML6FVM0W2D0Z2IA6WAR,3RXCAC0YIV5FRFUA0ZD8KQ36SAF8GW,7,8
24,2,object_05,object_08,111.59999999404,3,2,87.90000000596,0.7777777777777778,1,object_04,5,137,0,7,5,forest_8,2,memory-2step-stake-s,521,998221,0.0-19.0-0.0-0.24,A1Q56N80RJLQ7S,3Q9SPIIRXM2ML6FVM0W2D0Z2IA6WAR,3RXCAC0YIV5FRFUA0ZD8KQ36SAF8GW,4,3
25,4,object_10,object_01,78.5,8,2,65.59999999404,0.1111111111111111,2,object_07,1,138,0,6,1,restaurant_7,2,memory-2step-stake-s,522,1005596,0.0-19.0-0.0-0.25,A1Q56N80RJLQ7S,3Q9SPIIRXM2ML6FVM0W2D0Z2IA6WAR,3RXCAC0YIV5FRFUA0ZD8KQ36SAF8GW,7,8
26,3,object_09,object_06,225.90000000596,6,2,150.09999999404,0.0,2,object_07,1,138,0,5,0,library_3,2,memory-2step-stake-s,523,1012955,0.0-19.0-0.0-0.26,A1Q56N80RJLQ7S,3Q9SPIIRXM2ML6FVM0W2D0Z2IA6WAR,3RXCAC0YIV5FRFUA0ZD8KQ36SAF8GW,5,6
27,2,object_08,object_05,147.30000001192,3,1,431.80000001192,1.0,1,object_04,1,147,0,9,1,forest_8,2,memory-2step-stake-s,524,1021499,0.0-19.0-0.0-0.27,A1Q56N80RJLQ7S,3Q9SPIIRXM2ML6FVM0W2D0Z2IA6WAR,3RXCAC0YIV5FRFUA0ZD8KQ36SAF8GW,3,4
28,2,object_08,object_05,121.69999998808,3,1,269.19999998808,0.6666666666666666,1,object_04,5,177,0,6,2,forest_7,2,memory-2step-stake-s,525,1029581,0.0-19.0-0.0-0.28,A1Q56N80RJLQ7S,3Q9SPIIRXM2ML6FVM0W2D0Z2IA6WAR,3RXCAC0YIV5FRFUA0ZD8KQ36SAF8GW,3,4
29,2,object_08,object_05,13.199999988079,3,1,4.5999999940395,1.0,1,object_04,5,222,0,9,3,forest_7,2,memory-2step-stake-s,526,1037697,0.0-19.0-0.0-0.29,A1Q56N80RJLQ7S,3Q9SPIIRXM2ML6FVM0W2D0Z2IA6WAR,3RXCAC0YIV5FRFUA0ZD8KQ36SAF8GW,3,4
30,3,object_06,object_09,104.80000001192,6,1,595.09999999404,0.3333333333333333,2,object_07,1,225,0,6,3,library_1,2,memory-2step-stake-s,527,1045804,0.0-19.0-0.0-0.30,A1Q56N80RJLQ7S,3Q9SPIIRXM2ML6FVM0W2D0Z2IA6WAR,3RXCAC0YIV5FRFUA0ZD8KQ36SAF8GW,6,5
31,2,object_05,object_08,150.09999999404,4,1,145.29999998212,0.2222222222222222,2,object_07,5,235,0,7,2,forest_7,2,memory-2step-stake-s,528,1053360,0.0-19.0-0.0-0.31,A1Q56N80RJLQ7S,3Q9SPIIRXM2ML6FVM0W2D0Z2IA6WAR,3RXCAC0YIV5FRFUA0ZD8KQ36SAF8GW,4,3
32,2,object_05,object_08,227.10000002384,3,2,-1.0,0.0,1,object_04,1,235,0,6,2,forest_7,2,memory-2step-stake-s,529,1061867,0.0-19.0-0.0-0.32,A1Q56N80RJLQ7S,3Q9SPIIRXM2ML6FVM0W2D0Z2IA6WAR,3RXCAC0YIV5FRFUA0ZD8KQ36SAF8GW,4,3
33,3,object_06,object_09,392.29999998212,6,1,481.90000000596,0.0,2,object_07,1,235,0,5,0,library_6,2,memory-2step-stake-s,530,1069560,0.0-19.0-0.0-0.33,A1Q56N80RJLQ7S,3Q9SPIIRXM2ML6FVM0W2D0Z2IA6WAR,3RXCAC0YIV5FRFUA0ZD8KQ36SAF8GW,6,5
34,1,object_03,object_02,570.30000001192,1,2,45.199999988079,0.5555555555555556,1,object_04,1,240,0,5,1,desert_8,2,memory-2step-stake-s,531,1077316,0.0-19.0-0.0-0.34,A1Q56N80RJLQ7S,3Q9SPIIRXM2ML6FVM0W2D0Z2IA6WAR,3RXCAC0YIV5FRFUA0ZD8KQ36SAF8GW,2,1
35,4,object_10,object_01,200.30000001192,7,1,104.70000001788,0.6666666666666666,1,object_04,1,246,0,6,1,restaurant_1,2,memory-2step-stake-s,532,1085234,0.0-19.0-0.0-0.35,A1Q56N80RJLQ7S,3Q9SPIIRXM2ML6FVM0W2D0Z2IA6WAR,3RXCAC0YIV5FRFUA0ZD8KQ36SAF8GW,7,8
36,4,object_01,object_10,97.40000000596,8,1,276.30000001192,0.1111111111111111,2,object_07,1,247,0,4,1,restaurant_7,2,memory-2step-stake-s,533,1092821,0.0-19.0-0.0-0.36,A1Q56N80RJLQ7S,3Q9SPIIRXM2ML6FVM0W2D0Z2IA6WAR,3RXCAC0YIV5FRFUA0ZD8KQ36SAF8GW,8,7
37,1,object_03,object_02,429.10000002384,2,1,-1.0,0.0,2,object_07,5,247,0,4,1,desert_1,2,memory-2step-stake-s,534,1101331,0.0-19.0-0.0-0.37,A1Q56N80RJLQ7S,3Q9SPIIRXM2ML6FVM0W2D0Z2IA6WAR,3RXCAC0YIV5FRFUA0ZD8KQ36SAF8GW,2,1
38,3,object_09,object_06,453.40000000596,6,2,-1.0,0.0,2,object_07,1,247,0,4,2,library_4,2,memory-2step-stake-s,535,1109837,0.0-19.0-0.0-0.38,A1Q56N80RJLQ7S,3Q9SPIIRXM2ML6FVM0W2D0Z2IA6WAR,3RXCAC0YIV5FRFUA0ZD8KQ36SAF8GW,5,6
39,2,object_05,object_08,438.09999999404,3,2,-1.0,0.0,1,object_04,5,247,0,5,2,forest_8,2,memory-2step-stake-s,536,1118343,0.0-19.0-0.0-0.39,A1Q56N80RJLQ7S,3Q9SPIIRXM2ML6FVM0W2D0Z2IA6WAR,3RXCAC0YIV5FRFUA0ZD8KQ36SAF8GW,4,3
40,2,object_05,object_08,517.79999998212,4,1,-1.0,0.0,2,object_07,5,247,0,5,6,forest_7,2,memory-2step-stake-s,537,1126850,0.0-19.0-0.0-0.40,A1Q56N80RJLQ7S,3Q9SPIIRXM2ML6FVM0W2D0Z2IA6WAR,3RXCAC0YIV5FRFUA0ZD8KQ36SAF8GW,4,3
41,4,object_01,object_10,194.90000000596,8,1,233.80000001192,0.5555555555555556,2,object_07,1,252,0,7,5,restaurant_7,2,memory-2step-stake-s,538,1134794,0.0-19.0-0.0-0.41,A1Q56N80RJLQ7S,3Q9SPIIRXM2ML6FVM0W2D0Z2IA6WAR,3RXCAC0YIV5FRFUA0ZD8KQ36SAF8GW,8,7
42,3,object_09,object_06,462.80000001192,5,1,293.80000001192,0.8888888888888888,1,object_04,1,260,0,8,9,library_1,2,memory-2step-stake-s,539,1143098,0.0-19.0-0.0-0.42,A1Q56N80RJLQ7S,3Q9SPIIRXM2ML6FVM0W2D0Z2IA6WAR,3RXCAC0YIV5FRFUA0ZD8KQ36SAF8GW,5,6
43,2,object_05,object_08,307.09999999404,4,1,488.5,1.0,2,object_07,5,305,0,8,9,forest_3,2,memory-2step-stake-s,540,1151697,0.0-19.0-0.0-0.43,A1Q56N80RJLQ7S,3Q9SPIIRXM2ML6FVM0W2D0Z2IA6WAR,3RXCAC0YIV5FRFUA0ZD8KQ36SAF8GW,4,3
44,4,object_01,object_10,352.40000000596,8,1,321.60000002384,0.7777777777777778,2,object_07,1,312,0,7,7,restaurant_2,2,memory-2step-stake-s,541,1159928,0.0-19.0-0.0-0.44,A1Q56N80RJLQ7S,3Q9SPIIRXM2ML6FVM0W2D0Z2IA6WAR,3RXCAC0YIV5FRFUA0ZD8KQ36SAF8GW,8,7
45,2,object_08,object_05,144.59999999404,4,2,246.0,0.6666666666666666,2,object_07,1,318,0,9,6,forest_7,2,memory-2step-stake-s,542,1167984,0.0-19.0-0.0-0.45,A1Q56N80RJLQ7S,3Q9SPIIRXM2ML6FVM0W2D0Z2IA6WAR,3RXCAC0YIV5FRFUA0ZD8KQ36SAF8GW,3,4
46,4,object_10,object_01,158.0,7,1,308.5,0.7777777777777778,1,object_04,5,353,0,7,4,restaurant_8,2,memory-2step-stake-s,543,1176202,0.0-19.0-0.0-0.46,A1Q56N80RJLQ7S,3Q9SPIIRXM2ML6FVM0W2D0Z2IA6WAR,3RXCAC0YIV5FRFUA0ZD8KQ36SAF8GW,7,8
47,3,object_06,object_09,252.80000001192,6,1,52.699999988079,0.2222222222222222,2,object_07,1,355,0,6,2,library_4,2,memory-2step-stake-s,544,1183663,0.0-19.0-0.0-0.47,A1Q56N80RJLQ7S,3Q9SPIIRXM2ML6FVM0W2D0Z2IA6WAR,3RXCAC0YIV5FRFUA0ZD8KQ36SAF8GW,6,5
48,1,object_03,object_02,190.0,1,2,26.200000017881,0.5555555555555556,1,object_04,5,380,0,5,1,desert_4,2,memory-2step-stake-s,545,1191402,0.0-19.0-0.0-0.48,A1Q56N80RJLQ7S,3Q9SPIIRXM2ML6FVM0W2D0Z2IA6WAR,3RXCAC0YIV5FRFUA0ZD8KQ36SAF8GW,2,1
49,1,object_02,object_03,142.0,1,1,150.69999998808,0.4444444444444444,1,object_04,5,400,0,4,1,desert_1,2,memory-2step-stake-s,546,1199161,0.0-19.0-0.0-0.49,A1Q56N80RJLQ7S,3Q9SPIIRXM2ML6FVM0W2D0Z2IA6WAR,3RXCAC0YIV5FRFUA0ZD8KQ36SAF8GW,1,2
50,4,object_01,object_10,219.70000001788,8,1,1168.7000000179,0.0,2,object_07,1,400,0,3,0,restaurant_8,2,memory-2step-stake-s,547,1207538,0.0-19.0-0.0-0.50,A1Q56N80RJLQ7S,3Q9SPIIRXM2ML6FVM0W2D0Z2IA6WAR,3RXCAC0YIV5FRFUA0ZD8KQ36SAF8GW,8,7
51,4,object_01,object_10,520.90000000596,8,1,19.5,0.2222222222222222,2,object_07,1,402,0,7,2,restaurant_1,2,memory-2step-stake-s,548,1214967,0.0-19.0-0.0-0.51,A1Q56N80RJLQ7S,3Q9SPIIRXM2ML6FVM0W2D0Z2IA6WAR,3RXCAC0YIV5FRFUA0ZD8KQ36SAF8GW,8,7
52,2,object_05,object_08,110.5,4,1,532.59999999404,0.2222222222222222,2,object_07,5,412,0,8,2,forest_3,2,memory-2step-stake-s,549,1222909,0.0-19.0-0.0-0.52,A1Q56N80RJLQ7S,3Q9SPIIRXM2ML6FVM0W2D0Z2IA6WAR,3RXCAC0YIV5FRFUA0ZD8KQ36SAF8GW,4,3
53,3,object_09,object_06,251.40000000596,5,1,402.79999998212,0.7777777777777778,1,object_04,1,419,0,7,1,library_6,2,memory-2step-stake-s,550,1231223,0.0-19.0-0.0-0.53,A1Q56N80RJLQ7S,3Q9SPIIRXM2ML6FVM0W2D0Z2IA6WAR,3RXCAC0YIV5FRFUA0ZD8KQ36SAF8GW,5,6
54,2,object_05,object_08,247.90000000596,4,1,72.90000000596,0.0,2,object_07,5,419,0,6,0,forest_4,2,memory-2step-stake-s,551,1238505,0.0-19.0-0.0-0.54,A1Q56N80RJLQ7S,3Q9SPIIRXM2ML6FVM0W2D0Z2IA6WAR,3RXCAC0YIV5FRFUA0ZD8KQ36SAF8GW,4,3
55,1,object_02,object_03,246.09999999404,2,2,319.0,0.0,2,object_07,5,419,0,8,0,desert_8,2,memory-2step-stake-s,552,1246030,0.0-19.0-0.0-0.55,A1Q56N80RJLQ7S,3Q9SPIIRXM2ML6FVM0W2D0Z2IA6WAR,3RXCAC0YIV5FRFUA0ZD8KQ36SAF8GW,1,2
56,3,object_06,object_09,51.100000023842,6,1,286.5,0.0,2,object_07,1,419,0,7,0,library_3,2,memory-2step-stake-s,553,1253523,0.0-19.0-0.0-0.56,A1Q56N80RJLQ7S,3Q9SPIIRXM2ML6FVM0W2D0Z2IA6WAR,3RXCAC0YIV5FRFUA0ZD8KQ36SAF8GW,6,5
57,2,object_08,object_05,412.30000001192,3,1,178.19999998808,0.6666666666666666,1,object_04,5,449,0,6,1,forest_3,2,memory-2step-stake-s,554,1261510,0.0-19.0-0.0-0.57,A1Q56N80RJLQ7S,3Q9SPIIRXM2ML6FVM0W2D0Z2IA6WAR,3RXCAC0YIV5FRFUA0ZD8KQ36SAF8GW,3,4
58,3,object_06,object_09,236.40000000596,5,2,388.90000000596,0.7777777777777778,1,object_04,5,484,0,7,2,library_1,2,memory-2step-stake-s,555,1269809,0.0-19.0-0.0-0.58,A1Q56N80RJLQ7S,3Q9SPIIRXM2ML6FVM0W2D0Z2IA6WAR,3RXCAC0YIV5FRFUA0ZD8KQ36SAF8GW,6,5
59,4,object_10,object_01,631.60000002384,7,1,652.5,1.0,1,object_04,5,529,0,9,3,restaurant_2,2,memory-2step-stake-s,556,1278573,0.0-19.0-0.0-0.59,A1Q56N80RJLQ7S,3Q9SPIIRXM2ML6FVM0W2D0Z2IA6WAR,3RXCAC0YIV5FRFUA0ZD8KQ36SAF8GW,7,8
60,2,object_05,object_08,182.70000001788,3,2,332.5,0.7777777777777778,1,object_04,5,564,0,7,2,forest_8,2,memory-2step-stake-s,557,1286817,0.0-19.0-0.0-0.60,A1Q56N80RJLQ7S,3Q9SPIIRXM2ML6FVM0W2D0Z2IA6WAR,3RXCAC0YIV5FRFUA0ZD8KQ36SAF8GW,4,3
61,3,object_06,object_09,226.90000000596,5,2,244.79999998212,1.0,1,object_04,1,573,0,9,5,library_3,2,memory-2step-stake-s,558,1295178,0.0-19.0-0.0-0.61,A1Q56N80RJLQ7S,3Q9SPIIRXM2ML6FVM0W2D0Z2IA6WAR,3RXCAC0YIV5FRFUA0ZD8KQ36SAF8GW,6,5
62,1,object_02,object_03,225.10000002384,2,2,255.39999997616,0.3333333333333333,2,object_07,5,588,0,5,3,desert_1,2,memory-2step-stake-s,559,1303472,0.0-19.0-0.0-0.62,A1Q56N80RJLQ7S,3Q9SPIIRXM2ML6FVM0W2D0Z2IA6WAR,3RXCAC0YIV5FRFUA0ZD8KQ36SAF8GW,1,2
63,3,object_06,object_09,141.0,6,1,196.80000001192,0.2222222222222222,2,object_07,5,598,0,4,2,library_6,2,memory-2step-stake-s,560,1311079,0.0-19.0-0.0-0.63,A1Q56N80RJLQ7S,3Q9SPIIRXM2ML6FVM0W2D0Z2IA6WAR,3RXCAC0YIV5FRFUA0ZD8KQ36SAF8GW,6,5
64,4,object_10,object_01,182.90000000596,8,2,90.0,0.0,2,object_07,5,598,0,5,0,restaurant_7,2,memory-2step-stake-s,561,1318972,0.0-19.0-0.0-0.64,A1Q56N80RJLQ7S,3Q9SPIIRXM2ML6FVM0W2D0Z2IA6WAR,3RXCAC0YIV5FRFUA0ZD8KQ36SAF8GW,7,8
65,4,object_10,object_01,396.60000002384,8,2,406.20000001788,0.2222222222222222,2,object_07,1,600,0,6,2,restaurant_8,2,memory-2step-stake-s,562,1326792,0.0-19.0-0.0-0.65,A1Q56N80RJLQ7S,3Q9SPIIRXM2ML6FVM0W2D0Z2IA6WAR,3RXCAC0YIV5FRFUA0ZD8KQ36SAF8GW,7,8
66,4,object_10,object_01,582.39999997616,7,1,502.5,0.8888888888888888,1,object_04,1,608,0,8,5,restaurant_7,2,memory-2step-stake-s,563,1335312,0.0-19.0-0.0-0.66,A1Q56N80RJLQ7S,3Q9SPIIRXM2ML6FVM0W2D0Z2IA6WAR,3RXCAC0YIV5FRFUA0ZD8KQ36SAF8GW,7,8
67,1,object_03,object_02,546.29999998212,2,1,318.40000000596,0.7777777777777778,2,object_07,1,615,0,8,7,desert_3,2,memory-2step-stake-s,564,1343548,0.0-19.0-0.0-0.67,A1Q56N80RJLQ7S,3Q9SPIIRXM2ML6FVM0W2D0Z2IA6WAR,3RXCAC0YIV5FRFUA0ZD8KQ36SAF8GW,2,1
68,1,object_03,object_02,137.09999999404,1,2,220.0,1.0,1,object_04,5,660,0,9,8,desert_8,2,memory-2step-stake-s,565,1351885,0.0-19.0-0.0-0.68,A1Q56N80RJLQ7S,3Q9SPIIRXM2ML6FVM0W2D0Z2IA6WAR,3RXCAC0YIV5FRFUA0ZD8KQ36SAF8GW,2,1
69,3,object_06,object_09,254.19999998808,6,1,279.80000001192,0.7777777777777778,2,object_07,1,667,0,9,7,library_6,2,memory-2step-stake-s,566,1360083,0.0-19.0-0.0-0.69,A1Q56N80RJLQ7S,3Q9SPIIRXM2ML6FVM0W2D0Z2IA6WAR,3RXCAC0YIV5FRFUA0ZD8KQ36SAF8GW,6,5
70,4,object_01,object_10,423.5,7,2,788.59999999404,0.8888888888888888,1,object_04,1,675,0,8,9,restaurant_2,2,memory-2step-stake-s,567,1368890,0.0-19.0-0.0-0.70,A1Q56N80RJLQ7S,3Q9SPIIRXM2ML6FVM0W2D0Z2IA6WAR,3RXCAC0YIV5FRFUA0ZD8KQ36SAF8GW,8,7
71,3,object_09,object_06,634.29999998212,6,2,490.59999999404,0.8888888888888888,2,object_07,1,683,0,8,8,library_4,2,memory-2step-stake-s,568,1377394,0.0-19.0-0.0-0.71,A1Q56N80RJLQ7S,3Q9SPIIRXM2ML6FVM0W2D0Z2IA6WAR,3RXCAC0YIV5FRFUA0ZD8KQ36SAF8GW,5,6
72,4,object_01,object_10,237.30000001192,8,1,290.70000001788,0.8888888888888888,2,object_07,1,691,0,9,8,restaurant_1,2,memory-2step-stake-s,569,1385701,0.0-19.0-0.0-0.72,A1Q56N80RJLQ7S,3Q9SPIIRXM2ML6FVM0W2D0Z2IA6WAR,3RXCAC0YIV5FRFUA0ZD8KQ36SAF8GW,8,7
73,3,object_09,object_06,274.30000001192,6,2,376.90000000596,0.5555555555555556,2,object_07,1,696,0,6,5,library_3,2,memory-2step-stake-s,570,1393791,0.0-19.0-0.0-0.73,A1Q56N80RJLQ7S,3Q9SPIIRXM2ML6FVM0W2D0Z2IA6WAR,3RXCAC0YIV5FRFUA0ZD8KQ36SAF8GW,5,6
74,1,object_03,object_02,135.39999997616,1,2,268.69999998808,0.8888888888888888,1,object_04,5,736,0,8,4,desert_1,2,memory-2step-stake-s,571,1402070,0.0-19.0-0.0-0.74,A1Q56N80RJLQ7S,3Q9SPIIRXM2ML6FVM0W2D0Z2IA6WAR,3RXCAC0YIV5FRFUA0ZD8KQ36SAF8GW,2,1
75,4,object_01,object_10,102.80000001192,8,1,181.89999997616,0.2222222222222222,2,object_07,5,746,0,9,2,restaurant_7,2,memory-2step-stake-s,572,1409659,0.0-19.0-0.0-0.75,A1Q56N80RJLQ7S,3Q9SPIIRXM2ML6FVM0W2D0Z2IA6WAR,3RXCAC0YIV5FRFUA0ZD8KQ36SAF8GW,8,7
76,1,object_03,object_02,189.0,1,2,377.79999998212,0.6666666666666666,1,object_04,5,776,0,6,4,desert_8,2,memory-2step-stake-s,573,1417846,0.0-19.0-0.0-0.76,A1Q56N80RJLQ7S,3Q9SPIIRXM2ML6FVM0W2D0Z2IA6WAR,3RXCAC0YIV5FRFUA0ZD8KQ36SAF8GW,2,1
77,4,object_01,object_10,273.20000001788,8,1,364.90000000596,0.2222222222222222,2,object_07,5,786,0,7,2,restaurant_8,2,memory-2step-stake-s,574,1425617,0.0-19.0-0.0-0.77,A1Q56N80RJLQ7S,3Q9SPIIRXM2ML6FVM0W2D0Z2IA6WAR,3RXCAC0YIV5FRFUA0ZD8KQ36SAF8GW,8,7
78,3,object_06,object_09,329.80000001192,6,1,336.79999998212,0.0,2,object_07,1,786,0,7,0,library_6,2,memory-2step-stake-s,575,1433160,0.0-19.0-0.0-0.78,A1Q56N80RJLQ7S,3Q9SPIIRXM2ML6FVM0W2D0Z2IA6WAR,3RXCAC0YIV5FRFUA0ZD8KQ36SAF8GW,6,5
79,4,object_10,object_01,248.40000000596,7,1,386.40000000596,0.7777777777777778,1,object_04,1,793,0,7,2,restaurant_7,2,memory-2step-stake-s,576,1441455,0.0-19.0-0.0-0.79,A1Q56N80RJLQ7S,3Q9SPIIRXM2ML6FVM0W2D0Z2IA6WAR,3RXCAC0YIV5FRFUA0ZD8KQ36SAF8GW,7,8
80,2,object_08,object_05,21.40000000596,3,1,264.19999998808,0.7777777777777778,1,object_04,1,800,0,7,0,forest_3,2,memory-2step-stake-s,577,1449629,0.0-19.0-0.0-0.80,A1Q56N80RJLQ7S,3Q9SPIIRXM2ML6FVM0W2D0Z2IA6WAR,3RXCAC0YIV5FRFUA0ZD8KQ36SAF8GW,3,4
81,4,object_10,object_01,289.0,8,2,279.40000000596,0.0,2,object_07,1,800,0,5,0,restaurant_7,2,memory-2step-stake-s,578,1457116,0.0-19.0-0.0-0.81,A1Q56N80RJLQ7S,3Q9SPIIRXM2ML6FVM0W2D0Z2IA6WAR,3RXCAC0YIV5FRFUA0ZD8KQ36SAF8GW,7,8
82,3,object_09,object_06,267.29999998212,5,1,558.59999999404,0.3333333333333333,1,object_04,1,803,0,3,0,library_3,2,memory-2step-stake-s,579,1465182,0.0-19.0-0.0-0.82,A1Q56N80RJLQ7S,3Q9SPIIRXM2ML6FVM0W2D0Z2IA6WAR,3RXCAC0YIV5FRFUA0ZD8KQ36SAF8GW,5,6
83,3,object_06,object_09,454.30000001192,5,2,339.09999999404,0.2222222222222222,1,object_04,1,805,0,2,2,library_4,2,memory-2step-stake-s,580,1472929,0.0-19.0-0.0-0.83,A1Q56N80RJLQ7S,3Q9SPIIRXM2ML6FVM0W2D0Z2IA6WAR,3RXCAC0YIV5FRFUA0ZD8KQ36SAF8GW,6,5
84,1,object_03,object_02,134.20000001788,2,1,421.30000001192,0.2222222222222222,2,object_07,5,815,0,3,2,desert_8,2,memory-2step-stake-s,581,1480760,0.0-19.0-0.0-0.84,A1Q56N80RJLQ7S,3Q9SPIIRXM2ML6FVM0W2D0Z2IA6WAR,3RXCAC0YIV5FRFUA0ZD8KQ36SAF8GW,2,1
85,3,object_09,object_06,38.699999988079,6,2,300.09999999404,0.3333333333333333,2,object_07,5,830,0,3,3,library_1,2,memory-2step-stake-s,582,1488569,0.0-19.0-0.0-0.85,A1Q56N80RJLQ7S,3Q9SPIIRXM2ML6FVM0W2D0Z2IA6WAR,3RXCAC0YIV5FRFUA0ZD8KQ36SAF8GW,5,6
86,1,object_03,object_02,5.5,2,1,1032.0,0.0,2,object_07,1,830,0,1,0,desert_1,2,memory-2step-stake-s,583,1496809,0.0-19.0-0.0-0.86,A1Q56N80RJLQ7S,3Q9SPIIRXM2ML6FVM0W2D0Z2IA6WAR,3RXCAC0YIV5FRFUA0ZD8KQ36SAF8GW,2,1
87,1,object_02,object_03,560.09999999404,1,1,-1.0,0.0,1,object_04,1,830,0,2,0,desert_3,2,memory-2step-stake-s,584,1505318,0.0-19.0-0.0-0.87,A1Q56N80RJLQ7S,3Q9SPIIRXM2ML6FVM0W2D0Z2IA6WAR,3RXCAC0YIV5FRFUA0ZD8KQ36SAF8GW,1,2
88,1,object_03,object_02,248.19999998808,1,2,211.20000001788,0.1111111111111111,1,object_04,5,835,0,1,4,desert_1,2,memory-2step-stake-s,585,1512838,0.0-19.0-0.0-0.88,A1Q56N80RJLQ7S,3Q9SPIIRXM2ML6FVM0W2D0Z2IA6WAR,3RXCAC0YIV5FRFUA0ZD8KQ36SAF8GW,2,1
89,2,object_05,object_08,238.5,3,2,316.80000001192,0.0,1,object_04,5,835,0,0,2,forest_7,2,memory-2step-stake-s,586,1520363,0.0-19.0-0.0-0.89,A1Q56N80RJLQ7S,3Q9SPIIRXM2ML6FVM0W2D0Z2IA6WAR,3RXCAC0YIV5FRFUA0ZD8KQ36SAF8GW,4,3
90,1,object_02,object_03,478.09999999404,1,1,209.0,0.1111111111111111,1,object_04,5,840,0,1,4,desert_8,2,memory-2step-stake-s,587,1527879,0.0-19.0-0.0-0.90,A1Q56N80RJLQ7S,3Q9SPIIRXM2ML6FVM0W2D0Z2IA6WAR,3RXCAC0YIV5FRFUA0ZD8KQ36SAF8GW,1,2
91,1,object_02,object_03,236.5,1,1,358.69999998808,0.1111111111111111,1,object_04,5,845,0,1,6,desert_8,2,memory-2step-stake-s,588,1535546,0.0-19.0-0.0-0.91,A1Q56N80RJLQ7S,3Q9SPIIRXM2ML6FVM0W2D0Z2IA6WAR,3RXCAC0YIV5FRFUA0ZD8KQ36SAF8GW,1,2
92,4,object_10,object_01,370.69999998808,7,1,-1.0,0.0,1,object_04,1,845,0,1,7,restaurant_2,2,memory-2step-stake-s,589,1544054,0.0-19.0-0.0-0.92,A1Q56N80RJLQ7S,3Q9SPIIRXM2ML6FVM0W2D0Z2IA6WAR,3RXCAC0YIV5FRFUA0ZD8KQ36SAF8GW,7,8
93,2,object_08,object_05,230.90000000596,3,1,226.80000001192,0.0,1,object_04,5,845,0,0,6,forest_8,2,memory-2step-stake-s,590,1551490,0.0-19.0-0.0-0.93,A1Q56N80RJLQ7S,3Q9SPIIRXM2ML6FVM0W2D0Z2IA6WAR,3RXCAC0YIV5FRFUA0ZD8KQ36SAF8GW,3,4
94,1,object_03,object_02,177.79999998212,2,1,299.59999999404,0.8888888888888888,2,object_07,5,885,0,3,8,desert_1,2,memory-2step-stake-s,591,1559801,0.0-19.0-0.0-0.94,A1Q56N80RJLQ7S,3Q9SPIIRXM2ML6FVM0W2D0Z2IA6WAR,3RXCAC0YIV5FRFUA0ZD8KQ36SAF8GW,2,1
95,3,object_09,object_06,354.80000001192,5,1,315.90000000596,0.8888888888888888,1,object_04,1,893,0,8,3,library_3,2,memory-2step-stake-s,592,1568132,0.0-19.0-0.0-0.95,A1Q56N80RJLQ7S,3Q9SPIIRXM2ML6FVM0W2D0Z2IA6WAR,3RXCAC0YIV5FRFUA0ZD8KQ36SAF8GW,5,6
96,2,object_08,object_05,117.19999998808,3,1,380.10000002384,1.0,1,object_04,5,938,0,9,3,forest_7,2,memory-2step-stake-s,593,1576628,0.0-19.0-0.0-0.96,A1Q56N80RJLQ7S,3Q9SPIIRXM2ML6FVM0W2D0Z2IA6WAR,3RXCAC0YIV5FRFUA0ZD8KQ36SAF8GW,3,4
97,1,object_03,object_02,458.40000000596,2,1,259.70000001788,0.7777777777777778,2,object_07,5,973,0,8,7,desert_4,2,memory-2step-stake-s,594,1584800,0.0-19.0-0.0-0.97,A1Q56N80RJLQ7S,3Q9SPIIRXM2ML6FVM0W2D0Z2IA6WAR,3RXCAC0YIV5FRFUA0ZD8KQ36SAF8GW,2,1
98,1,object_02,object_03,149.79999998212,1,1,-1.0,0.0,1,object_04,5,973,0,5,9,desert_3,2,memory-2step-stake-s,595,1593308,0.0-19.0-0.0-0.98,A1Q56N80RJLQ7S,3Q9SPIIRXM2ML6FVM0W2D0Z2IA6WAR,3RXCAC0YIV5FRFUA0ZD8KQ36SAF8GW,1,2
99,2,object_05,object_08,249.80000001192,4,1,102.30000001192,0.7777777777777778,2,object_07,5,1008,0,4,7,forest_3,2,memory-2step-stake-s,596,1601322,0.0-19.0-0.0-0.99,A1Q56N80RJLQ7S,3Q9SPIIRXM2ML6FVM0W2D0Z2IA6WAR,3RXCAC0YIV5FRFUA0ZD8KQ36SAF8GW,4,3
100,4,object_10,object_01,80.0,7,1,408.09999999404,0.4444444444444444,1,object_04,5,1028,0,4,8,restaurant_7,2,memory-2step-stake-s,597,1609345,0.0-19.0-0.0-0.100,A1Q56N80RJLQ7S,3Q9SPIIRXM2ML6FVM0W2D0Z2IA6WAR,3RXCAC0YIV5FRFUA0ZD8KQ36SAF8GW,7,8
101,1,object_03,object_02,271.39999997616,2,1,307.70000001788,0.8888888888888888,2,object_07,5,1068,0,5,8,desert_8,2,memory-2step-stake-s,598,1617666,0.0-19.0-0.0-0.101,A1Q56N80RJLQ7S,3Q9SPIIRXM2ML6FVM0W2D0Z2IA6WAR,3RXCAC0YIV5FRFUA0ZD8KQ36SAF8GW,2,1
102,3,object_09,object_06,933.30000001192,5,1,997.19999998808,0.6666666666666666,1,object_04,1,1074,0,6,8,library_6,2,memory-2step-stake-s,599,1626479,0.0-19.0-0.0-0.102,A1Q56N80RJLQ7S,3Q9SPIIRXM2ML6FVM0W2D0Z2IA6WAR,3RXCAC0YIV5FRFUA0ZD8KQ36SAF8GW,5,6
103,3,object_06,object_09,66.40000000596,6,1,423.59999999404,0.8888888888888888,2,object_07,1,1082,0,4,8,library_1,2,memory-2step-stake-s,600,1634917,0.0-19.0-0.0-0.103,A1Q56N80RJLQ7S,3Q9SPIIRXM2ML6FVM0W2D0Z2IA6WAR,3RXCAC0YIV5FRFUA0ZD8KQ36SAF8GW,6,5
104,1,object_02,object_03,923.59999999404,1,1,403.40000000596,0.5555555555555556,1,object_04,5,1107,0,5,8,desert_3,2,memory-2step-stake-s,601,1643030,0.0-19.0-0.0-0.104,A1Q56N80RJLQ7S,3Q9SPIIRXM2ML6FVM0W2D0Z2IA6WAR,3RXCAC0YIV5FRFUA0ZD8KQ36SAF8GW,1,2
105,3,object_09,object_06,24.800000011921,6,2,417.90000000596,0.6666666666666666,2,object_07,1,1113,0,4,6,library_6,2,memory-2step-stake-s,602,1651256,0.0-19.0-0.0-0.105,A1Q56N80RJLQ7S,3Q9SPIIRXM2ML6FVM0W2D0Z2IA6WAR,3RXCAC0YIV5FRFUA0ZD8KQ36SAF8GW,5,6
106,2,object_05,object_08,285.80000001192,4,1,253.19999998808,0.8888888888888888,2,object_07,5,1153,0,0,8,forest_8,2,memory-2step-stake-s,603,1659518,0.0-19.0-0.0-0.106,A1Q56N80RJLQ7S,3Q9SPIIRXM2ML6FVM0W2D0Z2IA6WAR,3RXCAC0YIV5FRFUA0ZD8KQ36SAF8GW,4,3
107,3,object_09,object_06,320.40000000596,5,1,170.0,0.0,1,object_04,1,1153,0,0,9,library_3,2,memory-2step-stake-s,604,1666894,0.0-19.0-0.0-0.107,A1Q56N80RJLQ7S,3Q9SPIIRXM2ML6FVM0W2D0Z2IA6WAR,3RXCAC0YIV5FRFUA0ZD8KQ36SAF8GW,5,6
108,2,object_08,object_05,38.09999999404,4,2,178.09999999404,0.8888888888888888,2,object_07,5,1193,0,2,8,forest_7,2,memory-2step-stake-s,605,1675081,0.0-19.0-0.0-0.108,A1Q56N80RJLQ7S,3Q9SPIIRXM2ML6FVM0W2D0Z2IA6WAR,3RXCAC0YIV5FRFUA0ZD8KQ36SAF8GW,3,4
109,4,object_01,object_10,403.30000001192,7,2,53.40000000596,0.1111111111111111,1,object_04,1,1194,0,1,7,restaurant_8,2,memory-2step-stake-s,606,1682441,0.0-19.0-0.0-0.109,A1Q56N80RJLQ7S,3Q9SPIIRXM2ML6FVM0W2D0Z2IA6WAR,3RXCAC0YIV5FRFUA0ZD8KQ36SAF8GW,8,7
110,2,object_05,object_08,220.79999998212,3,2,111.90000000596,0.2222222222222222,1,object_04,5,1204,0,2,7,forest_3,2,memory-2step-stake-s,607,1689961,0.0-19.0-0.0-0.110,A1Q56N80RJLQ7S,3Q9SPIIRXM2ML6FVM0W2D0Z2IA6WAR,3RXCAC0YIV5FRFUA0ZD8KQ36SAF8GW,4,3
111,2,object_05,object_08,332.40000000596,4,1,285.09999999404,0.7777777777777778,2,object_07,5,1239,0,1,7,forest_4,2,memory-2step-stake-s,608,1698156,0.0-19.0-0.0-0.111,A1Q56N80RJLQ7S,3Q9SPIIRXM2ML6FVM0W2D0Z2IA6WAR,3RXCAC0YIV5FRFUA0ZD8KQ36SAF8GW,4,3
112,1,object_03,object_02,56.59999999404,2,1,292.09999999404,0.4444444444444444,2,object_07,5,1259,0,0,4,desert_8,2,memory-2step-stake-s,609,1706058,0.0-19.0-0.0-0.112,A1Q56N80RJLQ7S,3Q9SPIIRXM2ML6FVM0W2D0Z2IA6WAR,3RXCAC0YIV5FRFUA0ZD8KQ36SAF8GW,2,1
113,3,object_09,object_06,339.70000001788,6,2,312.0,0.6666666666666666,2,object_07,5,1289,0,2,6,library_1,2,memory-2step-stake-s,610,1714182,0.0-19.0-0.0-0.113,A1Q56N80RJLQ7S,3Q9SPIIRXM2ML6FVM0W2D0Z2IA6WAR,3RXCAC0YIV5FRFUA0ZD8KQ36SAF8GW,5,6
114,4,object_10,object_01,153.5,7,1,178.90000000596,0.2222222222222222,1,object_04,5,1299,0,2,6,restaurant_1,2,memory-2step-stake-s,611,1721770,0.0-19.0-0.0-0.114,A1Q56N80RJLQ7S,3Q9SPIIRXM2ML6FVM0W2D0Z2IA6WAR,3RXCAC0YIV5FRFUA0ZD8KQ36SAF8GW,7,8
115,1,object_02,object_03,51.0,1,1,34.300000011921,0.1111111111111111,1,object_04,5,1304,0,1,6,desert_3,2,memory-2step-stake-s,612,1729113,0.0-19.0-0.0-0.115,A1Q56N80RJLQ7S,3Q9SPIIRXM2ML6FVM0W2D0Z2IA6WAR,3RXCAC0YIV5FRFUA0ZD8KQ36SAF8GW,1,2
116,1,object_03,object_02,271.5,2,1,1233.6000000238,0.6666666666666666,2,object_07,5,1334,0,6,6,desert_4,2,memory-2step-stake-s,613,1738157,0.0-19.0-0.0-0.116,A1Q56N80RJLQ7S,3Q9SPIIRXM2ML6FVM0W2D0Z2IA6WAR,3RXCAC0YIV5FRFUA0ZD8KQ36SAF8GW,2,1
117,4,object_10,object_01,314.09999999404,7,1,263.0,0.6666666666666666,1,object_04,1,1340,0,6,4,restaurant_7,2,memory-2step-stake-s,614,1746230,0.0-19.0-0.0-0.117,A1Q56N80RJLQ7S,3Q9SPIIRXM2ML6FVM0W2D0Z2IA6WAR,3RXCAC0YIV5FRFUA0ZD8KQ36SAF8GW,7,8
118,1,object_03,object_02,247.0,1,2,151.90000000596,0.6666666666666666,1,object_04,5,1370,0,6,1,desert_8,2,memory-2step-stake-s,615,1754195,0.0-19.0-0.0-0.118,A1Q56N80RJLQ7S,3Q9SPIIRXM2ML6FVM0W2D0Z2IA6WAR,3RXCAC0YIV5FRFUA0ZD8KQ36SAF8GW,2,1
119,2,object_05,object_08,582.70000001788,4,1,582.5,0.1111111111111111,2,object_07,5,1375,0,5,1,forest_3,2,memory-2step-stake-s,616,1762087,0.0-19.0-0.0-0.119,A1Q56N80RJLQ7S,3Q9SPIIRXM2ML6FVM0W2D0Z2IA6WAR,3RXCAC0YIV5FRFUA0ZD8KQ36SAF8GW,4,3
120,1,object_03,object_02,574.90000000596,1,2,487.29999998212,0.6666666666666666,1,object_04,5,1405,0,6,0,desert_4,2,memory-2step-stake-s,617,1770385,0.0-19.0-0.0-0.120,A1Q56N80RJLQ7S,3Q9SPIIRXM2ML6FVM0W2D0Z2IA6WAR,3RXCAC0YIV5FRFUA0ZD8KQ36SAF8GW,2,1
121,2,object_08,object_05,717.89999997616,4,2,389.79999998212,0.1111111111111111,2,object_07,1,1406,0,7,1,forest_4,2,memory-2step-stake-s,618,1778084,0.0-19.0-0.0-0.121,A1Q56N80RJLQ7S,3Q9SPIIRXM2ML6FVM0W2D0Z2IA6WAR,3RXCAC0YIV5FRFUA0ZD8KQ36SAF8GW,3,4
122,2,object_08,object_05,96.90000000596,3,1,-1.0,0.0,1,object_04,1,1406,0,7,2,forest_8,2,memory-2step-stake-s,619,1786592,0.0-19.0-0.0-0.122,A1Q56N80RJLQ7S,3Q9SPIIRXM2ML6FVM0W2D0Z2IA6WAR,3RXCAC0YIV5FRFUA0ZD8KQ36SAF8GW,3,4
123,1,object_03,object_02,285.70000001788,2,1,368.60000002384,0.4444444444444444,2,object_07,5,1426,0,4,4,desert_3,2,memory-2step-stake-s,620,1794570,0.0-19.0-0.0-0.123,A1Q56N80RJLQ7S,3Q9SPIIRXM2ML6FVM0W2D0Z2IA6WAR,3RXCAC0YIV5FRFUA0ZD8KQ36SAF8GW,2,1
124,4,object_01,object_10,972.30000001192,8,1,2.7000000178814,0.2222222222222222,2,object_07,1,1428,0,5,2,restaurant_2,2,memory-2step-stake-s,621,1801981,0.0-19.0-0.0-0.124,A1Q56N80RJLQ7S,3Q9SPIIRXM2ML6FVM0W2D0Z2IA6WAR,3RXCAC0YIV5FRFUA0ZD8KQ36SAF8GW,8,7
125,1,object_02,object_03,45.199999988079,2,2,1322.099999994,0.2222222222222222,2,object_07,5,1438,0,4,2,desert_3,2,memory-2step-stake-s,622,1810713,0.0-19.0-0.0-0.125,A1Q56N80RJLQ7S,3Q9SPIIRXM2ML6FVM0W2D0Z2IA6WAR,3RXCAC0YIV5FRFUA0ZD8KQ36SAF8GW,1,2
126,4,object_10,object_01,749.30000001192,7,1,334.59999999404,0.6666666666666666,1,object_04,1,1444,0,6,1,restaurant_2,2,memory-2step-stake-s,623,1818859,0.0-19.0-0.0-0.126,A1Q56N80RJLQ7S,3Q9SPIIRXM2ML6FVM0W2D0Z2IA6WAR,3RXCAC0YIV5FRFUA0ZD8KQ36SAF8GW,7,8
127,2,object_08,object_05,297.19999998808,3,1,315.70000001788,0.5555555555555556,1,object_04,1,1449,0,5,0,forest_7,2,memory-2step-stake-s,624,1826887,0.0-19.0-0.0-0.127,A1Q56N80RJLQ7S,3Q9SPIIRXM2ML6FVM0W2D0Z2IA6WAR,3RXCAC0YIV5FRFUA0ZD8KQ36SAF8GW,3,4
128,1,object_03,object_02,282.70000001788,2,1,345.30000001192,0.0,2,object_07,1,1449,0,0,0,desert_4,2,memory-2step-stake-s,626,1838851,0.0-19.0-0.1-0.128,A1Q56N80RJLQ7S,3Q9SPIIRXM2ML6FVM0W2D0Z2IA6WAR,3RXCAC0YIV5FRFUA0ZD8KQ36SAF8GW,2,1
129,3,object_06,object_09,252.39999997616,5,2,186.69999998808,0.1111111111111111,1,object_04,1,1450,0,1,1,library_6,2,memory-2step-stake-s,627,1846348,0.0-19.0-0.1-0.129,A1Q56N80RJLQ7S,3Q9SPIIRXM2ML6FVM0W2D0Z2IA6WAR,3RXCAC0YIV5FRFUA0ZD8KQ36SAF8GW,6,5
130,4,object_01,object_10,157.79999998212,8,1,273.10000002384,0.0,2,object_07,1,1450,0,1,0,restaurant_8,2,memory-2step-stake-s,628,1853833,0.0-19.0-0.1-0.130,A1Q56N80RJLQ7S,3Q9SPIIRXM2ML6FVM0W2D0Z2IA6WAR,3RXCAC0YIV5FRFUA0ZD8KQ36SAF8GW,8,7
131,3,object_09,object_06,367.39999997616,6,2,410.09999999404,0.1111111111111111,2,object_07,1,1451,0,3,1,library_1,2,memory-2step-stake-s,629,1861551,0.0-19.0-0.1-0.131,A1Q56N80RJLQ7S,3Q9SPIIRXM2ML6FVM0W2D0Z2IA6WAR,3RXCAC0YIV5FRFUA0ZD8KQ36SAF8GW,5,6
132,4,object_10,object_01,235.80000001192,7,1,942.0,0.4444444444444444,1,object_04,1,1455,0,4,2,restaurant_8,2,memory-2step-stake-s,630,1870101,0.0-19.0-0.1-0.132,A1Q56N80RJLQ7S,3Q9SPIIRXM2ML6FVM0W2D0Z2IA6WAR,3RXCAC0YIV5FRFUA0ZD8KQ36SAF8GW,7,8
133,1,object_02,object_03,525.29999998212,1,1,786.59999999404,0.3333333333333333,1,object_04,5,1470,0,3,2,desert_1,2,memory-2step-stake-s,631,1878395,0.0-19.0-0.1-0.133,A1Q56N80RJLQ7S,3Q9SPIIRXM2ML6FVM0W2D0Z2IA6WAR,3RXCAC0YIV5FRFUA0ZD8KQ36SAF8GW,1,2
134,4,object_10,object_01,245.90000000596,7,1,711.19999998808,0.5555555555555556,1,object_04,1,1475,0,5,0,restaurant_2,2,memory-2step-stake-s,632,1886814,0.0-19.0-0.1-0.134,A1Q56N80RJLQ7S,3Q9SPIIRXM2ML6FVM0W2D0Z2IA6WAR,3RXCAC0YIV5FRFUA0ZD8KQ36SAF8GW,7,8
135,1,object_02,object_03,322.69999998808,1,1,317.20000001788,0.6666666666666666,1,object_04,5,1505,0,6,1,desert_3,2,memory-2step-stake-s,633,1894942,0.0-19.0-0.1-0.135,A1Q56N80RJLQ7S,3Q9SPIIRXM2ML6FVM0W2D0Z2IA6WAR,3RXCAC0YIV5FRFUA0ZD8KQ36SAF8GW,1,2
136,2,object_08,object_05,326.0,3,1,260.20000001788,0.2222222222222222,1,object_04,5,1515,0,2,0,forest_3,2,memory-2step-stake-s,634,1902612,0.0-19.0-0.1-0.136,A1Q56N80RJLQ7S,3Q9SPIIRXM2ML6FVM0W2D0Z2IA6WAR,3RXCAC0YIV5FRFUA0ZD8KQ36SAF8GW,3,4
137,2,object_05,object_08,175.59999999404,3,2,242.59999999404,0.2222222222222222,1,object_04,5,1525,0,2,0,forest_3,2,memory-2step-stake-s,635,1910262,0.0-19.0-0.1-0.137,A1Q56N80RJLQ7S,3Q9SPIIRXM2ML6FVM0W2D0Z2IA6WAR,3RXCAC0YIV5FRFUA0ZD8KQ36SAF8GW,4,3
138,2,object_08,object_05,284.09999999404,4,2,332.30000001192,0.1111111111111111,2,object_07,5,1530,0,1,1,forest_4,2,memory-2step-stake-s,636,1917904,0.0-19.0-0.1-0.138,A1Q56N80RJLQ7S,3Q9SPIIRXM2ML6FVM0W2D0Z2IA6WAR,3RXCAC0YIV5FRFUA0ZD8KQ36SAF8GW,3,4
139,1,object_03,object_02,410.90000000596,1,2,309.5,0.3333333333333333,1,object_04,5,1545,0,3,3,desert_1,2,memory-2step-stake-s,637,1925724,0.0-19.0-0.1-0.139,A1Q56N80RJLQ7S,3Q9SPIIRXM2ML6FVM0W2D0Z2IA6WAR,3RXCAC0YIV5FRFUA0ZD8KQ36SAF8GW,2,1
140,1,object_03,object_02,122.5,1,2,-1.0,0.0,1,object_04,5,1545,0,1,1,desert_3,2,memory-2step-stake-s,638,1934230,0.0-19.0-0.1-0.140,A1Q56N80RJLQ7S,3Q9SPIIRXM2ML6FVM0W2D0Z2IA6WAR,3RXCAC0YIV5FRFUA0ZD8KQ36SAF8GW,2,1
141,3,object_06,object_09,168.90000000596,5,2,363.30000001192,0.3333333333333333,1,object_04,1,1548,0,3,2,library_3,2,memory-2step-stake-s,639,1942102,0.0-19.0-0.1-0.141,A1Q56N80RJLQ7S,3Q9SPIIRXM2ML6FVM0W2D0Z2IA6WAR,3RXCAC0YIV5FRFUA0ZD8KQ36SAF8GW,6,5
142,3,object_06,object_09,510.79999998212,6,1,481.19999998808,0.1111111111111111,2,object_07,1,1549,0,6,1,library_3,2,memory-2step-stake-s,640,1949891,0.0-19.0-0.1-0.142,A1Q56N80RJLQ7S,3Q9SPIIRXM2ML6FVM0W2D0Z2IA6WAR,3RXCAC0YIV5FRFUA0ZD8KQ36SAF8GW,6,5
143,2,object_08,object_05,317.90000000596,4,2,307.80000001192,0.1111111111111111,2,object_07,1,1550,0,6,1,forest_4,2,memory-2step-stake-s,641,1957507,0.0-19.0-0.1-0.143,A1Q56N80RJLQ7S,3Q9SPIIRXM2ML6FVM0W2D0Z2IA6WAR,3RXCAC0YIV5FRFUA0ZD8KQ36SAF8GW,3,4
144,2,object_05,object_08,254.90000000596,4,1,267.69999998808,0.2222222222222222,2,object_07,5,1560,0,5,2,forest_7,2,memory-2step-stake-s,642,1965183,0.0-19.0-0.1-0.144,A1Q56N80RJLQ7S,3Q9SPIIRXM2ML6FVM0W2D0Z2IA6WAR,3RXCAC0YIV5FRFUA0ZD8KQ36SAF8GW,4,3
145,3,object_09,object_06,415.10000002384,6,2,1477.1999999881,0.1111111111111111,2,object_07,1,1561,0,3,1,library_6,2,memory-2step-stake-s,643,1973968,0.0-19.0-0.1-0.145,A1Q56N80RJLQ7S,3Q9SPIIRXM2ML6FVM0W2D0Z2IA6WAR,3RXCAC0YIV5FRFUA0ZD8KQ36SAF8GW,5,6
146,1,object_02,object_03,291.90000000596,1,1,193.19999998808,0.2222222222222222,1,object_04,5,1571,0,2,2,desert_4,2,memory-2step-stake-s,644,1981572,0.0-19.0-0.1-0.146,A1Q56N80RJLQ7S,3Q9SPIIRXM2ML6FVM0W2D0Z2IA6WAR,3RXCAC0YIV5FRFUA0ZD8KQ36SAF8GW,1,2
147,4,object_01,object_10,506.40000000596,7,2,884.0,0.0,1,object_04,1,1571,0,0,4,restaurant_1,2,memory-2step-stake-s,645,1989665,0.0-19.0-0.1-0.147,A1Q56N80RJLQ7S,3Q9SPIIRXM2ML6FVM0W2D0Z2IA6WAR,3RXCAC0YIV5FRFUA0ZD8KQ36SAF8GW,8,7
148,1,object_03,object_02,497.40000000596,2,1,236.59999999404,0.3333333333333333,2,object_07,5,1586,0,0,3,desert_4,2,memory-2step-stake-s,646,1997411,0.0-19.0-0.1-0.148,A1Q56N80RJLQ7S,3Q9SPIIRXM2ML6FVM0W2D0Z2IA6WAR,3RXCAC0YIV5FRFUA0ZD8KQ36SAF8GW,2,1
149,2,object_08,object_05,514.20000001788,3,1,418.09999999404,0.1111111111111111,1,object_04,5,1591,0,1,2,forest_4,2,memory-2step-stake-s,647,2005139,0.0-19.0-0.1-0.149,A1Q56N80RJLQ7S,3Q9SPIIRXM2ML6FVM0W2D0Z2IA6WAR,3RXCAC0YIV5FRFUA0ZD8KQ36SAF8GW,3,4
150,3,object_09,object_06,383.59999999404,6,2,377.80000001192,0.2222222222222222,2,object_07,1,1593,0,0,2,library_4,2,memory-2step-stake-s,648,2012928,0.0-19.0-0.1-0.150,A1Q56N80RJLQ7S,3Q9SPIIRXM2ML6FVM0W2D0Z2IA6WAR,3RXCAC0YIV5FRFUA0ZD8KQ36SAF8GW,5,6
151,2,object_08,object_05,292.20000001788,3,1,260.79999998212,0.1111111111111111,1,object_04,5,1598,0,1,1,forest_4,2,memory-2step-stake-s,649,2020498,0.0-19.0-0.1-0.151,A1Q56N80RJLQ7S,3Q9SPIIRXM2ML6FVM0W2D0Z2IA6WAR,3RXCAC0YIV5FRFUA0ZD8KQ36SAF8GW,3,4
152,2,object_08,object_05,237.59999999404,3,1,340.69999998808,0.2222222222222222,1,object_04,5,1608,0,2,4,forest_3,2,memory-2step-stake-s,650,2028248,0.0-19.0-0.1-0.152,A1Q56N80RJLQ7S,3Q9SPIIRXM2ML6FVM0W2D0Z2IA6WAR,3RXCAC0YIV5FRFUA0ZD8KQ36SAF8GW,3,4
153,4,object_10,object_01,532.39999997616,8,2,596.69999998808,0.6666666666666666,2,object_07,1,1614,0,1,6,restaurant_2,2,memory-2step-stake-s,651,2036657,0.0-19.0-0.1-0.153,A1Q56N80RJLQ7S,3Q9SPIIRXM2ML6FVM0W2D0Z2IA6WAR,3RXCAC0YIV5FRFUA0ZD8KQ36SAF8GW,7,8
154,3,object_06,object_09,786.40000000596,6,1,431.80000001192,0.8888888888888888,2,object_07,1,1622,0,5,8,library_4,2,memory-2step-stake-s,652,2045103,0.0-19.0-0.1-0.154,A1Q56N80RJLQ7S,3Q9SPIIRXM2ML6FVM0W2D0Z2IA6WAR,3RXCAC0YIV5FRFUA0ZD8KQ36SAF8GW,6,5
155,1,object_03,object_02,405.80000001192,2,1,9.9000000059605,0.8888888888888888,2,object_07,5,1662,0,5,8,desert_8,2,memory-2step-stake-s,653,2053127,0.0-19.0-0.1-0.155,A1Q56N80RJLQ7S,3Q9SPIIRXM2ML6FVM0W2D0Z2IA6WAR,3RXCAC0YIV5FRFUA0ZD8KQ36SAF8GW,2,1
156,4,object_10,object_01,286.0,7,1,321.10000002384,0.6666666666666666,1,object_04,1,1668,0,6,6,restaurant_2,2,memory-2step-stake-s,654,2061260,0.0-19.0-0.1-0.156,A1Q56N80RJLQ7S,3Q9SPIIRXM2ML6FVM0W2D0Z2IA6WAR,3RXCAC0YIV5FRFUA0ZD8KQ36SAF8GW,7,8
157,4,object_10,object_01,285.90000000596,8,2,-1.0,0.0,2,object_07,1,1668,0,6,1,restaurant_7,2,memory-2step-stake-s,655,2069768,0.0-19.0-0.1-0.157,A1Q56N80RJLQ7S,3Q9SPIIRXM2ML6FVM0W2D0Z2IA6WAR,3RXCAC0YIV5FRFUA0ZD8KQ36SAF8GW,7,8
158,3,object_06,object_09,275.19999998808,6,1,418.80000001192,0.1111111111111111,2,object_07,1,1669,0,6,1,library_4,2,memory-2step-stake-s,656,2077494,0.0-19.0-0.1-0.158,A1Q56N80RJLQ7S,3Q9SPIIRXM2ML6FVM0W2D0Z2IA6WAR,3RXCAC0YIV5FRFUA0ZD8KQ36SAF8GW,6,5
159,2,object_08,object_05,401.09999999404,4,2,398.40000000596,0.0,2,object_07,1,1669,0,3,0,forest_8,2,memory-2step-stake-s,657,2085101,0.0-19.0-0.1-0.159,A1Q56N80RJLQ7S,3Q9SPIIRXM2ML6FVM0W2D0Z2IA6WAR,3RXCAC0YIV5FRFUA0ZD8KQ36SAF8GW,3,4
160,4,object_10,object_01,339.0,7,1,352.90000000596,0.1111111111111111,1,object_04,5,1674,0,1,0,restaurant_1,2,memory-2step-stake-s,658,2092764,0.0-19.0-0.1-0.160,A1Q56N80RJLQ7S,3Q9SPIIRXM2ML6FVM0W2D0Z2IA6WAR,3RXCAC0YIV5FRFUA0ZD8KQ36SAF8GW,7,8
161,2,object_08,object_05,301.29999998212,3,1,243.0,0.2222222222222222,1,object_04,5,1684,0,2,3,forest_4,2,memory-2step-stake-s,659,2100419,0.0-19.0-0.1-0.161,A1Q56N80RJLQ7S,3Q9SPIIRXM2ML6FVM0W2D0Z2IA6WAR,3RXCAC0YIV5FRFUA0ZD8KQ36SAF8GW,3,4
162,2,object_05,object_08,141.0,4,1,87.40000000596,0.1111111111111111,2,object_07,1,1685,0,3,1,forest_3,2,memory-2step-stake-s,660,2107817,0.0-19.0-0.1-0.162,A1Q56N80RJLQ7S,3Q9SPIIRXM2ML6FVM0W2D0Z2IA6WAR,3RXCAC0YIV5FRFUA0ZD8KQ36SAF8GW,4,3
163,4,object_01,object_10,224.20000001788,8,1,297.5,0.2222222222222222,2,object_07,1,1687,0,6,2,restaurant_8,2,memory-2step-stake-s,661,2115524,0.0-19.0-0.1-0.163,A1Q56N80RJLQ7S,3Q9SPIIRXM2ML6FVM0W2D0Z2IA6WAR,3RXCAC0YIV5FRFUA0ZD8KQ36SAF8GW,8,7
164,1,object_02,object_03,294.90000000596,2,2,298.0,0.3333333333333333,2,object_07,5,1702,0,3,3,desert_1,2,memory-2step-stake-s,662,2123330,0.0-19.0-0.1-0.164,A1Q56N80RJLQ7S,3Q9SPIIRXM2ML6FVM0W2D0Z2IA6WAR,3RXCAC0YIV5FRFUA0ZD8KQ36SAF8GW,1,2
165,3,object_06,object_09,309.70000001788,6,1,456.69999998808,0.6666666666666666,2,object_07,1,1708,0,4,6,library_4,2,memory-2step-stake-s,663,2131596,0.0-19.0-0.1-0.165,A1Q56N80RJLQ7S,3Q9SPIIRXM2ML6FVM0W2D0Z2IA6WAR,3RXCAC0YIV5FRFUA0ZD8KQ36SAF8GW,6,5
166,3,object_06,object_09,233.5,5,2,929.19999998808,0.8888888888888888,1,object_04,5,1748,0,8,7,library_6,2,memory-2step-stake-s,664,2140534,0.0-19.0-0.1-0.166,A1Q56N80RJLQ7S,3Q9SPIIRXM2ML6FVM0W2D0Z2IA6WAR,3RXCAC0YIV5FRFUA0ZD8KQ36SAF8GW,6,5
167,1,object_02,object_03,216.59999999404,1,1,305.90000000596,0.7777777777777778,1,object_04,1,1755,0,7,7,desert_8,2,memory-2step-stake-s,665,2148749,0.0-19.0-0.1-0.167,A1Q56N80RJLQ7S,3Q9SPIIRXM2ML6FVM0W2D0Z2IA6WAR,3RXCAC0YIV5FRFUA0ZD8KQ36SAF8GW,1,2
168,2,object_05,object_08,278.0,3,2,64.700000017881,1.0,1,object_04,5,1800,0,9,7,forest_4,2,memory-2step-stake-s,666,2156922,0.0-19.0-0.1-0.168,A1Q56N80RJLQ7S,3Q9SPIIRXM2ML6FVM0W2D0Z2IA6WAR,3RXCAC0YIV5FRFUA0ZD8KQ36SAF8GW,4,3
169,2,object_05,object_08,505.09999999404,3,2,330.0,0.5555555555555556,1,object_04,5,1825,0,5,8,forest_7,2,memory-2step-stake-s,667,2164960,0.0-19.0-0.1-0.169,A1Q56N80RJLQ7S,3Q9SPIIRXM2ML6FVM0W2D0Z2IA6WAR,3RXCAC0YIV5FRFUA0ZD8KQ36SAF8GW,4,3
170,4,object_10,object_01,586.19999998808,7,1,601.80000001192,0.2222222222222222,1,object_04,5,1835,0,2,7,restaurant_1,2,memory-2step-stake-s,668,2172969,0.0-19.0-0.1-0.170,A1Q56N80RJLQ7S,3Q9SPIIRXM2ML6FVM0W2D0Z2IA6WAR,3RXCAC0YIV5FRFUA0ZD8KQ36SAF8GW,7,8
171,3,object_09,object_06,332.29999998212,6,2,793.29999998212,0.8888888888888888,2,object_07,1,1843,0,2,8,library_6,2,memory-2step-stake-s,669,2181774,0.0-19.0-0.1-0.171,A1Q56N80RJLQ7S,3Q9SPIIRXM2ML6FVM0W2D0Z2IA6WAR,3RXCAC0YIV5FRFUA0ZD8KQ36SAF8GW,5,6
172,3,object_06,object_09,451.0,5,2,517.90000000596,0.5555555555555556,1,object_04,1,1848,0,5,4,library_4,2,memory-2step-stake-s,670,2190000,0.0-19.0-0.1-0.172,A1Q56N80RJLQ7S,3Q9SPIIRXM2ML6FVM0W2D0Z2IA6WAR,3RXCAC0YIV5FRFUA0ZD8KQ36SAF8GW,6,5
173,1,object_03,object_02,357.29999998212,1,2,283.20000001788,0.7777777777777778,1,object_04,5,1883,0,7,5,desert_1,2,memory-2step-stake-s,671,2198193,0.0-19.0-0.1-0.173,A1Q56N80RJLQ7S,3Q9SPIIRXM2ML6FVM0W2D0Z2IA6WAR,3RXCAC0YIV5FRFUA0ZD8KQ36SAF8GW,2,1
174,2,object_08,object_05,496.30000001192,3,1,378.90000000596,0.8888888888888888,1,object_04,5,1923,0,8,3,forest_8,2,memory-2step-stake-s,672,2206582,0.0-19.0-0.1-0.174,A1Q56N80RJLQ7S,3Q9SPIIRXM2ML6FVM0W2D0Z2IA6WAR,3RXCAC0YIV5FRFUA0ZD8KQ36SAF8GW,3,4
175,3,object_09,object_06,296.09999999404,6,2,1056.099999994,0.2222222222222222,2,object_07,1,1925,0,8,2,library_1,2,memory-2step-stake-s,673,2215046,0.0-19.0-0.1-0.175,A1Q56N80RJLQ7S,3Q9SPIIRXM2ML6FVM0W2D0Z2IA6WAR,3RXCAC0YIV5FRFUA0ZD8KQ36SAF8GW,5,6
176,1,object_03,object_02,330.90000000596,2,1,149.0,0.2222222222222222,2,object_07,1,1927,0,9,2,desert_3,2,memory-2step-stake-s,674,2222604,0.0-19.0-0.1-0.176,A1Q56N80RJLQ7S,3Q9SPIIRXM2ML6FVM0W2D0Z2IA6WAR,3RXCAC0YIV5FRFUA0ZD8KQ36SAF8GW,2,1
177,4,object_01,object_10,440.59999999404,8,1,186.90000000596,0.3333333333333333,2,object_07,1,1930,0,4,3,restaurant_7,2,memory-2step-stake-s,675,2230302,0.0-19.0-0.1-0.177,A1Q56N80RJLQ7S,3Q9SPIIRXM2ML6FVM0W2D0Z2IA6WAR,3RXCAC0YIV5FRFUA0ZD8KQ36SAF8GW,8,7
178,1,object_02,object_03,417.70000001788,2,2,965.89999997616,0.2222222222222222,2,object_07,5,1940,0,3,2,desert_4,2,memory-2step-stake-s,676,2238679,0.0-19.0-0.1-0.178,A1Q56N80RJLQ7S,3Q9SPIIRXM2ML6FVM0W2D0Z2IA6WAR,3RXCAC0YIV5FRFUA0ZD8KQ36SAF8GW,1,2
179,3,object_09,object_06,393.09999999404,5,1,830.59999999404,0.6666666666666666,1,object_04,1,1946,0,6,5,library_3,2,memory-2step-stake-s,677,2247321,0.0-19.0-0.1-0.179,A1Q56N80RJLQ7S,3Q9SPIIRXM2ML6FVM0W2D0Z2IA6WAR,3RXCAC0YIV5FRFUA0ZD8KQ36SAF8GW,5,6
180,3,object_09,object_06,385.29999998212,5,1,251.70000001788,0.7777777777777778,1,object_04,1,1953,0,7,6,library_6,2,memory-2step-stake-s,678,2255486,0.0-19.0-0.1-0.180,A1Q56N80RJLQ7S,3Q9SPIIRXM2ML6FVM0W2D0Z2IA6WAR,3RXCAC0YIV5FRFUA0ZD8KQ36SAF8GW,5,6
181,3,object_06,object_09,516.60000002384,6,1,446.20000001788,0.4444444444444444,2,object_07,1,1957,0,6,4,library_4,2,memory-2step-stake-s,679,2263542,0.0-19.0-0.1-0.181,A1Q56N80RJLQ7S,3Q9SPIIRXM2ML6FVM0W2D0Z2IA6WAR,3RXCAC0YIV5FRFUA0ZD8KQ36SAF8GW,6,5
182,1,object_03,object_02,281.09999999404,2,1,318.40000000596,0.4444444444444444,2,object_07,1,1961,0,5,4,desert_1,2,memory-2step-stake-s,680,2271473,0.0-19.0-0.1-0.182,A1Q56N80RJLQ7S,3Q9SPIIRXM2ML6FVM0W2D0Z2IA6WAR,3RXCAC0YIV5FRFUA0ZD8KQ36SAF8GW,2,1
183,4,object_01,object_10,-1.0,-1,-1,-1.0,0.0,-,0,1,1961,0,8,6,restaurant_8,2,memory-2step-stake-s,681,2277979,0.0-19.0-0.1-0.183,A1Q56N80RJLQ7S,3Q9SPIIRXM2ML6FVM0W2D0Z2IA6WAR,3RXCAC0YIV5FRFUA0ZD8KQ36SAF8GW,8,7
184,3,object_06,object_09,302.90000000596,6,1,-1.0,0.0,2,object_07,1,1961,0,6,5,library_3,2,memory-2step-stake-s,682,2286489,0.0-19.0-0.1-0.184,A1Q56N80RJLQ7S,3Q9SPIIRXM2ML6FVM0W2D0Z2IA6WAR,3RXCAC0YIV5FRFUA0ZD8KQ36SAF8GW,6,5
185,1,object_02,object_03,95.700000017881,2,2,270.30000001192,0.5555555555555556,2,object_07,5,1986,0,6,5,desert_3,2,memory-2step-stake-s,683,2294471,0.0-19.0-0.1-0.185,A1Q56N80RJLQ7S,3Q9SPIIRXM2ML6FVM0W2D0Z2IA6WAR,3RXCAC0YIV5FRFUA0ZD8KQ36SAF8GW,1,2
186,2,object_05,object_08,304.5,3,2,288.0,0.8888888888888888,1,object_04,1,1994,0,8,3,forest_4,2,memory-2step-stake-s,684,2302772,0.0-19.0-0.1-0.186,A1Q56N80RJLQ7S,3Q9SPIIRXM2ML6FVM0W2D0Z2IA6WAR,3RXCAC0YIV5FRFUA0ZD8KQ36SAF8GW,4,3
187,2,object_05,object_08,189.09999999404,3,2,393.30000001192,0.6666666666666666,1,object_04,5,2024,0,6,3,forest_8,2,memory-2step-stake-s,685,2310980,0.0-19.0-0.1-0.187,A1Q56N80RJLQ7S,3Q9SPIIRXM2ML6FVM0W2D0Z2IA6WAR,3RXCAC0YIV5FRFUA0ZD8KQ36SAF8GW,4,3
188,1,object_02,object_03,548.40000000596,1,1,420.30000001192,0.6666666666666666,1,object_04,5,2054,0,6,4,desert_4,2,memory-2step-stake-s,686,2319212,0.0-19.0-0.1-0.188,A1Q56N80RJLQ7S,3Q9SPIIRXM2ML6FVM0W2D0Z2IA6WAR,3RXCAC0YIV5FRFUA0ZD8KQ36SAF8GW,1,2
189,1,object_03,object_02,230.20000001788,1,2,971.09999999404,0.6666666666666666,1,object_04,1,2060,0,6,7,desert_4,2,memory-2step-stake-s,687,2327994,0.0-19.0-0.1-0.189,A1Q56N80RJLQ7S,3Q9SPIIRXM2ML6FVM0W2D0Z2IA6WAR,3RXCAC0YIV5FRFUA0ZD8KQ36SAF8GW,2,1
190,2,object_05,object_08,8.1999999880791,3,2,887.40000000596,0.5555555555555556,1,object_04,1,2065,0,5,7,forest_7,2,memory-2step-stake-s,688,2336592,0.0-19.0-0.1-0.190,A1Q56N80RJLQ7S,3Q9SPIIRXM2ML6FVM0W2D0Z2IA6WAR,3RXCAC0YIV5FRFUA0ZD8KQ36SAF8GW,4,3
191,2,object_05,object_08,851.0,4,1,257.59999999404,0.8888888888888888,2,object_07,5,2105,0,6,8,forest_8,2,memory-2step-stake-s,689,2344864,0.0-19.0-0.1-0.191,A1Q56N80RJLQ7S,3Q9SPIIRXM2ML6FVM0W2D0Z2IA6WAR,3RXCAC0YIV5FRFUA0ZD8KQ36SAF8GW,4,3
192,2,object_05,object_08,282.90000000596,4,1,292.69999998808,0.8888888888888888,2,object_07,5,2145,0,9,8,forest_8,2,memory-2step-stake-s,690,2353167,0.0-19.0-0.1-0.192,A1Q56N80RJLQ7S,3Q9SPIIRXM2ML6FVM0W2D0Z2IA6WAR,3RXCAC0YIV5FRFUA0ZD8KQ36SAF8GW,4,3
193,4,object_01,object_10,246.70000001788,7,2,253.40000000596,0.8888888888888888,1,object_04,1,2153,0,8,9,restaurant_8,2,memory-2step-stake-s,691,2361430,0.0-19.0-0.1-0.193,A1Q56N80RJLQ7S,3Q9SPIIRXM2ML6FVM0W2D0Z2IA6WAR,3RXCAC0YIV5FRFUA0ZD8KQ36SAF8GW,8,7
194,2,object_08,object_05,251.39999997616,3,1,294.90000000596,0.7777777777777778,1,object_04,5,2188,0,7,6,forest_4,2,memory-2step-stake-s,692,2369634,0.0-19.0-0.1-0.194,A1Q56N80RJLQ7S,3Q9SPIIRXM2ML6FVM0W2D0Z2IA6WAR,3RXCAC0YIV5FRFUA0ZD8KQ36SAF8GW,3,4
195,2,object_08,object_05,362.90000000596,3,1,883.80000001192,1.0,1,object_04,1,2197,0,9,5,forest_8,2,memory-2step-stake-s,693,2378629,0.0-19.0-0.1-0.195,A1Q56N80RJLQ7S,3Q9SPIIRXM2ML6FVM0W2D0Z2IA6WAR,3RXCAC0YIV5FRFUA0ZD8KQ36SAF8GW,3,4
196,3,object_06,object_09,329.29999998212,5,2,251.09999999404,0.8888888888888888,1,object_04,1,2205,0,8,5,library_3,2,memory-2step-stake-s,694,2386891,0.0-19.0-0.1-0.196,A1Q56N80RJLQ7S,3Q9SPIIRXM2ML6FVM0W2D0Z2IA6WAR,3RXCAC0YIV5FRFUA0ZD8KQ36SAF8GW,6,5
197,1,object_03,object_02,295.0,2,1,105.89999997616,0.7777777777777778,2,object_07,5,2240,0,8,7,desert_8,2,memory-2step-stake-s,695,2394909,0.0-19.0-0.1-0.197,A1Q56N80RJLQ7S,3Q9SPIIRXM2ML6FVM0W2D0Z2IA6WAR,3RXCAC0YIV5FRFUA0ZD8KQ36SAF8GW,2,1
198,1,object_03,object_02,518.59999999404,1,2,166.0,0.8888888888888888,1,object_04,5,2280,0,8,7,desert_3,2,memory-2step-stake-s,696,2403085,0.0-19.0-0.1-0.198,A1Q56N80RJLQ7S,3Q9SPIIRXM2ML6FVM0W2D0Z2IA6WAR,3RXCAC0YIV5FRFUA0ZD8KQ36SAF8GW,2,1
199,3,object_06,object_09,336.5,6,1,407.0,0.7777777777777778,2,object_07,1,2287,0,9,7,library_1,2,memory-2step-stake-s,697,2411404,0.0-19.0-0.1-0.199,A1Q56N80RJLQ7S,3Q9SPIIRXM2ML6FVM0W2D0Z2IA6WAR,3RXCAC0YIV5FRFUA0ZD8KQ36SAF8GW,6,5
200,3,object_06,object_09,1250.599999994,6,1,277.29999998212,0.7777777777777778,2,object_07,1,2294,0,6,7,library_1,2,memory-2step-stake-s,698,2419592,0.0-19.0-0.1-0.200,A1Q56N80RJLQ7S,3Q9SPIIRXM2ML6FVM0W2D0Z2IA6WAR,3RXCAC0YIV5FRFUA0ZD8KQ36SAF8GW,6,5
201,2,object_08,object_05,249.5,4,2,248.80000001192,0.8888888888888888,2,object_07,5,2334,0,7,8,forest_4,2,memory-2step-stake-s,699,2427852,0.0-19.0-0.1-0.201,A1Q56N80RJLQ7S,3Q9SPIIRXM2ML6FVM0W2D0Z2IA6WAR,3RXCAC0YIV5FRFUA0ZD8KQ36SAF8GW,3,4
202,4,object_10,object_01,310.20000001788,7,1,309.09999999404,0.6666666666666666,1,object_04,1,2340,0,6,8,restaurant_2,2,memory-2step-stake-s,700,2435971,0.0-19.0-0.1-0.202,A1Q56N80RJLQ7S,3Q9SPIIRXM2ML6FVM0W2D0Z2IA6WAR,3RXCAC0YIV5FRFUA0ZD8KQ36SAF8GW,7,8
203,2,object_05,object_08,281.09999999404,3,2,255.80000001192,0.4444444444444444,1,object_04,5,2360,0,4,9,forest_8,2,memory-2step-stake-s,701,2443839,0.0-19.0-0.1-0.203,A1Q56N80RJLQ7S,3Q9SPIIRXM2ML6FVM0W2D0Z2IA6WAR,3RXCAC0YIV5FRFUA0ZD8KQ36SAF8GW,4,3
204,2,object_08,object_05,183.90000000596,3,1,249.90000000596,0.5555555555555556,1,object_04,5,2385,0,5,3,forest_3,2,memory-2step-stake-s,702,2451799,0.0-19.0-0.1-0.204,A1Q56N80RJLQ7S,3Q9SPIIRXM2ML6FVM0W2D0Z2IA6WAR,3RXCAC0YIV5FRFUA0ZD8KQ36SAF8GW,3,4
205,2,object_05,object_08,329.19999998808,4,1,123.5,0.5555555555555556,2,object_07,5,2410,0,4,5,forest_7,2,memory-2step-stake-s,703,2459633,0.0-19.0-0.1-0.205,A1Q56N80RJLQ7S,3Q9SPIIRXM2ML6FVM0W2D0Z2IA6WAR,3RXCAC0YIV5FRFUA0ZD8KQ36SAF8GW,4,3
206,1,object_02,object_03,396.20000001788,2,2,219.30000001192,0.8888888888888888,2,object_07,5,2450,0,3,8,desert_1,2,memory-2step-stake-s,704,2467866,0.0-19.0-0.1-0.206,A1Q56N80RJLQ7S,3Q9SPIIRXM2ML6FVM0W2D0Z2IA6WAR,3RXCAC0YIV5FRFUA0ZD8KQ36SAF8GW,1,2
207,2,object_08,object_05,397.80000001192,3,1,313.20000001788,0.6666666666666666,1,object_04,5,2480,0,6,6,forest_4,2,memory-2step-stake-s,705,2475993,0.0-19.0-0.1-0.207,A1Q56N80RJLQ7S,3Q9SPIIRXM2ML6FVM0W2D0Z2IA6WAR,3RXCAC0YIV5FRFUA0ZD8KQ36SAF8GW,3,4
208,1,object_02,object_03,443.80000001192,1,1,374.0,0.8888888888888888,1,object_04,5,2520,0,8,6,desert_4,2,memory-2step-stake-s,706,2484379,0.0-19.0-0.1-0.208,A1Q56N80RJLQ7S,3Q9SPIIRXM2ML6FVM0W2D0Z2IA6WAR,3RXCAC0YIV5FRFUA0ZD8KQ36SAF8GW,1,2
209,2,object_08,object_05,307.89999997616,3,1,367.70000001788,0.6666666666666666,1,object_04,5,2550,0,6,4,forest_4,2,memory-2step-stake-s,707,2492561,0.0-19.0-0.1-0.209,A1Q56N80RJLQ7S,3Q9SPIIRXM2ML6FVM0W2D0Z2IA6WAR,3RXCAC0YIV5FRFUA0ZD8KQ36SAF8GW,3,4
210,1,object_03,object_02,254.0,2,1,260.59999999404,0.2222222222222222,2,object_07,5,2560,0,5,2,desert_4,2,memory-2step-stake-s,708,2500233,0.0-19.0-0.1-0.210,A1Q56N80RJLQ7S,3Q9SPIIRXM2ML6FVM0W2D0Z2IA6WAR,3RXCAC0YIV5FRFUA0ZD8KQ36SAF8GW,2,1
211,3,object_06,object_09,353.40000000596,6,1,384.5,0.3333333333333333,2,object_07,1,2563,0,6,3,library_1,2,memory-2step-stake-s,709,2508128,0.0-19.0-0.1-0.211,A1Q56N80RJLQ7S,3Q9SPIIRXM2ML6FVM0W2D0Z2IA6WAR,3RXCAC0YIV5FRFUA0ZD8KQ36SAF8GW,6,5
212,3,object_06,object_09,261.70000001788,6,1,275.59999999404,0.3333333333333333,2,object_07,1,2566,0,6,3,library_4,2,memory-2step-stake-s,710,2515914,0.0-19.0-0.1-0.212,A1Q56N80RJLQ7S,3Q9SPIIRXM2ML6FVM0W2D0Z2IA6WAR,3RXCAC0YIV5FRFUA0ZD8KQ36SAF8GW,6,5
213,1,object_03,object_02,336.59999999404,2,1,304.5,0.2222222222222222,2,object_07,5,2576,0,9,2,desert_3,2,memory-2step-stake-s,711,2523629,0.0-19.0-0.1-0.213,A1Q56N80RJLQ7S,3Q9SPIIRXM2ML6FVM0W2D0Z2IA6WAR,3RXCAC0YIV5FRFUA0ZD8KQ36SAF8GW,2,1
214,1,object_03,object_02,126.5,1,2,398.59999999404,0.8888888888888888,1,object_04,5,2616,0,8,4,desert_1,2,memory-2step-stake-s,712,2532040,0.0-19.0-0.1-0.214,A1Q56N80RJLQ7S,3Q9SPIIRXM2ML6FVM0W2D0Z2IA6WAR,3RXCAC0YIV5FRFUA0ZD8KQ36SAF8GW,2,1
215,4,object_01,object_10,240.90000000596,8,1,23.40000000596,0.0,2,object_07,1,2616,0,8,0,restaurant_1,2,memory-2step-stake-s,713,2539272,0.0-19.0-0.1-0.215,A1Q56N80RJLQ7S,3Q9SPIIRXM2ML6FVM0W2D0Z2IA6WAR,3RXCAC0YIV5FRFUA0ZD8KQ36SAF8GW,8,7
216,4,object_01,object_10,299.0,7,2,382.5,0.5555555555555556,1,object_04,1,2621,0,5,1,restaurant_2,2,memory-2step-stake-s,714,2547367,0.0-19.0-0.1-0.216,A1Q56N80RJLQ7S,3Q9SPIIRXM2ML6FVM0W2D0Z2IA6WAR,3RXCAC0YIV5FRFUA0ZD8KQ36SAF8GW,8,7
217,1,object_03,object_02,234.89999997616,1,2,426.29999998212,0.7777777777777778,1,object_04,5,2656,0,7,0,desert_1,2,memory-2step-stake-s,715,2555710,0.0-19.0-0.1-0.217,A1Q56N80RJLQ7S,3Q9SPIIRXM2ML6FVM0W2D0Z2IA6WAR,3RXCAC0YIV5FRFUA0ZD8KQ36SAF8GW,2,1
218,3,object_09,object_06,271.59999999404,6,2,249.89999997616,0.3333333333333333,2,object_07,1,2659,0,4,3,library_1,2,memory-2step-stake-s,716,2563473,0.0-19.0-0.1-0.218,A1Q56N80RJLQ7S,3Q9SPIIRXM2ML6FVM0W2D0Z2IA6WAR,3RXCAC0YIV5FRFUA0ZD8KQ36SAF8GW,5,6
219,3,object_09,object_06,176.09999999404,5,1,331.0,0.4444444444444444,1,object_04,1,2663,0,4,5,library_6,2,memory-2step-stake-s,717,2571413,0.0-19.0-0.1-0.219,A1Q56N80RJLQ7S,3Q9SPIIRXM2ML6FVM0W2D0Z2IA6WAR,3RXCAC0YIV5FRFUA0ZD8KQ36SAF8GW,5,6
220,4,object_01,object_10,282.59999999404,7,2,266.30000001192,0.3333333333333333,1,object_04,1,2666,0,3,6,restaurant_2,2,memory-2step-stake-s,718,2579188,0.0-19.0-0.1-0.220,A1Q56N80RJLQ7S,3Q9SPIIRXM2ML6FVM0W2D0Z2IA6WAR,3RXCAC0YIV5FRFUA0ZD8KQ36SAF8GW,8,7
221,1,object_02,object_03,299.5,2,2,519.69999998808,0.8888888888888888,2,object_07,5,2706,0,3,8,desert_3,2,memory-2step-stake-s,719,2587718,0.0-19.0-0.1-0.221,A1Q56N80RJLQ7S,3Q9SPIIRXM2ML6FVM0W2D0Z2IA6WAR,3RXCAC0YIV5FRFUA0ZD8KQ36SAF8GW,1,2
222,3,object_09,object_06,262.80000001192,5,1,423.40000000596,0.6666666666666666,1,object_04,5,2736,0,6,9,library_4,2,memory-2step-stake-s,720,2595952,0.0-19.0-0.1-0.222,A1Q56N80RJLQ7S,3Q9SPIIRXM2ML6FVM0W2D0Z2IA6WAR,3RXCAC0YIV5FRFUA0ZD8KQ36SAF8GW,5,6
223,4,object_10,object_01,494.0,7,1,3.7000000178814,0.6666666666666666,1,object_04,1,2742,0,6,8,restaurant_2,2,memory-2step-stake-s,721,2603765,0.0-19.0-0.1-0.223,A1Q56N80RJLQ7S,3Q9SPIIRXM2ML6FVM0W2D0Z2IA6WAR,3RXCAC0YIV5FRFUA0ZD8KQ36SAF8GW,7,8
224,3,object_06,object_09,301.19999998808,6,1,-1.0,0.0,2,object_07,5,2742,0,3,9,library_3,2,memory-2step-stake-s,722,2612272,0.0-19.0-0.1-0.224,A1Q56N80RJLQ7S,3Q9SPIIRXM2ML6FVM0W2D0Z2IA6WAR,3RXCAC0YIV5FRFUA0ZD8KQ36SAF8GW,6,5
225,1,object_03,object_02,331.60000002384,1,2,-1.0,0.0,1,object_04,5,2742,0,5,9,desert_1,2,memory-2step-stake-s,723,2620781,0.0-19.0-0.1-0.225,A1Q56N80RJLQ7S,3Q9SPIIRXM2ML6FVM0W2D0Z2IA6WAR,3RXCAC0YIV5FRFUA0ZD8KQ36SAF8GW,2,1
226,2,object_08,object_05,296.40000000596,4,2,874.40000000596,0.8888888888888888,2,object_07,5,2782,0,6,8,forest_3,2,memory-2step-stake-s,724,2629664,0.0-19.0-0.1-0.226,A1Q56N80RJLQ7S,3Q9SPIIRXM2ML6FVM0W2D0Z2IA6WAR,3RXCAC0YIV5FRFUA0ZD8KQ36SAF8GW,3,4
227,3,object_09,object_06,259.30000001192,6,2,266.09999999404,0.6666666666666666,2,object_07,1,2788,0,7,6,library_4,2,memory-2step-stake-s,725,2637740,0.0-19.0-0.1-0.227,A1Q56N80RJLQ7S,3Q9SPIIRXM2ML6FVM0W2D0Z2IA6WAR,3RXCAC0YIV5FRFUA0ZD8KQ36SAF8GW,5,6
228,4,object_10,object_01,116.80000001192,7,1,-1.0,0.0,1,object_04,1,2788,0,5,6,restaurant_7,2,memory-2step-stake-s,726,2646248,0.0-19.0-0.1-0.228,A1Q56N80RJLQ7S,3Q9SPIIRXM2ML6FVM0W2D0Z2IA6WAR,3RXCAC0YIV5FRFUA0ZD8KQ36SAF8GW,7,8
229,4,object_01,object_10,55.5,8,1,383.90000000596,0.5555555555555556,2,object_07,5,2813,0,8,5,restaurant_8,2,memory-2step-stake-s,727,2654345,0.0-19.0-0.1-0.229,A1Q56N80RJLQ7S,3Q9SPIIRXM2ML6FVM0W2D0Z2IA6WAR,3RXCAC0YIV5FRFUA0ZD8KQ36SAF8GW,8,7
230,4,object_01,object_10,10.899999976158,8,1,70.0,0.7777777777777778,2,object_07,1,2820,0,6,7,restaurant_1,2,memory-2step-stake-s,728,2662326,0.0-19.0-0.1-0.230,A1Q56N80RJLQ7S,3Q9SPIIRXM2ML6FVM0W2D0Z2IA6WAR,3RXCAC0YIV5FRFUA0ZD8KQ36SAF8GW,8,7
231,2,object_05,object_08,267.70000001788,3,2,87.200000017881,0.6666666666666666,1,object_04,5,2850,0,6,6,forest_8,2,memory-2step-stake-s,729,2670225,0.0-19.0-0.1-0.231,A1Q56N80RJLQ7S,3Q9SPIIRXM2ML6FVM0W2D0Z2IA6WAR,3RXCAC0YIV5FRFUA0ZD8KQ36SAF8GW,4,3
232,4,object_01,object_10,271.80000001192,8,1,336.60000002384,0.6666666666666666,2,object_07,5,2880,0,7,6,restaurant_8,2,memory-2step-stake-s,730,2678373,0.0-19.0-0.1-0.232,A1Q56N80RJLQ7S,3Q9SPIIRXM2ML6FVM0W2D0Z2IA6WAR,3RXCAC0YIV5FRFUA0ZD8KQ36SAF8GW,8,7
233,1,object_03,object_02,441.80000001192,1,2,336.5,0.7777777777777778,1,object_04,5,2915,0,7,3,desert_4,2,memory-2step-stake-s,731,2686620,0.0-19.0-0.1-0.233,A1Q56N80RJLQ7S,3Q9SPIIRXM2ML6FVM0W2D0Z2IA6WAR,3RXCAC0YIV5FRFUA0ZD8KQ36SAF8GW,2,1
234,1,object_02,object_03,190.60000002384,1,1,369.5,0.6666666666666666,1,object_04,5,2945,0,6,3,desert_4,2,memory-2step-stake-s,732,2694799,0.0-19.0-0.1-0.234,A1Q56N80RJLQ7S,3Q9SPIIRXM2ML6FVM0W2D0Z2IA6WAR,3RXCAC0YIV5FRFUA0ZD8KQ36SAF8GW,1,2
235,3,object_06,object_09,503.5,6,1,1468.2000000179,0.7777777777777778,2,object_07,5,2980,0,6,7,library_1,2,memory-2step-stake-s,733,2704181,0.0-19.0-0.1-0.235,A1Q56N80RJLQ7S,3Q9SPIIRXM2ML6FVM0W2D0Z2IA6WAR,3RXCAC0YIV5FRFUA0ZD8KQ36SAF8GW,6,5
236,1,object_02,object_03,487.09999999404,1,1,308.59999999404,1.0,1,object_04,5,3025,0,9,5,desert_4,2,memory-2step-stake-s,734,2712601,0.0-19.0-0.1-0.236,A1Q56N80RJLQ7S,3Q9SPIIRXM2ML6FVM0W2D0Z2IA6WAR,3RXCAC0YIV5FRFUA0ZD8KQ36SAF8GW,1,2
237,3,object_06,object_09,435.0,6,1,359.09999999404,0.8888888888888888,2,object_07,5,3065,0,8,8,library_3,2,memory-2step-stake-s,735,2720974,0.0-19.0-0.1-0.237,A1Q56N80RJLQ7S,3Q9SPIIRXM2ML6FVM0W2D0Z2IA6WAR,3RXCAC0YIV5FRFUA0ZD8KQ36SAF8GW,6,5
238,4,object_01,object_10,429.30000001192,8,1,1132.8999999762,0.8888888888888888,2,object_07,5,3105,0,9,8,restaurant_8,2,memory-2step-stake-s,736,2730119,0.0-19.0-0.1-0.238,A1Q56N80RJLQ7S,3Q9SPIIRXM2ML6FVM0W2D0Z2IA6WAR,3RXCAC0YIV5FRFUA0ZD8KQ36SAF8GW,8,7
239,4,object_10,object_01,341.5,7,1,262.69999998808,0.4444444444444444,1,object_04,1,3109,0,4,5,restaurant_1,2,memory-2step-stake-s,737,2737996,0.0-19.0-0.1-0.239,A1Q56N80RJLQ7S,3Q9SPIIRXM2ML6FVM0W2D0Z2IA6WAR,3RXCAC0YIV5FRFUA0ZD8KQ36SAF8GW,7,8
240,2,object_08,object_05,307.90000000596,4,2,657.39999997616,0.3333333333333333,2,object_07,5,3124,0,2,3,forest_4,2,memory-2step-stake-s,738,2746165,0.0-19.0-0.1-0.240,A1Q56N80RJLQ7S,3Q9SPIIRXM2ML6FVM0W2D0Z2IA6WAR,3RXCAC0YIV5FRFUA0ZD8KQ36SAF8GW,3,4
241,3,object_09,object_06,208.40000000596,6,2,344.09999999404,0.2222222222222222,2,object_07,1,3126,0,0,2,library_6,2,memory-2step-stake-s,739,2753921,0.0-19.0-0.1-0.241,A1Q56N80RJLQ7S,3Q9SPIIRXM2ML6FVM0W2D0Z2IA6WAR,3RXCAC0YIV5FRFUA0ZD8KQ36SAF8GW,5,6
242,3,object_06,object_09,246.59999999404,5,2,799.30000001192,0.3333333333333333,1,object_04,1,3129,0,3,1,library_4,2,memory-2step-stake-s,740,2762230,0.0-19.0-0.1-0.242,A1Q56N80RJLQ7S,3Q9SPIIRXM2ML6FVM0W2D0Z2IA6WAR,3RXCAC0YIV5FRFUA0ZD8KQ36SAF8GW,6,5
243,1,object_03,object_02,475.90000000596,1,2,325.19999998808,0.3333333333333333,1,object_04,5,3144,0,3,3,desert_8,2,memory-2step-stake-s,741,2770063,0.0-19.0-0.1-0.243,A1Q56N80RJLQ7S,3Q9SPIIRXM2ML6FVM0W2D0Z2IA6WAR,3RXCAC0YIV5FRFUA0ZD8KQ36SAF8GW,2,1
244,4,object_01,object_10,337.09999999404,8,1,475.70000001788,0.2222222222222222,2,object_07,5,3154,0,5,2,restaurant_1,2,memory-2step-stake-s,742,2777946,0.0-19.0-0.1-0.244,A1Q56N80RJLQ7S,3Q9SPIIRXM2ML6FVM0W2D0Z2IA6WAR,3RXCAC0YIV5FRFUA0ZD8KQ36SAF8GW,8,7
245,3,object_09,object_06,168.59999999404,5,1,787.0,0.4444444444444444,1,object_04,1,3158,0,4,2,library_4,2,memory-2step-stake-s,743,2786342,0.0-19.0-0.1-0.245,A1Q56N80RJLQ7S,3Q9SPIIRXM2ML6FVM0W2D0Z2IA6WAR,3RXCAC0YIV5FRFUA0ZD8KQ36SAF8GW,5,6
246,4,object_10,object_01,21.90000000596,7,1,286.5,0.7777777777777778,1,object_04,5,3193,0,7,0,restaurant_2,2,memory-2step-stake-s,744,2794539,0.0-19.0-0.1-0.246,A1Q56N80RJLQ7S,3Q9SPIIRXM2ML6FVM0W2D0Z2IA6WAR,3RXCAC0YIV5FRFUA0ZD8KQ36SAF8GW,7,8
247,1,object_02,object_03,45.09999999404,1,1,460.69999998808,0.8888888888888888,1,object_04,1,3201,0,8,1,desert_8,2,memory-2step-stake-s,745,2803008,0.0-19.0-0.1-0.247,A1Q56N80RJLQ7S,3Q9SPIIRXM2ML6FVM0W2D0Z2IA6WAR,3RXCAC0YIV5FRFUA0ZD8KQ36SAF8GW,1,2
248,4,object_10,object_01,298.90000000596,7,1,-1.0,0.0,1,object_04,1,3201,0,8,3,restaurant_7,2,memory-2step-stake-s,746,2811515,0.0-19.0-0.1-0.248,A1Q56N80RJLQ7S,3Q9SPIIRXM2ML6FVM0W2D0Z2IA6WAR,3RXCAC0YIV5FRFUA0ZD8KQ36SAF8GW,7,8
249,3,object_09,object_06,309.69999998808,5,1,281.0,0.7777777777777778,1,object_04,5,3236,0,7,5,library_3,2,memory-2step-stake-s,747,2819705,0.0-19.0-0.1-0.249,A1Q56N80RJLQ7S,3Q9SPIIRXM2ML6FVM0W2D0Z2IA6WAR,3RXCAC0YIV5FRFUA0ZD8KQ36SAF8GW,5,6
250,3,object_06,object_09,568.30000001192,6,1,465.39999997616,0.2222222222222222,2,object_07,1,3238,0,6,2,library_1,2,memory-2step-stake-s,748,2827577,0.0-19.0-0.1-0.250,A1Q56N80RJLQ7S,3Q9SPIIRXM2ML6FVM0W2D0Z2IA6WAR,3RXCAC0YIV5FRFUA0ZD8KQ36SAF8GW,6,5
251,4,object_10,object_01,601.5,7,1,1296.0,0.5555555555555556,1,object_04,1,3243,0,5,1,restaurant_1,2,memory-2step-stake-s,749,2836583,0.0-19.0-0.1-0.251,A1Q56N80RJLQ7S,3Q9SPIIRXM2ML6FVM0W2D0Z2IA6WAR,3RXCAC0YIV5FRFUA0ZD8KQ36SAF8GW,7,8
252,4,object_01,object_10,377.5,7,2,505.0,0.6666666666666666,1,object_04,1,3249,0,6,0,restaurant_1,2,memory-2step-stake-s,750,2844900,0.0-19.0-0.1-0.252,A1Q56N80RJLQ7S,3Q9SPIIRXM2ML6FVM0W2D0Z2IA6WAR,3RXCAC0YIV5FRFUA0ZD8KQ36SAF8GW,8,7
253,4,object_01,object_10,284.0,8,1,233.09999999404,0.1111111111111111,2,object_07,1,3250,0,6,1,restaurant_7,2,memory-2step-stake-s,751,2852442,0.0-19.0-0.1-0.253,A1Q56N80RJLQ7S,3Q9SPIIRXM2ML6FVM0W2D0Z2IA6WAR,3RXCAC0YIV5FRFUA0ZD8KQ36SAF8GW,8,7
254,4,object_01,object_10,245.5,7,2,31.800000011921,0.5555555555555556,1,object_04,5,3275,0,5,0,restaurant_1,2,memory-2step-stake-s,752,2860186,0.0-19.0-0.1-0.254,A1Q56N80RJLQ7S,3Q9SPIIRXM2ML6FVM0W2D0Z2IA6WAR,3RXCAC0YIV5FRFUA0ZD8KQ36SAF8GW,8,7
255,3,object_06,object_09,218.70000001788,6,1,407.0,0.1111111111111111,2,object_07,1,3276,0,6,1,library_4,2,memory-2step-stake-s,753,2867900,0.0-19.0-0.1-0.255,A1Q56N80RJLQ7S,3Q9SPIIRXM2ML6FVM0W2D0Z2IA6WAR,3RXCAC0YIV5FRFUA0ZD8KQ36SAF8GW,6,5
