,state1,stim_left,stim_right,rt_1,choice1,response1,rt_2,points,state2,stim_state2,stake,score,practice,rews1,rews2,background,high_arm,trial_type,trial_index,time_elapsed,internal_node_id,subid,hitid,assignmentid,stim_left_num,stim_right_num
0,2,object_04,object_05,866.19999980927,3,2,-1.0,0.0,1,object_02,1,0,0,0,0,forest_1,1,memory-2step-stake-s,494,846338,0.0-19.0-0.0-0.0,A1GC6CN3F0IHWN,3QGHA0EA1MGR4GKNSEWY8BJ80SRWBM,39O5D9O87X8G968ZMWMT3IAGEWV3CP,4,3
1,3,object_10,object_06,771.79999995232,6,1,-1.0,0.0,2,object_09,1,0,0,1,2,library_3,1,memory-2step-stake-s,495,854920,0.0-19.0-0.0-0.1,A1GC6CN3F0IHWN,3QGHA0EA1MGR4GKNSEWY8BJ80SRWBM,39O5D9O87X8G968ZMWMT3IAGEWV3CP,6,5
2,1,object_07,object_03,806.5,2,1,1465.0,0.0,2,object_09,1,0,0,2,0,desert_5,1,memory-2step-stake-s,496,863671,0.0-19.0-0.0-0.2,A1GC6CN3F0IHWN,3QGHA0EA1MGR4GKNSEWY8BJ80SRWBM,39O5D9O87X8G968ZMWMT3IAGEWV3CP,2,1
3,3,object_10,object_06,428.0,5,2,301.39999985695,0.1111111111111111,1,object_02,5,5,0,1,1,library_3,1,memory-2step-stake-s,497,871387,0.0-19.0-0.0-0.3,A1GC6CN3F0IHWN,3QGHA0EA1MGR4GKNSEWY8BJ80SRWBM,39O5D9O87X8G968ZMWMT3IAGEWV3CP,6,5
4,1,object_03,object_07,563.20000004768,1,1,530.70000004768,0.1111111111111111,1,object_02,1,6,0,1,5,desert_8,1,memory-2step-stake-s,498,879334,0.0-19.0-0.0-0.4,A1GC6CN3F0IHWN,3QGHA0EA1MGR4GKNSEWY8BJ80SRWBM,39O5D9O87X8G968ZMWMT3IAGEWV3CP,1,2
5,2,object_05,object_04,925.90000009537,4,2,439.5,0.8888888888888888,2,object_09,5,46,0,3,8,forest_7,1,memory-2step-stake-s,499,887960,0.0-19.0-0.0-0.5,A1GC6CN3F0IHWN,3QGHA0EA1MGR4GKNSEWY8BJ80SRWBM,39O5D9O87X8G968ZMWMT3IAGEWV3CP,3,4
6,4,object_01,object_08,920.89999985695,7,1,356.89999985695,0.5555555555555556,1,object_02,5,71,0,5,8,restaurant_3,1,memory-2step-stake-s,500,896174,0.0-19.0-0.0-0.6,A1GC6CN3F0IHWN,3QGHA0EA1MGR4GKNSEWY8BJ80SRWBM,39O5D9O87X8G968ZMWMT3IAGEWV3CP,7,8
7,3,object_06,object_10,562.09999990463,6,2,331.20000004768,0.8888888888888888,2,object_09,5,111,0,5,8,library_8,1,memory-2step-stake-s,501,904697,0.0-19.0-0.0-0.7,A1GC6CN3F0IHWN,3QGHA0EA1MGR4GKNSEWY8BJ80SRWBM,39O5D9O87X8G968ZMWMT3IAGEWV3CP,5,6
8,4,object_08,object_01,351.29999995232,7,2,601.59999990463,0.4444444444444444,1,object_02,5,131,0,4,7,restaurant_1,1,memory-2step-stake-s,502,913073,0.0-19.0-0.0-0.8,A1GC6CN3F0IHWN,3QGHA0EA1MGR4GKNSEWY8BJ80SRWBM,39O5D9O87X8G968ZMWMT3IAGEWV3CP,8,7
9,1,object_03,object_07,1061.1000001431,2,2,558.59999990463,0.5555555555555556,2,object_09,1,136,0,5,5,desert_8,1,memory-2step-stake-s,503,921491,0.0-19.0-0.0-0.9,A1GC6CN3F0IHWN,3QGHA0EA1MGR4GKNSEWY8BJ80SRWBM,39O5D9O87X8G968ZMWMT3IAGEWV3CP,1,2
10,4,object_08,object_01,366.59999990463,8,1,320.29999995232,0.7777777777777778,2,object_09,5,171,0,8,7,restaurant_8,1,memory-2step-stake-s,504,929906,0.0-19.0-0.0-0.10,A1GC6CN3F0IHWN,3QGHA0EA1MGR4GKNSEWY8BJ80SRWBM,39O5D9O87X8G968ZMWMT3IAGEWV3CP,8,7
11,3,object_06,object_10,764.5,6,2,426.59999990463,0.8888888888888888,2,object_09,5,211,0,7,8,library_5,1,memory-2step-stake-s,505,938539,0.0-19.0-0.0-0.11,A1GC6CN3F0IHWN,3QGHA0EA1MGR4GKNSEWY8BJ80SRWBM,39O5D9O87X8G968ZMWMT3IAGEWV3CP,5,6
12,4,object_08,object_01,538.89999985695,7,2,344.20000004768,1.0,1,object_02,5,256,0,9,9,restaurant_8,1,memory-2step-stake-s,506,947245,0.0-19.0-0.0-0.12,A1GC6CN3F0IHWN,3QGHA0EA1MGR4GKNSEWY8BJ80SRWBM,39O5D9O87X8G968ZMWMT3IAGEWV3CP,8,7
13,4,object_01,object_08,365.59999990463,7,1,258.69999980927,0.8888888888888888,1,object_02,5,296,0,8,8,restaurant_8,1,memory-2step-stake-s,507,955702,0.0-19.0-0.0-0.13,A1GC6CN3F0IHWN,3QGHA0EA1MGR4GKNSEWY8BJ80SRWBM,39O5D9O87X8G968ZMWMT3IAGEWV3CP,7,8
14,2,object_04,object_05,871.79999995232,4,1,567.79999995232,0.8888888888888888,2,object_09,1,304,0,8,8,forest_1,1,memory-2step-stake-s,508,964484,0.0-19.0-0.0-0.14,A1GC6CN3F0IHWN,3QGHA0EA1MGR4GKNSEWY8BJ80SRWBM,39O5D9O87X8G968ZMWMT3IAGEWV3CP,4,3
15,1,object_07,object_03,-1.0,-1,-1,-1.0,0.0,-,0,1,304,0,9,8,desert_5,1,memory-2step-stake-s,509,971025,0.0-19.0-0.0-0.15,A1GC6CN3F0IHWN,3QGHA0EA1MGR4GKNSEWY8BJ80SRWBM,39O5D9O87X8G968ZMWMT3IAGEWV3CP,2,1
16,3,object_10,object_06,574.59999990463,6,1,355.80000019073,0.7777777777777778,2,object_09,5,339,0,6,7,library_5,1,memory-2step-stake-s,510,979456,0.0-19.0-0.0-0.16,A1GC6CN3F0IHWN,3QGHA0EA1MGR4GKNSEWY8BJ80SRWBM,39O5D9O87X8G968ZMWMT3IAGEWV3CP,6,5
17,3,object_10,object_06,531.79999995232,6,1,428.5,1.0,2,object_09,5,384,0,7,9,library_6,1,memory-2step-stake-s,511,988172,0.0-19.0-0.0-0.17,A1GC6CN3F0IHWN,3QGHA0EA1MGR4GKNSEWY8BJ80SRWBM,39O5D9O87X8G968ZMWMT3IAGEWV3CP,6,5
18,3,object_06,object_10,312.59999990463,6,2,318.0,0.8888888888888888,2,object_09,5,424,0,5,8,library_6,1,memory-2step-stake-s,512,996658,0.0-19.0-0.0-0.18,A1GC6CN3F0IHWN,3QGHA0EA1MGR4GKNSEWY8BJ80SRWBM,39O5D9O87X8G968ZMWMT3IAGEWV3CP,5,6
19,3,object_06,object_10,285.70000004768,5,1,324.59999990463,0.4444444444444444,1,object_02,5,444,0,4,8,library_5,1,memory-2step-stake-s,513,1004691,0.0-19.0-0.0-0.19,A1GC6CN3F0IHWN,3QGHA0EA1MGR4GKNSEWY8BJ80SRWBM,39O5D9O87X8G968ZMWMT3IAGEWV3CP,5,6
20,1,object_03,object_07,623.29999995232,2,2,284.79999995232,0.7777777777777778,2,object_09,1,451,0,6,7,desert_2,1,memory-2step-stake-s,514,1013021,0.0-19.0-0.0-0.20,A1GC6CN3F0IHWN,3QGHA0EA1MGR4GKNSEWY8BJ80SRWBM,39O5D9O87X8G968ZMWMT3IAGEWV3CP,1,2
21,1,object_07,object_03,724.09999990463,2,1,410.89999985695,1.0,2,object_09,1,460,0,4,9,desert_6,1,memory-2step-stake-s,515,1021720,0.0-19.0-0.0-0.21,A1GC6CN3F0IHWN,3QGHA0EA1MGR4GKNSEWY8BJ80SRWBM,39O5D9O87X8G968ZMWMT3IAGEWV3CP,2,1
22,1,object_07,object_03,501.0,2,1,303.29999995232,0.8888888888888888,2,object_09,1,468,0,5,8,desert_2,1,memory-2step-stake-s,516,1030181,0.0-19.0-0.0-0.22,A1GC6CN3F0IHWN,3QGHA0EA1MGR4GKNSEWY8BJ80SRWBM,39O5D9O87X8G968ZMWMT3IAGEWV3CP,2,1
23,2,object_05,object_04,661.90000009537,4,2,313.29999995232,0.6666666666666666,2,object_09,1,474,0,5,6,forest_2,1,memory-2step-stake-s,517,1038454,0.0-19.0-0.0-0.23,A1GC6CN3F0IHWN,3QGHA0EA1MGR4GKNSEWY8BJ80SRWBM,39O5D9O87X8G968ZMWMT3IAGEWV3CP,3,4
24,2,object_04,object_05,596.0,3,2,511.79999995232,0.6666666666666666,1,object_02,1,480,0,6,3,forest_7,1,memory-2step-stake-s,518,1046983,0.0-19.0-0.0-0.24,A1GC6CN3F0IHWN,3QGHA0EA1MGR4GKNSEWY8BJ80SRWBM,39O5D9O87X8G968ZMWMT3IAGEWV3CP,4,3
25,1,object_07,object_03,939.80000019073,2,1,304.40000009537,0.5555555555555556,2,object_09,5,505,0,6,5,desert_5,1,memory-2step-stake-s,519,1055107,0.0-19.0-0.0-0.25,A1GC6CN3F0IHWN,3QGHA0EA1MGR4GKNSEWY8BJ80SRWBM,39O5D9O87X8G968ZMWMT3IAGEWV3CP,2,1
26,1,object_03,object_07,697.0,1,1,280.20000004768,0.4444444444444444,1,object_02,1,509,0,4,5,desert_2,1,memory-2step-stake-s,520,1063119,0.0-19.0-0.0-0.26,A1GC6CN3F0IHWN,3QGHA0EA1MGR4GKNSEWY8BJ80SRWBM,39O5D9O87X8G968ZMWMT3IAGEWV3CP,1,2
27,1,object_03,object_07,655.5,2,2,320.29999995232,0.2222222222222222,2,object_09,1,511,0,5,2,desert_5,1,memory-2step-stake-s,521,1070956,0.0-19.0-0.0-0.27,A1GC6CN3F0IHWN,3QGHA0EA1MGR4GKNSEWY8BJ80SRWBM,39O5D9O87X8G968ZMWMT3IAGEWV3CP,1,2
28,2,object_05,object_04,990.0,4,2,309.60000014305,0.2222222222222222,2,object_09,1,513,0,7,2,forest_7,1,memory-2step-stake-s,522,1078732,0.0-19.0-0.0-0.28,A1GC6CN3F0IHWN,3QGHA0EA1MGR4GKNSEWY8BJ80SRWBM,39O5D9O87X8G968ZMWMT3IAGEWV3CP,3,4
29,2,object_04,object_05,1252.4000000954,3,2,391.10000014305,0.8888888888888888,1,object_02,1,521,0,8,2,forest_2,1,memory-2step-stake-s,523,1087272,0.0-19.0-0.0-0.29,A1GC6CN3F0IHWN,3QGHA0EA1MGR4GKNSEWY8BJ80SRWBM,39O5D9O87X8G968ZMWMT3IAGEWV3CP,4,3
30,3,object_06,object_10,668.5,5,1,377.0,0.8888888888888888,1,object_02,5,561,0,8,1,library_3,1,memory-2step-stake-s,524,1095791,0.0-19.0-0.0-0.30,A1GC6CN3F0IHWN,3QGHA0EA1MGR4GKNSEWY8BJ80SRWBM,39O5D9O87X8G968ZMWMT3IAGEWV3CP,5,6
31,3,object_10,object_06,1187.9000000954,5,2,318.90000009537,0.7777777777777778,1,object_02,5,596,0,7,1,library_6,1,memory-2step-stake-s,525,1104173,0.0-19.0-0.0-0.31,A1GC6CN3F0IHWN,3QGHA0EA1MGR4GKNSEWY8BJ80SRWBM,39O5D9O87X8G968ZMWMT3IAGEWV3CP,6,5
32,3,object_10,object_06,856.20000004768,5,2,519.70000004768,0.7777777777777778,1,object_02,5,631,0,7,5,library_5,1,memory-2step-stake-s,526,1112730,0.0-19.0-0.0-0.32,A1GC6CN3F0IHWN,3QGHA0EA1MGR4GKNSEWY8BJ80SRWBM,39O5D9O87X8G968ZMWMT3IAGEWV3CP,6,5
33,1,object_07,object_03,717.89999985695,1,2,414.39999985695,0.5555555555555556,1,object_02,1,636,0,5,4,desert_2,1,memory-2step-stake-s,527,1120990,0.0-19.0-0.0-0.33,A1GC6CN3F0IHWN,3QGHA0EA1MGR4GKNSEWY8BJ80SRWBM,39O5D9O87X8G968ZMWMT3IAGEWV3CP,2,1
34,4,object_01,object_08,1084.6000001431,7,1,288.70000004768,0.3333333333333333,1,object_02,5,651,0,3,3,restaurant_8,1,memory-2step-stake-s,528,1128868,0.0-19.0-0.0-0.34,A1GC6CN3F0IHWN,3QGHA0EA1MGR4GKNSEWY8BJ80SRWBM,39O5D9O87X8G968ZMWMT3IAGEWV3CP,7,8
35,1,object_03,object_07,566.29999995232,2,2,777.90000009537,0.3333333333333333,2,object_09,1,654,0,5,3,desert_6,1,memory-2step-stake-s,529,1137229,0.0-19.0-0.0-0.35,A1GC6CN3F0IHWN,3QGHA0EA1MGR4GKNSEWY8BJ80SRWBM,39O5D9O87X8G968ZMWMT3IAGEWV3CP,1,2
36,3,object_10,object_06,761.70000004768,5,2,270.80000019073,0.7777777777777778,1,object_02,5,689,0,7,7,library_6,1,memory-2step-stake-s,530,1145590,0.0-19.0-0.0-0.36,A1GC6CN3F0IHWN,3QGHA0EA1MGR4GKNSEWY8BJ80SRWBM,39O5D9O87X8G968ZMWMT3IAGEWV3CP,6,5
37,3,object_10,object_06,887.20000004768,5,2,274.69999980927,0.7777777777777778,1,object_02,5,724,0,7,9,library_6,1,memory-2step-stake-s,531,1153925,0.0-19.0-0.0-0.37,A1GC6CN3F0IHWN,3QGHA0EA1MGR4GKNSEWY8BJ80SRWBM,39O5D9O87X8G968ZMWMT3IAGEWV3CP,6,5
38,2,object_05,object_04,939.59999990463,4,2,274.90000009537,0.7777777777777778,2,object_09,1,731,0,7,7,forest_6,1,memory-2step-stake-s,532,1162259,0.0-19.0-0.0-0.38,A1GC6CN3F0IHWN,3QGHA0EA1MGR4GKNSEWY8BJ80SRWBM,39O5D9O87X8G968ZMWMT3IAGEWV3CP,3,4
39,2,object_05,object_04,775.70000004768,4,2,-1.0,0.0,2,object_09,5,731,0,7,6,forest_7,1,memory-2step-stake-s,533,1170852,0.0-19.0-0.0-0.39,A1GC6CN3F0IHWN,3QGHA0EA1MGR4GKNSEWY8BJ80SRWBM,39O5D9O87X8G968ZMWMT3IAGEWV3CP,3,4
40,1,object_03,object_07,706.69999980927,2,2,455.5,0.7777777777777778,2,object_09,1,738,0,9,7,desert_6,1,memory-2step-stake-s,534,1179376,0.0-19.0-0.0-0.40,A1GC6CN3F0IHWN,3QGHA0EA1MGR4GKNSEWY8BJ80SRWBM,39O5D9O87X8G968ZMWMT3IAGEWV3CP,1,2
41,4,object_01,object_08,354.20000004768,8,2,-1.0,0.0,2,object_09,5,738,0,6,8,restaurant_8,1,memory-2step-stake-s,535,1187960,0.0-19.0-0.0-0.41,A1GC6CN3F0IHWN,3QGHA0EA1MGR4GKNSEWY8BJ80SRWBM,39O5D9O87X8G968ZMWMT3IAGEWV3CP,7,8
42,3,object_06,object_10,354.79999995232,6,2,379.59999990463,1.0,2,object_09,5,783,0,5,9,library_5,1,memory-2step-stake-s,536,1196629,0.0-19.0-0.0-0.42,A1GC6CN3F0IHWN,3QGHA0EA1MGR4GKNSEWY8BJ80SRWBM,39O5D9O87X8G968ZMWMT3IAGEWV3CP,5,6
43,2,object_04,object_05,520.19999980927,3,2,353.30000019073,0.4444444444444444,1,object_02,1,787,0,4,8,forest_1,1,memory-2step-stake-s,537,1204720,0.0-19.0-0.0-0.43,A1GC6CN3F0IHWN,3QGHA0EA1MGR4GKNSEWY8BJ80SRWBM,39O5D9O87X8G968ZMWMT3IAGEWV3CP,4,3
44,2,object_04,object_05,332.70000004768,4,1,580.20000004768,0.7777777777777778,2,object_09,1,794,0,6,7,forest_6,1,memory-2step-stake-s,538,1213360,0.0-19.0-0.0-0.44,A1GC6CN3F0IHWN,3QGHA0EA1MGR4GKNSEWY8BJ80SRWBM,39O5D9O87X8G968ZMWMT3IAGEWV3CP,4,3
45,1,object_07,object_03,279.29999995232,2,1,519.19999980927,0.8888888888888888,2,object_09,1,802,0,7,8,desert_5,1,memory-2step-stake-s,539,1222044,0.0-19.0-0.0-0.45,A1GC6CN3F0IHWN,3QGHA0EA1MGR4GKNSEWY8BJ80SRWBM,39O5D9O87X8G968ZMWMT3IAGEWV3CP,2,1
46,2,object_05,object_04,587.29999995232,4,2,293.70000004768,0.7777777777777778,2,object_09,1,809,0,9,7,forest_6,1,memory-2step-stake-s,540,1230427,0.0-19.0-0.0-0.46,A1GC6CN3F0IHWN,3QGHA0EA1MGR4GKNSEWY8BJ80SRWBM,39O5D9O87X8G968ZMWMT3IAGEWV3CP,3,4
47,3,object_06,object_10,384.30000019073,6,2,264.5,0.6666666666666666,2,object_09,5,839,0,7,6,library_3,1,memory-2step-stake-s,541,1238626,0.0-19.0-0.0-0.47,A1GC6CN3F0IHWN,3QGHA0EA1MGR4GKNSEWY8BJ80SRWBM,39O5D9O87X8G968ZMWMT3IAGEWV3CP,5,6
48,4,object_01,object_08,277.69999980927,7,1,233.30000019073,0.8888888888888888,1,object_02,5,879,0,8,4,restaurant_7,1,memory-2step-stake-s,542,1247074,0.0-19.0-0.0-0.48,A1GC6CN3F0IHWN,3QGHA0EA1MGR4GKNSEWY8BJ80SRWBM,39O5D9O87X8G968ZMWMT3IAGEWV3CP,7,8
49,4,object_01,object_08,466.89999985695,8,2,287.19999980927,0.5555555555555556,2,object_09,1,884,0,5,5,restaurant_1,1,memory-2step-stake-s,543,1255212,0.0-19.0-0.0-0.49,A1GC6CN3F0IHWN,3QGHA0EA1MGR4GKNSEWY8BJ80SRWBM,39O5D9O87X8G968ZMWMT3IAGEWV3CP,7,8
50,2,object_04,object_05,163.80000019073,4,1,343.59999990463,0.6666666666666666,2,object_09,1,890,0,6,6,forest_1,1,memory-2step-stake-s,544,1263495,0.0-19.0-0.0-0.50,A1GC6CN3F0IHWN,3QGHA0EA1MGR4GKNSEWY8BJ80SRWBM,39O5D9O87X8G968ZMWMT3IAGEWV3CP,4,3
51,4,object_01,object_08,769.5,8,2,332.20000004768,0.5555555555555556,2,object_09,5,915,0,4,5,restaurant_8,1,memory-2step-stake-s,545,1271721,0.0-19.0-0.0-0.51,A1GC6CN3F0IHWN,3QGHA0EA1MGR4GKNSEWY8BJ80SRWBM,39O5D9O87X8G968ZMWMT3IAGEWV3CP,7,8
52,2,object_04,object_05,888.60000014305,3,2,284.29999995232,0.5555555555555556,1,object_02,1,920,0,5,3,forest_2,1,memory-2step-stake-s,546,1279879,0.0-19.0-0.0-0.52,A1GC6CN3F0IHWN,3QGHA0EA1MGR4GKNSEWY8BJ80SRWBM,39O5D9O87X8G968ZMWMT3IAGEWV3CP,4,3
53,3,object_10,object_06,672.70000004768,5,2,700.40000009537,0.4444444444444444,1,object_02,1,924,0,4,5,library_5,1,memory-2step-stake-s,547,1288362,0.0-19.0-0.0-0.53,A1GC6CN3F0IHWN,3QGHA0EA1MGR4GKNSEWY8BJ80SRWBM,39O5D9O87X8G968ZMWMT3IAGEWV3CP,6,5
54,2,object_04,object_05,1070.3999998569,4,1,420.5,0.3333333333333333,2,object_09,1,927,0,4,3,forest_1,1,memory-2step-stake-s,548,1296430,0.0-19.0-0.0-0.54,A1GC6CN3F0IHWN,3QGHA0EA1MGR4GKNSEWY8BJ80SRWBM,39O5D9O87X8G968ZMWMT3IAGEWV3CP,4,3
55,2,object_04,object_05,626.89999985695,3,2,437.70000004768,0.3333333333333333,1,object_02,1,930,0,3,3,forest_6,1,memory-2step-stake-s,549,1304444,0.0-19.0-0.0-0.55,A1GC6CN3F0IHWN,3QGHA0EA1MGR4GKNSEWY8BJ80SRWBM,39O5D9O87X8G968ZMWMT3IAGEWV3CP,4,3
56,3,object_10,object_06,529.0,5,2,254.29999995232,0.3333333333333333,1,object_02,5,945,0,3,2,library_5,1,memory-2step-stake-s,550,1312317,0.0-19.0-0.0-0.56,A1GC6CN3F0IHWN,3QGHA0EA1MGR4GKNSEWY8BJ80SRWBM,39O5D9O87X8G968ZMWMT3IAGEWV3CP,6,5
57,1,object_07,object_03,605.09999990463,2,1,286.29999995232,0.2222222222222222,2,object_09,1,947,0,1,2,desert_8,1,memory-2step-stake-s,551,1320094,0.0-19.0-0.0-0.57,A1GC6CN3F0IHWN,3QGHA0EA1MGR4GKNSEWY8BJ80SRWBM,39O5D9O87X8G968ZMWMT3IAGEWV3CP,2,1
58,1,object_03,object_07,555.89999985695,2,2,249.30000019073,0.4444444444444444,2,object_09,1,951,0,1,4,desert_6,1,memory-2step-stake-s,552,1328071,0.0-19.0-0.0-0.58,A1GC6CN3F0IHWN,3QGHA0EA1MGR4GKNSEWY8BJ80SRWBM,39O5D9O87X8G968ZMWMT3IAGEWV3CP,1,2
59,4,object_08,object_01,305.09999990463,8,1,399.20000004768,0.4444444444444444,2,object_09,5,971,0,3,4,restaurant_1,1,memory-2step-stake-s,553,1336197,0.0-19.0-0.0-0.59,A1GC6CN3F0IHWN,3QGHA0EA1MGR4GKNSEWY8BJ80SRWBM,39O5D9O87X8G968ZMWMT3IAGEWV3CP,8,7
60,4,object_01,object_08,611.20000004768,8,2,429.0,0.8888888888888888,2,object_09,5,1011,0,4,8,restaurant_7,1,memory-2step-stake-s,554,1344788,0.0-19.0-0.0-0.60,A1GC6CN3F0IHWN,3QGHA0EA1MGR4GKNSEWY8BJ80SRWBM,39O5D9O87X8G968ZMWMT3IAGEWV3CP,7,8
61,2,object_05,object_04,695.20000004768,3,1,679.70000004768,0.4444444444444444,1,object_02,1,1015,0,4,8,forest_7,1,memory-2step-stake-s,555,1353179,0.0-19.0-0.0-0.61,A1GC6CN3F0IHWN,3QGHA0EA1MGR4GKNSEWY8BJ80SRWBM,39O5D9O87X8G968ZMWMT3IAGEWV3CP,3,4
62,2,object_04,object_05,466.5,3,2,254.5,0.7777777777777778,1,object_02,1,1022,0,7,8,forest_6,1,memory-2step-stake-s,556,1361493,0.0-19.0-0.0-0.62,A1GC6CN3F0IHWN,3QGHA0EA1MGR4GKNSEWY8BJ80SRWBM,39O5D9O87X8G968ZMWMT3IAGEWV3CP,4,3
63,1,object_03,object_07,601.79999995232,2,2,498.30000019073,1.0,2,object_09,1,1031,0,8,9,desert_2,1,memory-2step-stake-s,557,1370263,0.0-19.0-0.0-0.63,A1GC6CN3F0IHWN,3QGHA0EA1MGR4GKNSEWY8BJ80SRWBM,39O5D9O87X8G968ZMWMT3IAGEWV3CP,1,2
64,1,object_03,object_07,332.60000014305,1,1,283.60000014305,0.6666666666666666,1,object_02,1,1037,0,6,7,desert_8,1,memory-2step-stake-s,558,1378490,0.0-19.0-0.0-0.64,A1GC6CN3F0IHWN,3QGHA0EA1MGR4GKNSEWY8BJ80SRWBM,39O5D9O87X8G968ZMWMT3IAGEWV3CP,1,2
65,3,object_06,object_10,529.5,6,2,699.79999995232,1.0,2,object_09,1,1046,0,5,9,library_8,1,memory-2step-stake-s,559,1387444,0.0-19.0-0.0-0.65,A1GC6CN3F0IHWN,3QGHA0EA1MGR4GKNSEWY8BJ80SRWBM,39O5D9O87X8G968ZMWMT3IAGEWV3CP,5,6
66,4,object_08,object_01,648.70000004768,8,1,465.0,0.6666666666666666,2,object_09,5,1076,0,4,6,restaurant_7,1,memory-2step-stake-s,560,1395862,0.0-19.0-0.0-0.66,A1GC6CN3F0IHWN,3QGHA0EA1MGR4GKNSEWY8BJ80SRWBM,39O5D9O87X8G968ZMWMT3IAGEWV3CP,8,7
67,4,object_01,object_08,576.09999990463,8,2,644.19999980927,0.6666666666666666,2,object_09,5,1106,0,2,6,restaurant_3,1,memory-2step-stake-s,561,1404463,0.0-19.0-0.0-0.67,A1GC6CN3F0IHWN,3QGHA0EA1MGR4GKNSEWY8BJ80SRWBM,39O5D9O87X8G968ZMWMT3IAGEWV3CP,7,8
68,2,object_04,object_05,1337.8000001907,4,1,629.69999980927,1.0,2,object_09,1,1115,0,1,9,forest_1,1,memory-2step-stake-s,562,1413380,0.0-19.0-0.0-0.68,A1GC6CN3F0IHWN,3QGHA0EA1MGR4GKNSEWY8BJ80SRWBM,39O5D9O87X8G968ZMWMT3IAGEWV3CP,4,3
69,4,object_01,object_08,677.40000009537,8,2,609.39999985695,0.6666666666666666,2,object_09,5,1145,0,1,6,restaurant_3,1,memory-2step-stake-s,563,1421945,0.0-19.0-0.0-0.69,A1GC6CN3F0IHWN,3QGHA0EA1MGR4GKNSEWY8BJ80SRWBM,39O5D9O87X8G968ZMWMT3IAGEWV3CP,7,8
70,1,object_07,object_03,1021.4000000954,1,2,424.09999990463,0.1111111111111111,1,object_02,1,1146,0,1,8,desert_6,1,memory-2step-stake-s,564,1429778,0.0-19.0-0.0-0.70,A1GC6CN3F0IHWN,3QGHA0EA1MGR4GKNSEWY8BJ80SRWBM,39O5D9O87X8G968ZMWMT3IAGEWV3CP,2,1
71,2,object_05,object_04,1350.3999998569,4,2,356.70000004768,0.7777777777777778,2,object_09,1,1153,0,2,7,forest_7,1,memory-2step-stake-s,565,1438218,0.0-19.0-0.0-0.71,A1GC6CN3F0IHWN,3QGHA0EA1MGR4GKNSEWY8BJ80SRWBM,39O5D9O87X8G968ZMWMT3IAGEWV3CP,3,4
72,2,object_04,object_05,1007.7000000477,4,1,326.69999980927,0.7777777777777778,2,object_09,1,1160,0,1,7,forest_2,1,memory-2step-stake-s,566,1446657,0.0-19.0-0.0-0.72,A1GC6CN3F0IHWN,3QGHA0EA1MGR4GKNSEWY8BJ80SRWBM,39O5D9O87X8G968ZMWMT3IAGEWV3CP,4,3
73,3,object_06,object_10,1090.5,5,1,285.0,0.1111111111111111,1,object_02,5,1165,0,1,7,library_8,1,memory-2step-stake-s,567,1454364,0.0-19.0-0.0-0.73,A1GC6CN3F0IHWN,3QGHA0EA1MGR4GKNSEWY8BJ80SRWBM,39O5D9O87X8G968ZMWMT3IAGEWV3CP,5,6
74,3,object_10,object_06,485.70000004768,6,1,268.30000019073,0.8888888888888888,2,object_09,5,1205,0,0,8,library_3,1,memory-2step-stake-s,568,1462829,0.0-19.0-0.0-0.74,A1GC6CN3F0IHWN,3QGHA0EA1MGR4GKNSEWY8BJ80SRWBM,39O5D9O87X8G968ZMWMT3IAGEWV3CP,6,5
75,3,object_10,object_06,1364.4000000954,6,1,313.79999995232,0.8888888888888888,2,object_09,1,1213,0,3,8,library_3,1,memory-2step-stake-s,569,1471350,0.0-19.0-0.0-0.75,A1GC6CN3F0IHWN,3QGHA0EA1MGR4GKNSEWY8BJ80SRWBM,39O5D9O87X8G968ZMWMT3IAGEWV3CP,6,5
76,3,object_06,object_10,476.79999995232,6,2,389.40000009537,0.6666666666666666,2,object_09,5,1243,0,4,6,library_8,1,memory-2step-stake-s,570,1479714,0.0-19.0-0.0-0.76,A1GC6CN3F0IHWN,3QGHA0EA1MGR4GKNSEWY8BJ80SRWBM,39O5D9O87X8G968ZMWMT3IAGEWV3CP,5,6
77,2,object_05,object_04,1035.6999998093,4,2,293.70000004768,0.3333333333333333,2,object_09,1,1246,0,3,3,forest_6,1,memory-2step-stake-s,571,1487629,0.0-19.0-0.0-0.77,A1GC6CN3F0IHWN,3QGHA0EA1MGR4GKNSEWY8BJ80SRWBM,39O5D9O87X8G968ZMWMT3IAGEWV3CP,3,4
78,4,object_01,object_08,948.90000009537,7,1,317.20000004768,0.4444444444444444,1,object_02,5,1266,0,4,2,restaurant_7,1,memory-2step-stake-s,572,1495752,0.0-19.0-0.0-0.78,A1GC6CN3F0IHWN,3QGHA0EA1MGR4GKNSEWY8BJ80SRWBM,39O5D9O87X8G968ZMWMT3IAGEWV3CP,7,8
79,2,object_04,object_05,1101.2000000477,4,1,300.79999995232,0.3333333333333333,2,object_09,1,1269,0,3,3,forest_1,1,memory-2step-stake-s,573,1503667,0.0-19.0-0.0-0.79,A1GC6CN3F0IHWN,3QGHA0EA1MGR4GKNSEWY8BJ80SRWBM,39O5D9O87X8G968ZMWMT3IAGEWV3CP,4,3
80,4,object_08,object_01,705.29999995232,7,2,307.29999995232,0.6666666666666666,1,object_02,5,1299,0,6,3,restaurant_3,1,memory-2step-stake-s,574,1511897,0.0-19.0-0.0-0.80,A1GC6CN3F0IHWN,3QGHA0EA1MGR4GKNSEWY8BJ80SRWBM,39O5D9O87X8G968ZMWMT3IAGEWV3CP,8,7
81,3,object_10,object_06,770.90000009537,5,2,260.59999990463,0.3333333333333333,1,object_02,5,1314,0,3,5,library_8,1,memory-2step-stake-s,575,1519796,0.0-19.0-0.0-0.81,A1GC6CN3F0IHWN,3QGHA0EA1MGR4GKNSEWY8BJ80SRWBM,39O5D9O87X8G968ZMWMT3IAGEWV3CP,6,5
82,4,object_01,object_08,851.09999990463,8,2,273.90000009537,0.1111111111111111,2,object_09,5,1319,0,3,1,restaurant_3,1,memory-2step-stake-s,576,1527479,0.0-19.0-0.0-0.82,A1GC6CN3F0IHWN,3QGHA0EA1MGR4GKNSEWY8BJ80SRWBM,39O5D9O87X8G968ZMWMT3IAGEWV3CP,7,8
83,4,object_08,object_01,657.60000014305,7,2,410.20000004768,0.4444444444444444,1,object_02,5,1339,0,4,2,restaurant_3,1,memory-2step-stake-s,577,1535627,0.0-19.0-0.0-0.83,A1GC6CN3F0IHWN,3QGHA0EA1MGR4GKNSEWY8BJ80SRWBM,39O5D9O87X8G968ZMWMT3IAGEWV3CP,8,7
84,3,object_06,object_10,760.70000004768,5,1,325.29999995232,0.4444444444444444,1,object_02,5,1359,0,4,3,library_8,1,memory-2step-stake-s,578,1543740,0.0-19.0-0.0-0.84,A1GC6CN3F0IHWN,3QGHA0EA1MGR4GKNSEWY8BJ80SRWBM,39O5D9O87X8G968ZMWMT3IAGEWV3CP,5,6
85,2,object_04,object_05,952.59999990463,4,1,337.10000014305,0.1111111111111111,2,object_09,5,1364,0,6,1,forest_6,1,memory-2step-stake-s,579,1551482,0.0-19.0-0.0-0.85,A1GC6CN3F0IHWN,3QGHA0EA1MGR4GKNSEWY8BJ80SRWBM,39O5D9O87X8G968ZMWMT3IAGEWV3CP,4,3
86,3,object_10,object_06,989.5,5,2,334.79999995232,0.4444444444444444,1,object_02,5,1384,0,4,3,library_5,1,memory-2step-stake-s,580,1559586,0.0-19.0-0.0-0.86,A1GC6CN3F0IHWN,3QGHA0EA1MGR4GKNSEWY8BJ80SRWBM,39O5D9O87X8G968ZMWMT3IAGEWV3CP,6,5
87,4,object_01,object_08,702.0,7,1,492.29999995232,0.7777777777777778,1,object_02,1,1391,0,7,4,restaurant_1,1,memory-2step-stake-s,581,1568163,0.0-19.0-0.0-0.87,A1GC6CN3F0IHWN,3QGHA0EA1MGR4GKNSEWY8BJ80SRWBM,39O5D9O87X8G968ZMWMT3IAGEWV3CP,7,8
88,3,object_10,object_06,593.60000014305,5,2,621.70000004768,0.7777777777777778,1,object_02,5,1426,0,7,2,library_3,1,memory-2step-stake-s,582,1576881,0.0-19.0-0.0-0.88,A1GC6CN3F0IHWN,3QGHA0EA1MGR4GKNSEWY8BJ80SRWBM,39O5D9O87X8G968ZMWMT3IAGEWV3CP,6,5
89,4,object_01,object_08,579.29999995232,8,2,298.90000009537,0.2222222222222222,2,object_09,5,1436,0,8,2,restaurant_3,1,memory-2step-stake-s,583,1584694,0.0-19.0-0.0-0.89,A1GC6CN3F0IHWN,3QGHA0EA1MGR4GKNSEWY8BJ80SRWBM,39O5D9O87X8G968ZMWMT3IAGEWV3CP,7,8
90,4,object_08,object_01,1106.0999999046,8,1,401.70000004768,0.2222222222222222,2,object_09,5,1446,0,5,2,restaurant_3,1,memory-2step-stake-s,584,1592601,0.0-19.0-0.0-0.90,A1GC6CN3F0IHWN,3QGHA0EA1MGR4GKNSEWY8BJ80SRWBM,39O5D9O87X8G968ZMWMT3IAGEWV3CP,8,7
91,2,object_04,object_05,783.5,3,2,294.10000014305,0.6666666666666666,1,object_02,1,1452,0,6,1,forest_6,1,memory-2step-stake-s,585,1600889,0.0-19.0-0.0-0.91,A1GC6CN3F0IHWN,3QGHA0EA1MGR4GKNSEWY8BJ80SRWBM,39O5D9O87X8G968ZMWMT3IAGEWV3CP,4,3
92,2,object_05,object_04,899.09999990463,4,2,447.90000009537,0.0,2,object_09,1,1452,0,6,0,forest_2,1,memory-2step-stake-s,586,1608633,0.0-19.0-0.0-0.92,A1GC6CN3F0IHWN,3QGHA0EA1MGR4GKNSEWY8BJ80SRWBM,39O5D9O87X8G968ZMWMT3IAGEWV3CP,3,4
93,2,object_05,object_04,605.79999995232,3,1,560.79999995232,0.5555555555555556,1,object_02,5,1477,0,5,2,forest_7,1,memory-2step-stake-s,587,1617030,0.0-19.0-0.0-0.93,A1GC6CN3F0IHWN,3QGHA0EA1MGR4GKNSEWY8BJ80SRWBM,39O5D9O87X8G968ZMWMT3IAGEWV3CP,3,4
94,1,object_07,object_03,659.79999995232,1,2,292.60000014305,0.6666666666666666,1,object_02,5,1507,0,6,2,desert_6,1,memory-2step-stake-s,588,1625303,0.0-19.0-0.0-0.94,A1GC6CN3F0IHWN,3QGHA0EA1MGR4GKNSEWY8BJ80SRWBM,39O5D9O87X8G968ZMWMT3IAGEWV3CP,2,1
95,1,object_07,object_03,666.10000014305,1,2,236.0,0.3333333333333333,1,object_02,1,1510,0,3,1,desert_5,1,memory-2step-stake-s,589,1633172,0.0-19.0-0.0-0.95,A1GC6CN3F0IHWN,3QGHA0EA1MGR4GKNSEWY8BJ80SRWBM,39O5D9O87X8G968ZMWMT3IAGEWV3CP,2,1
96,4,object_08,object_01,696.0,7,2,578.0,0.6666666666666666,1,object_02,5,1540,0,6,3,restaurant_1,1,memory-2step-stake-s,590,1641748,0.0-19.0-0.0-0.96,A1GC6CN3F0IHWN,3QGHA0EA1MGR4GKNSEWY8BJ80SRWBM,39O5D9O87X8G968ZMWMT3IAGEWV3CP,8,7
97,2,object_05,object_04,389.60000014305,3,1,206.39999985695,0.4444444444444444,1,object_02,1,1544,0,4,1,forest_1,1,memory-2step-stake-s,591,1649695,0.0-19.0-0.0-0.97,A1GC6CN3F0IHWN,3QGHA0EA1MGR4GKNSEWY8BJ80SRWBM,39O5D9O87X8G968ZMWMT3IAGEWV3CP,3,4
98,3,object_10,object_06,1111.1000001431,5,2,356.09999990463,0.4444444444444444,1,object_02,5,1564,0,4,1,library_5,1,memory-2step-stake-s,592,1657798,0.0-19.0-0.0-0.98,A1GC6CN3F0IHWN,3QGHA0EA1MGR4GKNSEWY8BJ80SRWBM,39O5D9O87X8G968ZMWMT3IAGEWV3CP,6,5
99,2,object_05,object_04,911.60000014305,4,2,290.79999995232,0.0,2,object_09,1,1564,0,1,0,forest_2,1,memory-2step-stake-s,593,1665354,0.0-19.0-0.0-0.99,A1GC6CN3F0IHWN,3QGHA0EA1MGR4GKNSEWY8BJ80SRWBM,39O5D9O87X8G968ZMWMT3IAGEWV3CP,3,4
100,4,object_08,object_01,841.70000004768,7,2,342.10000014305,0.5555555555555556,1,object_02,1,1569,0,5,2,restaurant_7,1,memory-2step-stake-s,594,1673563,0.0-19.0-0.0-0.100,A1GC6CN3F0IHWN,3QGHA0EA1MGR4GKNSEWY8BJ80SRWBM,39O5D9O87X8G968ZMWMT3IAGEWV3CP,8,7
101,3,object_06,object_10,888.09999990463,5,1,451.40000009537,0.3333333333333333,1,object_02,5,1584,0,3,3,library_6,1,memory-2step-stake-s,595,1681633,0.0-19.0-0.0-0.101,A1GC6CN3F0IHWN,3QGHA0EA1MGR4GKNSEWY8BJ80SRWBM,39O5D9O87X8G968ZMWMT3IAGEWV3CP,5,6
102,3,object_10,object_06,726.59999990463,5,2,344.30000019073,0.4444444444444444,1,object_02,5,1604,0,4,3,library_8,1,memory-2step-stake-s,596,1689718,0.0-19.0-0.0-0.102,A1GC6CN3F0IHWN,3QGHA0EA1MGR4GKNSEWY8BJ80SRWBM,39O5D9O87X8G968ZMWMT3IAGEWV3CP,6,5
103,2,object_05,object_04,864.40000009537,4,2,263.5,0.4444444444444444,2,object_09,1,1608,0,3,4,forest_6,1,memory-2step-stake-s,597,1697733,0.0-19.0-0.0-0.103,A1GC6CN3F0IHWN,3QGHA0EA1MGR4GKNSEWY8BJ80SRWBM,39O5D9O87X8G968ZMWMT3IAGEWV3CP,3,4
104,1,object_07,object_03,789.70000004768,2,1,284.79999995232,0.7777777777777778,2,object_09,1,1615,0,4,7,desert_5,1,memory-2step-stake-s,598,1706085,0.0-19.0-0.0-0.104,A1GC6CN3F0IHWN,3QGHA0EA1MGR4GKNSEWY8BJ80SRWBM,39O5D9O87X8G968ZMWMT3IAGEWV3CP,2,1
105,1,object_03,object_07,677.60000014305,2,2,233.29999995232,0.8888888888888888,2,object_09,1,1623,0,4,8,desert_2,1,memory-2step-stake-s,599,1714490,0.0-19.0-0.0-0.105,A1GC6CN3F0IHWN,3QGHA0EA1MGR4GKNSEWY8BJ80SRWBM,39O5D9O87X8G968ZMWMT3IAGEWV3CP,1,2
106,2,object_05,object_04,876.0,4,2,334.5,0.8888888888888888,2,object_09,5,1663,0,4,8,forest_2,1,memory-2step-stake-s,600,1722982,0.0-19.0-0.0-0.106,A1GC6CN3F0IHWN,3QGHA0EA1MGR4GKNSEWY8BJ80SRWBM,39O5D9O87X8G968ZMWMT3IAGEWV3CP,3,4
107,1,object_07,object_03,662.70000004768,2,1,389.29999995232,0.5555555555555556,2,object_09,1,1668,0,4,5,desert_6,1,memory-2step-stake-s,601,1731249,0.0-19.0-0.0-0.107,A1GC6CN3F0IHWN,3QGHA0EA1MGR4GKNSEWY8BJ80SRWBM,39O5D9O87X8G968ZMWMT3IAGEWV3CP,2,1
108,1,object_07,object_03,726.5,2,1,445.0,0.6666666666666666,2,object_09,1,1674,0,6,6,desert_8,1,memory-2step-stake-s,602,1739702,0.0-19.0-0.0-0.108,A1GC6CN3F0IHWN,3QGHA0EA1MGR4GKNSEWY8BJ80SRWBM,39O5D9O87X8G968ZMWMT3IAGEWV3CP,2,1
109,2,object_04,object_05,816.40000009537,4,1,-1.0,0.0,2,object_09,5,1674,0,6,7,forest_2,1,memory-2step-stake-s,603,1748291,0.0-19.0-0.0-0.109,A1GC6CN3F0IHWN,3QGHA0EA1MGR4GKNSEWY8BJ80SRWBM,39O5D9O87X8G968ZMWMT3IAGEWV3CP,4,3
110,2,object_05,object_04,328.59999990463,4,2,303.20000004768,0.7777777777777778,2,object_09,1,1681,0,3,7,forest_7,1,memory-2step-stake-s,604,1756668,0.0-19.0-0.0-0.110,A1GC6CN3F0IHWN,3QGHA0EA1MGR4GKNSEWY8BJ80SRWBM,39O5D9O87X8G968ZMWMT3IAGEWV3CP,3,4
111,4,object_01,object_08,726.5,7,1,471.5,0.7777777777777778,1,object_02,5,1716,0,7,9,restaurant_8,1,memory-2step-stake-s,605,1765197,0.0-19.0-0.0-0.111,A1GC6CN3F0IHWN,3QGHA0EA1MGR4GKNSEWY8BJ80SRWBM,39O5D9O87X8G968ZMWMT3IAGEWV3CP,7,8
112,4,object_01,object_08,949.39999985695,8,2,353.29999995232,1.0,2,object_09,5,1761,0,8,9,restaurant_3,1,memory-2step-stake-s,606,1773785,0.0-19.0-0.0-0.112,A1GC6CN3F0IHWN,3QGHA0EA1MGR4GKNSEWY8BJ80SRWBM,39O5D9O87X8G968ZMWMT3IAGEWV3CP,7,8
113,3,object_10,object_06,704.5,5,2,262.10000014305,0.8888888888888888,1,object_02,5,1801,0,8,8,library_6,1,memory-2step-stake-s,607,1782212,0.0-19.0-0.0-0.113,A1GC6CN3F0IHWN,3QGHA0EA1MGR4GKNSEWY8BJ80SRWBM,39O5D9O87X8G968ZMWMT3IAGEWV3CP,6,5
114,2,object_04,object_05,935.59999990463,4,1,220.09999990463,0.6666666666666666,2,object_09,1,1807,0,9,6,forest_7,1,memory-2step-stake-s,608,1790318,0.0-19.0-0.0-0.114,A1GC6CN3F0IHWN,3QGHA0EA1MGR4GKNSEWY8BJ80SRWBM,39O5D9O87X8G968ZMWMT3IAGEWV3CP,4,3
115,2,object_04,object_05,1153.5,4,1,287.70000004768,0.6666666666666666,2,object_09,5,1837,0,7,6,forest_6,1,memory-2step-stake-s,609,1798550,0.0-19.0-0.0-0.115,A1GC6CN3F0IHWN,3QGHA0EA1MGR4GKNSEWY8BJ80SRWBM,39O5D9O87X8G968ZMWMT3IAGEWV3CP,4,3
116,2,object_04,object_05,560.29999995232,3,2,303.20000004768,0.6666666666666666,1,object_02,1,1843,0,6,8,forest_2,1,memory-2step-stake-s,610,1806782,0.0-19.0-0.0-0.116,A1GC6CN3F0IHWN,3QGHA0EA1MGR4GKNSEWY8BJ80SRWBM,39O5D9O87X8G968ZMWMT3IAGEWV3CP,4,3
117,1,object_07,object_03,260.09999990463,2,1,333.79999995232,0.8888888888888888,2,object_09,1,1851,0,3,8,desert_8,1,memory-2step-stake-s,611,1815304,0.0-19.0-0.0-0.117,A1GC6CN3F0IHWN,3QGHA0EA1MGR4GKNSEWY8BJ80SRWBM,39O5D9O87X8G968ZMWMT3IAGEWV3CP,2,1
118,1,object_07,object_03,631.39999985695,2,1,264.89999985695,0.8888888888888888,2,object_09,1,1859,0,4,8,desert_5,1,memory-2step-stake-s,612,1823696,0.0-19.0-0.0-0.118,A1GC6CN3F0IHWN,3QGHA0EA1MGR4GKNSEWY8BJ80SRWBM,39O5D9O87X8G968ZMWMT3IAGEWV3CP,2,1
119,2,object_05,object_04,754.70000004768,4,2,254.70000004768,0.8888888888888888,2,object_09,1,1867,0,1,8,forest_7,1,memory-2step-stake-s,613,1832100,0.0-19.0-0.0-0.119,A1GC6CN3F0IHWN,3QGHA0EA1MGR4GKNSEWY8BJ80SRWBM,39O5D9O87X8G968ZMWMT3IAGEWV3CP,3,4
120,4,object_01,object_08,849.0,7,1,249.5,0.2222222222222222,1,object_02,5,1877,0,2,8,restaurant_8,1,memory-2step-stake-s,614,1839866,0.0-19.0-0.0-0.120,A1GC6CN3F0IHWN,3QGHA0EA1MGR4GKNSEWY8BJ80SRWBM,39O5D9O87X8G968ZMWMT3IAGEWV3CP,7,8
121,2,object_05,object_04,1071.0999999046,4,2,323.29999995232,0.8888888888888888,2,object_09,1,1885,0,2,8,forest_2,1,memory-2step-stake-s,615,1848367,0.0-19.0-0.0-0.121,A1GC6CN3F0IHWN,3QGHA0EA1MGR4GKNSEWY8BJ80SRWBM,39O5D9O87X8G968ZMWMT3IAGEWV3CP,3,4
122,2,object_05,object_04,712.09999990463,4,2,755.29999995232,0.8888888888888888,2,object_09,5,1925,0,0,8,forest_6,1,memory-2step-stake-s,616,1857303,0.0-19.0-0.0-0.122,A1GC6CN3F0IHWN,3QGHA0EA1MGR4GKNSEWY8BJ80SRWBM,39O5D9O87X8G968ZMWMT3IAGEWV3CP,3,4
123,4,object_01,object_08,1023.8999998569,7,1,258.0,0.1111111111111111,1,object_02,1,1926,0,1,7,restaurant_7,1,memory-2step-stake-s,617,1864981,0.0-19.0-0.0-0.123,A1GC6CN3F0IHWN,3QGHA0EA1MGR4GKNSEWY8BJ80SRWBM,39O5D9O87X8G968ZMWMT3IAGEWV3CP,7,8
124,4,object_08,object_01,693.29999995232,7,2,354.29999995232,0.2222222222222222,1,object_02,5,1936,0,2,8,restaurant_7,1,memory-2step-stake-s,618,1872853,0.0-19.0-0.0-0.124,A1GC6CN3F0IHWN,3QGHA0EA1MGR4GKNSEWY8BJ80SRWBM,39O5D9O87X8G968ZMWMT3IAGEWV3CP,8,7
125,3,object_06,object_10,1002.8999998569,6,2,376.30000019073,0.7777777777777778,2,object_09,1,1943,0,2,7,library_6,1,memory-2step-stake-s,619,1881285,0.0-19.0-0.0-0.125,A1GC6CN3F0IHWN,3QGHA0EA1MGR4GKNSEWY8BJ80SRWBM,39O5D9O87X8G968ZMWMT3IAGEWV3CP,5,6
126,1,object_07,object_03,-1.0,-1,-1,-1.0,0.0,-,0,1,1943,0,2,7,desert_8,1,memory-2step-stake-s,620,1887850,0.0-19.0-0.0-0.126,A1GC6CN3F0IHWN,3QGHA0EA1MGR4GKNSEWY8BJ80SRWBM,39O5D9O87X8G968ZMWMT3IAGEWV3CP,2,1
127,1,object_07,object_03,583.90000009537,2,1,256.20000004768,1.0,2,object_09,1,1952,0,0,9,desert_2,1,memory-2step-stake-s,621,1896384,0.0-19.0-0.0-0.127,A1GC6CN3F0IHWN,3QGHA0EA1MGR4GKNSEWY8BJ80SRWBM,39O5D9O87X8G968ZMWMT3IAGEWV3CP,2,1
128,3,object_10,object_06,422.30000019073,6,1,237.40000009537,1.0,2,object_09,5,1997,0,2,9,library_8,1,memory-2step-stake-s,623,1912173,0.0-19.0-0.1-0.128,A1GC6CN3F0IHWN,3QGHA0EA1MGR4GKNSEWY8BJ80SRWBM,39O5D9O87X8G968ZMWMT3IAGEWV3CP,6,5
129,1,object_03,object_07,274.79999995232,2,2,278.0,0.8888888888888888,2,object_09,1,2005,0,5,8,desert_6,1,memory-2step-stake-s,624,1920570,0.0-19.0-0.1-0.129,A1GC6CN3F0IHWN,3QGHA0EA1MGR4GKNSEWY8BJ80SRWBM,39O5D9O87X8G968ZMWMT3IAGEWV3CP,1,2
130,4,object_08,object_01,288.0,8,1,389.5,0.8888888888888888,2,object_09,1,2013,0,6,8,restaurant_3,1,memory-2step-stake-s,625,1929121,0.0-19.0-0.1-0.130,A1GC6CN3F0IHWN,3QGHA0EA1MGR4GKNSEWY8BJ80SRWBM,39O5D9O87X8G968ZMWMT3IAGEWV3CP,8,7
131,1,object_07,object_03,307.09999990463,1,2,431.5,0.4444444444444444,1,object_02,1,2017,0,4,6,desert_2,1,memory-2step-stake-s,626,1937254,0.0-19.0-0.1-0.131,A1GC6CN3F0IHWN,3QGHA0EA1MGR4GKNSEWY8BJ80SRWBM,39O5D9O87X8G968ZMWMT3IAGEWV3CP,2,1
132,2,object_05,object_04,426.89999985695,3,1,403.20000004768,0.5555555555555556,1,object_02,5,2042,0,5,7,forest_7,1,memory-2step-stake-s,627,1945539,0.0-19.0-0.1-0.132,A1GC6CN3F0IHWN,3QGHA0EA1MGR4GKNSEWY8BJ80SRWBM,39O5D9O87X8G968ZMWMT3IAGEWV3CP,3,4
133,4,object_08,object_01,771.29999995232,8,1,422.90000009537,0.7777777777777778,2,object_09,1,2049,0,8,7,restaurant_1,1,memory-2step-stake-s,628,1954062,0.0-19.0-0.1-0.133,A1GC6CN3F0IHWN,3QGHA0EA1MGR4GKNSEWY8BJ80SRWBM,39O5D9O87X8G968ZMWMT3IAGEWV3CP,8,7
134,2,object_05,object_04,387.09999990463,4,2,380.90000009537,0.8888888888888888,2,object_09,1,2057,0,4,8,forest_2,1,memory-2step-stake-s,629,1962692,0.0-19.0-0.1-0.134,A1GC6CN3F0IHWN,3QGHA0EA1MGR4GKNSEWY8BJ80SRWBM,39O5D9O87X8G968ZMWMT3IAGEWV3CP,3,4
135,1,object_07,object_03,575.70000004768,1,2,475.60000014305,0.6666666666666666,1,object_02,5,2087,0,6,9,desert_8,1,memory-2step-stake-s,630,1971155,0.0-19.0-0.1-0.135,A1GC6CN3F0IHWN,3QGHA0EA1MGR4GKNSEWY8BJ80SRWBM,39O5D9O87X8G968ZMWMT3IAGEWV3CP,2,1
136,1,object_07,object_03,627.59999990463,2,1,537.70000004768,0.6666666666666666,2,object_09,1,2093,0,5,6,desert_6,1,memory-2step-stake-s,631,1979642,0.0-19.0-0.1-0.136,A1GC6CN3F0IHWN,3QGHA0EA1MGR4GKNSEWY8BJ80SRWBM,39O5D9O87X8G968ZMWMT3IAGEWV3CP,2,1
137,4,object_08,object_01,1092.2000000477,7,2,888.59999990463,0.5555555555555556,1,object_02,5,2118,0,5,5,restaurant_8,1,memory-2step-stake-s,632,1988404,0.0-19.0-0.1-0.137,A1GC6CN3F0IHWN,3QGHA0EA1MGR4GKNSEWY8BJ80SRWBM,39O5D9O87X8G968ZMWMT3IAGEWV3CP,8,7
138,4,object_08,object_01,564.39999985695,7,2,432.90000009537,0.3333333333333333,1,object_02,1,2121,0,3,7,restaurant_3,1,memory-2step-stake-s,633,1996464,0.0-19.0-0.1-0.138,A1GC6CN3F0IHWN,3QGHA0EA1MGR4GKNSEWY8BJ80SRWBM,39O5D9O87X8G968ZMWMT3IAGEWV3CP,8,7
139,4,object_01,object_08,584.90000009537,8,2,276.09999990463,0.4444444444444444,2,object_09,5,2141,0,6,4,restaurant_3,1,memory-2step-stake-s,634,2004487,0.0-19.0-0.1-0.139,A1GC6CN3F0IHWN,3QGHA0EA1MGR4GKNSEWY8BJ80SRWBM,39O5D9O87X8G968ZMWMT3IAGEWV3CP,7,8
140,1,object_03,object_07,1212.7000000477,2,2,414.70000004768,1.0,2,object_09,1,2150,0,5,9,desert_6,1,memory-2step-stake-s,635,2013228,0.0-19.0-0.1-0.140,A1GC6CN3F0IHWN,3QGHA0EA1MGR4GKNSEWY8BJ80SRWBM,39O5D9O87X8G968ZMWMT3IAGEWV3CP,1,2
141,3,object_10,object_06,327.59999990463,5,2,581.89999985695,0.7777777777777778,1,object_02,5,2185,0,7,5,library_3,1,memory-2step-stake-s,636,2021886,0.0-19.0-0.1-0.141,A1GC6CN3F0IHWN,3QGHA0EA1MGR4GKNSEWY8BJ80SRWBM,39O5D9O87X8G968ZMWMT3IAGEWV3CP,6,5
142,4,object_01,object_08,389.0,8,2,534.29999995232,0.8888888888888888,2,object_09,1,2193,0,8,8,restaurant_8,1,memory-2step-stake-s,637,2030617,0.0-19.0-0.1-0.142,A1GC6CN3F0IHWN,3QGHA0EA1MGR4GKNSEWY8BJ80SRWBM,39O5D9O87X8G968ZMWMT3IAGEWV3CP,7,8
143,2,object_05,object_04,352.69999980927,4,2,351.60000014305,0.8888888888888888,2,object_09,5,2233,0,6,8,forest_2,1,memory-2step-stake-s,638,2039121,0.0-19.0-0.1-0.143,A1GC6CN3F0IHWN,3QGHA0EA1MGR4GKNSEWY8BJ80SRWBM,39O5D9O87X8G968ZMWMT3IAGEWV3CP,3,4
144,4,object_08,object_01,297.89999985695,7,2,352.5,0.8888888888888888,1,object_02,5,2273,0,8,2,restaurant_1,1,memory-2step-stake-s,639,2047638,0.0-19.0-0.1-0.144,A1GC6CN3F0IHWN,3QGHA0EA1MGR4GKNSEWY8BJ80SRWBM,39O5D9O87X8G968ZMWMT3IAGEWV3CP,8,7
145,1,object_03,object_07,324.19999980927,2,2,395.70000004768,0.4444444444444444,2,object_09,5,2293,0,6,4,desert_5,1,memory-2step-stake-s,640,2055770,0.0-19.0-0.1-0.145,A1GC6CN3F0IHWN,3QGHA0EA1MGR4GKNSEWY8BJ80SRWBM,39O5D9O87X8G968ZMWMT3IAGEWV3CP,1,2
146,4,object_08,object_01,302.0,8,1,286.29999995232,0.2222222222222222,2,object_09,5,2303,0,3,2,restaurant_1,1,memory-2step-stake-s,641,2063604,0.0-19.0-0.1-0.146,A1GC6CN3F0IHWN,3QGHA0EA1MGR4GKNSEWY8BJ80SRWBM,39O5D9O87X8G968ZMWMT3IAGEWV3CP,8,7
147,3,object_06,object_10,365.39999985695,6,2,318.79999995232,0.1111111111111111,2,object_09,5,2308,0,5,1,library_8,1,memory-2step-stake-s,642,2071322,0.0-19.0-0.1-0.147,A1GC6CN3F0IHWN,3QGHA0EA1MGR4GKNSEWY8BJ80SRWBM,39O5D9O87X8G968ZMWMT3IAGEWV3CP,5,6
148,4,object_08,object_01,645.09999990463,7,2,293.79999995232,1.0,1,object_02,5,2353,0,9,2,restaurant_7,1,memory-2step-stake-s,643,2079954,0.0-19.0-0.1-0.148,A1GC6CN3F0IHWN,3QGHA0EA1MGR4GKNSEWY8BJ80SRWBM,39O5D9O87X8G968ZMWMT3IAGEWV3CP,8,7
149,2,object_04,object_05,967.70000004768,4,1,926.90000009537,0.0,2,object_09,5,2353,0,9,0,forest_1,1,memory-2step-stake-s,644,2088204,0.0-19.0-0.1-0.149,A1GC6CN3F0IHWN,3QGHA0EA1MGR4GKNSEWY8BJ80SRWBM,39O5D9O87X8G968ZMWMT3IAGEWV3CP,4,3
150,4,object_01,object_08,948.70000004768,7,1,344.70000004768,0.6666666666666666,1,object_02,5,2383,0,6,1,restaurant_7,1,memory-2step-stake-s,645,2096541,0.0-19.0-0.1-0.150,A1GC6CN3F0IHWN,3QGHA0EA1MGR4GKNSEWY8BJ80SRWBM,39O5D9O87X8G968ZMWMT3IAGEWV3CP,7,8
151,1,object_07,object_03,740.20000004768,2,1,283.09999990463,0.0,2,object_09,1,2383,0,8,0,desert_8,1,memory-2step-stake-s,646,2104097,0.0-19.0-0.1-0.151,A1GC6CN3F0IHWN,3QGHA0EA1MGR4GKNSEWY8BJ80SRWBM,39O5D9O87X8G968ZMWMT3IAGEWV3CP,2,1
152,3,object_10,object_06,807.39999985695,5,2,321.70000004768,0.8888888888888888,1,object_02,5,2423,0,8,0,library_8,1,memory-2step-stake-s,647,2112615,0.0-19.0-0.1-0.152,A1GC6CN3F0IHWN,3QGHA0EA1MGR4GKNSEWY8BJ80SRWBM,39O5D9O87X8G968ZMWMT3IAGEWV3CP,6,5
153,1,object_03,object_07,755.0,1,1,373.29999995232,1.0,1,object_02,1,2432,0,9,0,desert_8,1,memory-2step-stake-s,648,2121273,0.0-19.0-0.1-0.153,A1GC6CN3F0IHWN,3QGHA0EA1MGR4GKNSEWY8BJ80SRWBM,39O5D9O87X8G968ZMWMT3IAGEWV3CP,1,2
154,1,object_07,object_03,727.30000019073,1,2,439.0,0.6666666666666666,1,object_02,1,2438,0,6,4,desert_6,1,memory-2step-stake-s,649,2129706,0.0-19.0-0.1-0.154,A1GC6CN3F0IHWN,3QGHA0EA1MGR4GKNSEWY8BJ80SRWBM,39O5D9O87X8G968ZMWMT3IAGEWV3CP,2,1
155,3,object_06,object_10,1297.7999999523,5,1,601.29999995232,0.6666666666666666,1,object_02,5,2468,0,6,5,library_5,1,memory-2step-stake-s,650,2138271,0.0-19.0-0.1-0.155,A1GC6CN3F0IHWN,3QGHA0EA1MGR4GKNSEWY8BJ80SRWBM,39O5D9O87X8G968ZMWMT3IAGEWV3CP,5,6
156,2,object_05,object_04,750.79999995232,4,2,302.30000019073,0.7777777777777778,2,object_09,5,2503,0,7,7,forest_6,1,memory-2step-stake-s,651,2146656,0.0-19.0-0.1-0.156,A1GC6CN3F0IHWN,3QGHA0EA1MGR4GKNSEWY8BJ80SRWBM,39O5D9O87X8G968ZMWMT3IAGEWV3CP,3,4
157,3,object_10,object_06,634.70000004768,5,2,313.89999985695,0.8888888888888888,1,object_02,5,2543,0,8,7,library_3,1,memory-2step-stake-s,652,2155166,0.0-19.0-0.1-0.157,A1GC6CN3F0IHWN,3QGHA0EA1MGR4GKNSEWY8BJ80SRWBM,39O5D9O87X8G968ZMWMT3IAGEWV3CP,6,5
158,4,object_08,object_01,667.90000009537,7,2,323.60000014305,0.6666666666666666,1,object_02,5,2573,0,6,7,restaurant_7,1,memory-2step-stake-s,653,2163439,0.0-19.0-0.1-0.158,A1GC6CN3F0IHWN,3QGHA0EA1MGR4GKNSEWY8BJ80SRWBM,39O5D9O87X8G968ZMWMT3IAGEWV3CP,8,7
159,3,object_06,object_10,414.20000004768,5,1,225.09999990463,1.0,1,object_02,5,2618,0,9,6,library_8,1,memory-2step-stake-s,654,2171952,0.0-19.0-0.1-0.159,A1GC6CN3F0IHWN,3QGHA0EA1MGR4GKNSEWY8BJ80SRWBM,39O5D9O87X8G968ZMWMT3IAGEWV3CP,5,6
160,1,object_03,object_07,286.0,2,2,270.79999995232,0.8888888888888888,2,object_09,1,2626,0,8,8,desert_5,1,memory-2step-stake-s,655,2180373,0.0-19.0-0.1-0.160,A1GC6CN3F0IHWN,3QGHA0EA1MGR4GKNSEWY8BJ80SRWBM,39O5D9O87X8G968ZMWMT3IAGEWV3CP,1,2
161,1,object_03,object_07,364.80000019073,1,1,249.90000009537,0.8888888888888888,1,object_02,5,2666,0,8,9,desert_8,1,memory-2step-stake-s,656,2188806,0.0-19.0-0.1-0.161,A1GC6CN3F0IHWN,3QGHA0EA1MGR4GKNSEWY8BJ80SRWBM,39O5D9O87X8G968ZMWMT3IAGEWV3CP,1,2
162,3,object_10,object_06,562.30000019073,5,2,491.09999990463,0.8888888888888888,1,object_02,5,2706,0,8,6,library_3,1,memory-2step-stake-s,657,2197456,0.0-19.0-0.1-0.162,A1GC6CN3F0IHWN,3QGHA0EA1MGR4GKNSEWY8BJ80SRWBM,39O5D9O87X8G968ZMWMT3IAGEWV3CP,6,5
163,4,object_08,object_01,638.0,7,2,446.09999990463,0.8888888888888888,1,object_02,5,2746,0,8,4,restaurant_8,1,memory-2step-stake-s,658,2206090,0.0-19.0-0.1-0.163,A1GC6CN3F0IHWN,3QGHA0EA1MGR4GKNSEWY8BJ80SRWBM,39O5D9O87X8G968ZMWMT3IAGEWV3CP,8,7
164,2,object_05,object_04,697.40000009537,4,2,271.0,0.7777777777777778,2,object_09,1,2753,0,8,7,forest_1,1,memory-2step-stake-s,659,2214458,0.0-19.0-0.1-0.164,A1GC6CN3F0IHWN,3QGHA0EA1MGR4GKNSEWY8BJ80SRWBM,39O5D9O87X8G968ZMWMT3IAGEWV3CP,3,4
165,1,object_07,object_03,896.0,2,1,277.0,0.7777777777777778,2,object_09,1,2760,0,6,7,desert_6,1,memory-2step-stake-s,660,2222859,0.0-19.0-0.1-0.165,A1GC6CN3F0IHWN,3QGHA0EA1MGR4GKNSEWY8BJ80SRWBM,39O5D9O87X8G968ZMWMT3IAGEWV3CP,2,1
166,3,object_10,object_06,-1.0,-1,-1,-1.0,0.0,-,0,5,2760,0,7,7,library_3,1,memory-2step-stake-s,661,2229410,0.0-19.0-0.1-0.166,A1GC6CN3F0IHWN,3QGHA0EA1MGR4GKNSEWY8BJ80SRWBM,39O5D9O87X8G968ZMWMT3IAGEWV3CP,6,5
167,4,object_01,object_08,544.40000009537,8,2,258.0,0.8888888888888888,2,object_09,5,2800,0,5,8,restaurant_7,1,memory-2step-stake-s,662,2237873,0.0-19.0-0.1-0.167,A1GC6CN3F0IHWN,3QGHA0EA1MGR4GKNSEWY8BJ80SRWBM,39O5D9O87X8G968ZMWMT3IAGEWV3CP,7,8
168,3,object_10,object_06,381.19999980927,5,2,371.09999990463,0.3333333333333333,1,object_02,5,2815,0,3,6,library_5,1,memory-2step-stake-s,663,2245885,0.0-19.0-0.1-0.168,A1GC6CN3F0IHWN,3QGHA0EA1MGR4GKNSEWY8BJ80SRWBM,39O5D9O87X8G968ZMWMT3IAGEWV3CP,6,5
169,2,object_04,object_05,916.20000004768,3,2,348.30000019073,0.2222222222222222,1,object_02,5,2825,0,2,8,forest_1,1,memory-2step-stake-s,664,2253759,0.0-19.0-0.1-0.169,A1GC6CN3F0IHWN,3QGHA0EA1MGR4GKNSEWY8BJ80SRWBM,39O5D9O87X8G968ZMWMT3IAGEWV3CP,4,3
170,3,object_10,object_06,1238.1000001431,6,1,309.89999985695,0.6666666666666666,2,object_09,5,2855,0,4,6,library_8,1,memory-2step-stake-s,665,2262053,0.0-19.0-0.1-0.170,A1GC6CN3F0IHWN,3QGHA0EA1MGR4GKNSEWY8BJ80SRWBM,39O5D9O87X8G968ZMWMT3IAGEWV3CP,6,5
171,1,object_03,object_07,681.09999990463,2,2,243.0,0.7777777777777778,2,object_09,1,2862,0,7,7,desert_2,1,memory-2step-stake-s,666,2270426,0.0-19.0-0.1-0.171,A1GC6CN3F0IHWN,3QGHA0EA1MGR4GKNSEWY8BJ80SRWBM,39O5D9O87X8G968ZMWMT3IAGEWV3CP,1,2
172,4,object_01,object_08,695.0,7,1,621.29999995232,0.8888888888888888,1,object_02,5,2902,0,8,6,restaurant_3,1,memory-2step-stake-s,667,2279226,0.0-19.0-0.1-0.172,A1GC6CN3F0IHWN,3QGHA0EA1MGR4GKNSEWY8BJ80SRWBM,39O5D9O87X8G968ZMWMT3IAGEWV3CP,7,8
173,1,object_07,object_03,271.29999995232,1,2,255.0,0.7777777777777778,1,object_02,1,2909,0,7,6,desert_2,1,memory-2step-stake-s,668,2287558,0.0-19.0-0.1-0.173,A1GC6CN3F0IHWN,3QGHA0EA1MGR4GKNSEWY8BJ80SRWBM,39O5D9O87X8G968ZMWMT3IAGEWV3CP,2,1
174,2,object_05,object_04,362.20000004768,3,1,294.79999995232,0.5555555555555556,1,object_02,5,2934,0,5,3,forest_2,1,memory-2step-stake-s,669,2295713,0.0-19.0-0.1-0.174,A1GC6CN3F0IHWN,3QGHA0EA1MGR4GKNSEWY8BJ80SRWBM,39O5D9O87X8G968ZMWMT3IAGEWV3CP,3,4
175,2,object_05,object_04,777.0,4,2,289.70000004768,0.3333333333333333,2,object_09,1,2937,0,4,3,forest_6,1,memory-2step-stake-s,670,2303608,0.0-19.0-0.1-0.175,A1GC6CN3F0IHWN,3QGHA0EA1MGR4GKNSEWY8BJ80SRWBM,39O5D9O87X8G968ZMWMT3IAGEWV3CP,3,4
176,1,object_07,object_03,758.70000004768,1,2,274.20000004768,0.1111111111111111,1,object_02,1,2938,0,1,7,desert_6,1,memory-2step-stake-s,671,2311291,0.0-19.0-0.1-0.176,A1GC6CN3F0IHWN,3QGHA0EA1MGR4GKNSEWY8BJ80SRWBM,39O5D9O87X8G968ZMWMT3IAGEWV3CP,2,1
177,2,object_05,object_04,388.59999990463,4,2,357.29999995232,1.0,2,object_09,5,2983,0,1,9,forest_2,1,memory-2step-stake-s,672,2319958,0.0-19.0-0.1-0.177,A1GC6CN3F0IHWN,3QGHA0EA1MGR4GKNSEWY8BJ80SRWBM,39O5D9O87X8G968ZMWMT3IAGEWV3CP,3,4
178,3,object_10,object_06,922.20000004768,5,2,292.80000019073,0.2222222222222222,1,object_02,5,2993,0,2,6,library_3,1,memory-2step-stake-s,673,2327757,0.0-19.0-0.1-0.178,A1GC6CN3F0IHWN,3QGHA0EA1MGR4GKNSEWY8BJ80SRWBM,39O5D9O87X8G968ZMWMT3IAGEWV3CP,6,5
179,2,object_04,object_05,1067.3000001907,4,1,388.70000004768,0.6666666666666666,2,object_09,5,3023,0,0,6,forest_1,1,memory-2step-stake-s,674,2336108,0.0-19.0-0.1-0.179,A1GC6CN3F0IHWN,3QGHA0EA1MGR4GKNSEWY8BJ80SRWBM,39O5D9O87X8G968ZMWMT3IAGEWV3CP,4,3
180,1,object_03,object_07,842.39999985695,2,2,286.10000014305,0.3333333333333333,2,object_09,1,3026,0,1,3,desert_8,1,memory-2step-stake-s,675,2344002,0.0-19.0-0.1-0.180,A1GC6CN3F0IHWN,3QGHA0EA1MGR4GKNSEWY8BJ80SRWBM,39O5D9O87X8G968ZMWMT3IAGEWV3CP,1,2
181,3,object_06,object_10,871.70000004768,6,2,328.70000004768,0.4444444444444444,2,object_09,5,3046,0,0,4,library_6,1,memory-2step-stake-s,676,2352078,0.0-19.0-0.1-0.181,A1GC6CN3F0IHWN,3QGHA0EA1MGR4GKNSEWY8BJ80SRWBM,39O5D9O87X8G968ZMWMT3IAGEWV3CP,5,6
182,1,object_03,object_07,403.5,2,2,483.0,0.2222222222222222,2,object_09,1,3048,0,2,2,desert_8,1,memory-2step-stake-s,677,2360077,0.0-19.0-0.1-0.182,A1GC6CN3F0IHWN,3QGHA0EA1MGR4GKNSEWY8BJ80SRWBM,39O5D9O87X8G968ZMWMT3IAGEWV3CP,1,2
183,2,object_05,object_04,360.5,4,2,363.5,0.5555555555555556,2,object_09,5,3073,0,0,5,forest_6,1,memory-2step-stake-s,678,2368286,0.0-19.0-0.1-0.183,A1GC6CN3F0IHWN,3QGHA0EA1MGR4GKNSEWY8BJ80SRWBM,39O5D9O87X8G968ZMWMT3IAGEWV3CP,3,4
184,1,object_07,object_03,304.20000004768,2,1,243.80000019073,0.1111111111111111,2,object_09,1,3074,0,1,1,desert_5,1,memory-2step-stake-s,679,2375925,0.0-19.0-0.1-0.184,A1GC6CN3F0IHWN,3QGHA0EA1MGR4GKNSEWY8BJ80SRWBM,39O5D9O87X8G968ZMWMT3IAGEWV3CP,2,1
185,1,object_07,object_03,443.40000009537,2,1,273.0,0.2222222222222222,2,object_09,1,3076,0,2,2,desert_5,1,memory-2step-stake-s,680,2383724,0.0-19.0-0.1-0.185,A1GC6CN3F0IHWN,3QGHA0EA1MGR4GKNSEWY8BJ80SRWBM,39O5D9O87X8G968ZMWMT3IAGEWV3CP,2,1
186,2,object_04,object_05,906.60000014305,4,1,277.19999980927,0.1111111111111111,2,object_09,1,3077,0,3,1,forest_2,1,memory-2step-stake-s,681,2391362,0.0-19.0-0.1-0.186,A1GC6CN3F0IHWN,3QGHA0EA1MGR4GKNSEWY8BJ80SRWBM,39O5D9O87X8G968ZMWMT3IAGEWV3CP,4,3
187,3,object_10,object_06,998.60000014305,6,1,297.09999990463,0.0,2,object_09,1,3077,0,3,0,library_3,1,memory-2step-stake-s,682,2398943,0.0-19.0-0.1-0.187,A1GC6CN3F0IHWN,3QGHA0EA1MGR4GKNSEWY8BJ80SRWBM,39O5D9O87X8G968ZMWMT3IAGEWV3CP,6,5
188,2,object_04,object_05,1393.6000001431,3,2,347.89999985695,0.4444444444444444,1,object_02,5,3097,0,4,2,forest_1,1,memory-2step-stake-s,683,2407010,0.0-19.0-0.1-0.188,A1GC6CN3F0IHWN,3QGHA0EA1MGR4GKNSEWY8BJ80SRWBM,39O5D9O87X8G968ZMWMT3IAGEWV3CP,4,3
189,1,object_03,object_07,1131.7999999523,1,1,425.0,0.7777777777777778,1,object_02,5,3132,0,7,1,desert_5,1,memory-2step-stake-s,684,2415526,0.0-19.0-0.1-0.189,A1GC6CN3F0IHWN,3QGHA0EA1MGR4GKNSEWY8BJ80SRWBM,39O5D9O87X8G968ZMWMT3IAGEWV3CP,1,2
190,4,object_08,object_01,903.70000004768,7,2,341.0,0.7777777777777778,1,object_02,5,3167,0,7,0,restaurant_1,1,memory-2step-stake-s,685,2423944,0.0-19.0-0.1-0.190,A1GC6CN3F0IHWN,3QGHA0EA1MGR4GKNSEWY8BJ80SRWBM,39O5D9O87X8G968ZMWMT3IAGEWV3CP,8,7
191,3,object_06,object_10,303.10000014305,5,1,264.40000009537,1.0,1,object_02,5,3212,0,9,2,library_6,1,memory-2step-stake-s,686,2432461,0.0-19.0-0.1-0.191,A1GC6CN3F0IHWN,3QGHA0EA1MGR4GKNSEWY8BJ80SRWBM,39O5D9O87X8G968ZMWMT3IAGEWV3CP,5,6
192,1,object_03,object_07,1101.5999999046,1,1,305.79999995232,0.6666666666666666,1,object_02,1,3218,0,6,5,desert_2,1,memory-2step-stake-s,687,2440717,0.0-19.0-0.1-0.192,A1GC6CN3F0IHWN,3QGHA0EA1MGR4GKNSEWY8BJ80SRWBM,39O5D9O87X8G968ZMWMT3IAGEWV3CP,1,2
193,1,object_07,object_03,771.5,1,2,259.10000014305,0.3333333333333333,1,object_02,1,3221,0,3,7,desert_2,1,memory-2step-stake-s,688,2448570,0.0-19.0-0.1-0.193,A1GC6CN3F0IHWN,3QGHA0EA1MGR4GKNSEWY8BJ80SRWBM,39O5D9O87X8G968ZMWMT3IAGEWV3CP,2,1
194,4,object_01,object_08,304.0,7,1,285.59999990463,0.2222222222222222,1,object_02,5,3231,0,2,6,restaurant_7,1,memory-2step-stake-s,689,2456345,0.0-19.0-0.1-0.194,A1GC6CN3F0IHWN,3QGHA0EA1MGR4GKNSEWY8BJ80SRWBM,39O5D9O87X8G968ZMWMT3IAGEWV3CP,7,8
195,1,object_03,object_07,540.90000009537,1,1,429.89999985695,0.3333333333333333,1,object_02,1,3234,0,3,7,desert_2,1,memory-2step-stake-s,690,2464426,0.0-19.0-0.1-0.195,A1GC6CN3F0IHWN,3QGHA0EA1MGR4GKNSEWY8BJ80SRWBM,39O5D9O87X8G968ZMWMT3IAGEWV3CP,1,2
196,2,object_04,object_05,246.79999995232,3,2,279.19999980927,0.1111111111111111,1,object_02,1,3235,0,1,5,forest_7,1,memory-2step-stake-s,691,2472114,0.0-19.0-0.1-0.196,A1GC6CN3F0IHWN,3QGHA0EA1MGR4GKNSEWY8BJ80SRWBM,39O5D9O87X8G968ZMWMT3IAGEWV3CP,4,3
197,3,object_06,object_10,1036.7000000477,6,2,363.90000009537,0.5555555555555556,2,object_09,5,3260,0,1,5,library_3,1,memory-2step-stake-s,692,2480310,0.0-19.0-0.1-0.197,A1GC6CN3F0IHWN,3QGHA0EA1MGR4GKNSEWY8BJ80SRWBM,39O5D9O87X8G968ZMWMT3IAGEWV3CP,5,6
198,3,object_06,object_10,508.5,6,2,369.59999990463,0.4444444444444444,2,object_09,1,3264,0,1,4,library_8,1,memory-2step-stake-s,693,2488443,0.0-19.0-0.1-0.198,A1GC6CN3F0IHWN,3QGHA0EA1MGR4GKNSEWY8BJ80SRWBM,39O5D9O87X8G968ZMWMT3IAGEWV3CP,5,6
199,3,object_10,object_06,324.10000014305,6,1,420.89999985695,0.2222222222222222,2,object_09,1,3266,0,2,2,library_6,1,memory-2step-stake-s,694,2496361,0.0-19.0-0.1-0.199,A1GC6CN3F0IHWN,3QGHA0EA1MGR4GKNSEWY8BJ80SRWBM,39O5D9O87X8G968ZMWMT3IAGEWV3CP,6,5
200,3,object_10,object_06,499.10000014305,5,2,293.5,0.1111111111111111,1,object_02,5,3271,0,1,6,library_8,1,memory-2step-stake-s,695,2504063,0.0-19.0-0.1-0.200,A1GC6CN3F0IHWN,3QGHA0EA1MGR4GKNSEWY8BJ80SRWBM,39O5D9O87X8G968ZMWMT3IAGEWV3CP,6,5
201,1,object_07,object_03,846.5,2,1,268.40000009537,0.4444444444444444,2,object_09,1,3275,0,1,4,desert_5,1,memory-2step-stake-s,696,2512061,0.0-19.0-0.1-0.201,A1GC6CN3F0IHWN,3QGHA0EA1MGR4GKNSEWY8BJ80SRWBM,39O5D9O87X8G968ZMWMT3IAGEWV3CP,2,1
202,2,object_05,object_04,969.40000009537,4,2,396.5,0.4444444444444444,2,object_09,5,3295,0,0,4,forest_7,1,memory-2step-stake-s,697,2520195,0.0-19.0-0.1-0.202,A1GC6CN3F0IHWN,3QGHA0EA1MGR4GKNSEWY8BJ80SRWBM,39O5D9O87X8G968ZMWMT3IAGEWV3CP,3,4
203,3,object_06,object_10,270.5,5,1,259.90000009537,0.1111111111111111,1,object_02,5,3300,0,1,2,library_5,1,memory-2step-stake-s,698,2527863,0.0-19.0-0.1-0.203,A1GC6CN3F0IHWN,3QGHA0EA1MGR4GKNSEWY8BJ80SRWBM,39O5D9O87X8G968ZMWMT3IAGEWV3CP,5,6
204,4,object_08,object_01,899.90000009537,8,1,300.10000014305,0.4444444444444444,2,object_09,5,3320,0,1,4,restaurant_1,1,memory-2step-stake-s,699,2535878,0.0-19.0-0.1-0.204,A1GC6CN3F0IHWN,3QGHA0EA1MGR4GKNSEWY8BJ80SRWBM,39O5D9O87X8G968ZMWMT3IAGEWV3CP,8,7
205,2,object_05,object_04,847.5,4,2,310.89999985695,0.2222222222222222,2,object_09,1,3322,0,0,2,forest_1,1,memory-2step-stake-s,700,2543662,0.0-19.0-0.1-0.205,A1GC6CN3F0IHWN,3QGHA0EA1MGR4GKNSEWY8BJ80SRWBM,39O5D9O87X8G968ZMWMT3IAGEWV3CP,3,4
206,3,object_06,object_10,1005.0999999046,6,2,298.5,0.3333333333333333,2,object_09,5,3337,0,1,3,library_5,1,memory-2step-stake-s,701,2551562,0.0-19.0-0.1-0.206,A1GC6CN3F0IHWN,3QGHA0EA1MGR4GKNSEWY8BJ80SRWBM,39O5D9O87X8G968ZMWMT3IAGEWV3CP,5,6
207,3,object_06,object_10,685.29999995232,5,1,262.0,0.2222222222222222,1,object_02,1,3339,0,2,3,library_8,1,memory-2step-stake-s,702,2559309,0.0-19.0-0.1-0.207,A1GC6CN3F0IHWN,3QGHA0EA1MGR4GKNSEWY8BJ80SRWBM,39O5D9O87X8G968ZMWMT3IAGEWV3CP,5,6
208,4,object_01,object_08,734.09999990463,7,1,328.90000009537,0.2222222222222222,1,object_02,1,3341,0,2,4,restaurant_8,1,memory-2step-stake-s,703,2567138,0.0-19.0-0.1-0.208,A1GC6CN3F0IHWN,3QGHA0EA1MGR4GKNSEWY8BJ80SRWBM,39O5D9O87X8G968ZMWMT3IAGEWV3CP,7,8
209,3,object_10,object_06,1223.7000000477,6,1,375.60000014305,0.3333333333333333,2,object_09,5,3356,0,0,3,library_5,1,memory-2step-stake-s,704,2575129,0.0-19.0-0.1-0.209,A1GC6CN3F0IHWN,3QGHA0EA1MGR4GKNSEWY8BJ80SRWBM,39O5D9O87X8G968ZMWMT3IAGEWV3CP,6,5
210,1,object_07,object_03,793.20000004768,2,1,359.0,0.1111111111111111,2,object_09,5,3361,0,1,1,desert_8,1,memory-2step-stake-s,705,2582879,0.0-19.0-0.1-0.210,A1GC6CN3F0IHWN,3QGHA0EA1MGR4GKNSEWY8BJ80SRWBM,39O5D9O87X8G968ZMWMT3IAGEWV3CP,2,1
211,2,object_04,object_05,1009.2999999523,3,2,291.29999995232,0.3333333333333333,1,object_02,1,3364,0,3,3,forest_7,1,memory-2step-stake-s,706,2590773,0.0-19.0-0.1-0.211,A1GC6CN3F0IHWN,3QGHA0EA1MGR4GKNSEWY8BJ80SRWBM,39O5D9O87X8G968ZMWMT3IAGEWV3CP,4,3
212,3,object_10,object_06,1144.0,5,2,331.70000004768,0.1111111111111111,1,object_02,5,3369,0,1,4,library_6,1,memory-2step-stake-s,707,2598487,0.0-19.0-0.1-0.212,A1GC6CN3F0IHWN,3QGHA0EA1MGR4GKNSEWY8BJ80SRWBM,39O5D9O87X8G968ZMWMT3IAGEWV3CP,6,5
213,1,object_07,object_03,644.39999985695,2,1,319.10000014305,0.3333333333333333,2,object_09,1,3372,0,1,3,desert_5,1,memory-2step-stake-s,708,2606408,0.0-19.0-0.1-0.213,A1GC6CN3F0IHWN,3QGHA0EA1MGR4GKNSEWY8BJ80SRWBM,39O5D9O87X8G968ZMWMT3IAGEWV3CP,2,1
214,4,object_01,object_08,821.79999995232,7,1,320.09999990463,0.2222222222222222,1,object_02,5,3382,0,2,4,restaurant_3,1,memory-2step-stake-s,709,2614245,0.0-19.0-0.1-0.214,A1GC6CN3F0IHWN,3QGHA0EA1MGR4GKNSEWY8BJ80SRWBM,39O5D9O87X8G968ZMWMT3IAGEWV3CP,7,8
215,3,object_06,object_10,757.20000004768,6,2,448.59999990463,0.7777777777777778,2,object_09,5,3417,0,1,7,library_3,1,memory-2step-stake-s,710,2622744,0.0-19.0-0.1-0.215,A1GC6CN3F0IHWN,3QGHA0EA1MGR4GKNSEWY8BJ80SRWBM,39O5D9O87X8G968ZMWMT3IAGEWV3CP,5,6
216,2,object_05,object_04,-1.0,-1,-1,-1.0,0.0,-,0,1,3417,0,2,8,forest_1,1,memory-2step-stake-s,711,2629293,0.0-19.0-0.1-0.216,A1GC6CN3F0IHWN,3QGHA0EA1MGR4GKNSEWY8BJ80SRWBM,39O5D9O87X8G968ZMWMT3IAGEWV3CP,3,4
217,3,object_06,object_10,935.80000019073,5,1,532.5,0.1111111111111111,1,object_02,5,3422,0,1,4,library_6,1,memory-2step-stake-s,712,2637198,0.0-19.0-0.1-0.217,A1GC6CN3F0IHWN,3QGHA0EA1MGR4GKNSEWY8BJ80SRWBM,39O5D9O87X8G968ZMWMT3IAGEWV3CP,5,6
218,4,object_08,object_01,118.90000009537,7,2,428.0,0.1111111111111111,1,object_02,1,3423,0,1,3,restaurant_1,1,memory-2step-stake-s,713,2645021,0.0-19.0-0.1-0.218,A1GC6CN3F0IHWN,3QGHA0EA1MGR4GKNSEWY8BJ80SRWBM,39O5D9O87X8G968ZMWMT3IAGEWV3CP,8,7
219,1,object_03,object_07,-1.0,-1,-1,-1.0,0.0,-,0,1,3423,0,1,3,desert_2,1,memory-2step-stake-s,714,2651595,0.0-19.0-0.1-0.219,A1GC6CN3F0IHWN,3QGHA0EA1MGR4GKNSEWY8BJ80SRWBM,39O5D9O87X8G968ZMWMT3IAGEWV3CP,1,2
220,1,object_03,object_07,-1.0,-1,-1,-1.0,0.0,-,0,1,3423,0,3,2,desert_6,1,memory-2step-stake-s,715,2857664,0.0-19.0-0.1-0.220,A1GC6CN3F0IHWN,3QGHA0EA1MGR4GKNSEWY8BJ80SRWBM,39O5D9O87X8G968ZMWMT3IAGEWV3CP,1,2
221,1,object_07,object_03,702.0,2,1,328.90000009537,0.4444444444444444,2,object_09,1,3427,0,4,4,desert_2,1,memory-2step-stake-s,716,2865899,0.0-19.0-0.1-0.221,A1GC6CN3F0IHWN,3QGHA0EA1MGR4GKNSEWY8BJ80SRWBM,39O5D9O87X8G968ZMWMT3IAGEWV3CP,2,1
222,1,object_03,object_07,336.0,2,2,262.10000014305,0.6666666666666666,2,object_09,1,3433,0,7,6,desert_2,1,memory-2step-stake-s,717,2874133,0.0-19.0-0.1-0.222,A1GC6CN3F0IHWN,3QGHA0EA1MGR4GKNSEWY8BJ80SRWBM,39O5D9O87X8G968ZMWMT3IAGEWV3CP,1,2
223,4,object_01,object_08,392.0,7,1,399.39999985695,0.5555555555555556,1,object_02,5,3458,0,5,7,restaurant_1,1,memory-2step-stake-s,718,2882400,0.0-19.0-0.1-0.223,A1GC6CN3F0IHWN,3QGHA0EA1MGR4GKNSEWY8BJ80SRWBM,39O5D9O87X8G968ZMWMT3IAGEWV3CP,7,8
224,4,object_01,object_08,329.40000009537,8,2,251.29999995232,1.0,2,object_09,5,3503,0,6,9,restaurant_8,1,memory-2step-stake-s,719,2890917,0.0-19.0-0.1-0.224,A1GC6CN3F0IHWN,3QGHA0EA1MGR4GKNSEWY8BJ80SRWBM,39O5D9O87X8G968ZMWMT3IAGEWV3CP,7,8
225,4,object_08,object_01,684.10000014305,8,1,286.60000014305,0.8888888888888888,2,object_09,5,3543,0,3,8,restaurant_7,1,memory-2step-stake-s,720,2899383,0.0-19.0-0.1-0.225,A1GC6CN3F0IHWN,3QGHA0EA1MGR4GKNSEWY8BJ80SRWBM,39O5D9O87X8G968ZMWMT3IAGEWV3CP,8,7
226,1,object_07,object_03,286.89999985695,1,2,947.20000004768,0.0,1,object_02,1,3543,0,0,8,desert_5,1,memory-2step-stake-s,721,2907600,0.0-19.0-0.1-0.226,A1GC6CN3F0IHWN,3QGHA0EA1MGR4GKNSEWY8BJ80SRWBM,39O5D9O87X8G968ZMWMT3IAGEWV3CP,2,1
227,4,object_08,object_01,425.09999990463,8,1,313.0,0.7777777777777778,2,object_09,5,3578,0,3,7,restaurant_7,1,memory-2step-stake-s,722,2915992,0.0-19.0-0.1-0.227,A1GC6CN3F0IHWN,3QGHA0EA1MGR4GKNSEWY8BJ80SRWBM,39O5D9O87X8G968ZMWMT3IAGEWV3CP,8,7
228,4,object_01,object_08,1056.7999999523,8,2,784.79999995232,0.8888888888888888,2,object_09,5,3618,0,1,8,restaurant_1,1,memory-2step-stake-s,723,2924973,0.0-19.0-0.1-0.228,A1GC6CN3F0IHWN,3QGHA0EA1MGR4GKNSEWY8BJ80SRWBM,39O5D9O87X8G968ZMWMT3IAGEWV3CP,7,8
229,4,object_08,object_01,302.39999985695,8,1,311.80000019073,1.0,2,object_09,5,3663,0,1,9,restaurant_1,1,memory-2step-stake-s,724,2933568,0.0-19.0-0.1-0.229,A1GC6CN3F0IHWN,3QGHA0EA1MGR4GKNSEWY8BJ80SRWBM,39O5D9O87X8G968ZMWMT3IAGEWV3CP,8,7
230,1,object_07,object_03,679.89999985695,2,1,307.70000004768,0.8888888888888888,2,object_09,1,3671,0,2,8,desert_8,1,memory-2step-stake-s,725,2942058,0.0-19.0-0.1-0.230,A1GC6CN3F0IHWN,3QGHA0EA1MGR4GKNSEWY8BJ80SRWBM,39O5D9O87X8G968ZMWMT3IAGEWV3CP,2,1
231,4,object_08,object_01,314.60000014305,7,2,541.5,0.3333333333333333,1,object_02,1,3674,0,3,8,restaurant_7,1,memory-2step-stake-s,726,2950224,0.0-19.0-0.1-0.231,A1GC6CN3F0IHWN,3QGHA0EA1MGR4GKNSEWY8BJ80SRWBM,39O5D9O87X8G968ZMWMT3IAGEWV3CP,8,7
232,1,object_03,object_07,525.29999995232,1,1,482.70000004768,0.1111111111111111,1,object_02,1,3675,0,1,8,desert_6,1,memory-2step-stake-s,727,2958132,0.0-19.0-0.1-0.232,A1GC6CN3F0IHWN,3QGHA0EA1MGR4GKNSEWY8BJ80SRWBM,39O5D9O87X8G968ZMWMT3IAGEWV3CP,1,2
233,4,object_08,object_01,533.09999990463,7,2,293.89999985695,0.2222222222222222,1,object_02,5,3685,0,2,8,restaurant_3,1,memory-2step-stake-s,728,2965939,0.0-19.0-0.1-0.233,A1GC6CN3F0IHWN,3QGHA0EA1MGR4GKNSEWY8BJ80SRWBM,39O5D9O87X8G968ZMWMT3IAGEWV3CP,8,7
234,2,object_05,object_04,417.79999995232,3,1,267.59999990463,0.2222222222222222,1,object_02,1,3687,0,2,8,forest_1,1,memory-2step-stake-s,729,2973693,0.0-19.0-0.1-0.234,A1GC6CN3F0IHWN,3QGHA0EA1MGR4GKNSEWY8BJ80SRWBM,39O5D9O87X8G968ZMWMT3IAGEWV3CP,3,4
235,3,object_10,object_06,-1.0,-1,-1,-1.0,0.0,-,0,1,3687,0,6,8,library_6,1,memory-2step-stake-s,730,2980259,0.0-19.0-0.1-0.235,A1GC6CN3F0IHWN,3QGHA0EA1MGR4GKNSEWY8BJ80SRWBM,39O5D9O87X8G968ZMWMT3IAGEWV3CP,6,5
236,2,object_05,object_04,446.20000004768,4,2,318.90000009537,0.7777777777777778,2,object_09,5,3722,0,6,7,forest_2,1,memory-2step-stake-s,731,2989175,0.0-19.0-0.1-0.236,A1GC6CN3F0IHWN,3QGHA0EA1MGR4GKNSEWY8BJ80SRWBM,39O5D9O87X8G968ZMWMT3IAGEWV3CP,3,4
237,4,object_01,object_08,570.5,8,2,440.30000019073,0.7777777777777778,2,object_09,5,3757,0,7,7,restaurant_8,1,memory-2step-stake-s,732,2997709,0.0-19.0-0.1-0.237,A1GC6CN3F0IHWN,3QGHA0EA1MGR4GKNSEWY8BJ80SRWBM,39O5D9O87X8G968ZMWMT3IAGEWV3CP,7,8
238,4,object_01,object_08,358.70000004768,7,1,368.5,0.8888888888888888,1,object_02,5,3797,0,8,8,restaurant_3,1,memory-2step-stake-s,733,3006281,0.0-19.0-0.1-0.238,A1GC6CN3F0IHWN,3QGHA0EA1MGR4GKNSEWY8BJ80SRWBM,39O5D9O87X8G968ZMWMT3IAGEWV3CP,7,8
239,3,object_10,object_06,961.59999990463,5,2,267.89999985695,0.7777777777777778,1,object_02,5,3832,0,7,7,library_6,1,memory-2step-stake-s,734,3014592,0.0-19.0-0.1-0.239,A1GC6CN3F0IHWN,3QGHA0EA1MGR4GKNSEWY8BJ80SRWBM,39O5D9O87X8G968ZMWMT3IAGEWV3CP,6,5
240,2,object_05,object_04,747.70000004768,4,2,247.79999995232,0.8888888888888888,2,object_09,1,3840,0,5,8,forest_7,1,memory-2step-stake-s,735,3023024,0.0-19.0-0.1-0.240,A1GC6CN3F0IHWN,3QGHA0EA1MGR4GKNSEWY8BJ80SRWBM,39O5D9O87X8G968ZMWMT3IAGEWV3CP,3,4
241,3,object_10,object_06,257.29999995232,6,1,458.79999995232,0.8888888888888888,2,object_09,5,3880,0,5,8,library_5,1,memory-2step-stake-s,736,3031657,0.0-19.0-0.1-0.241,A1GC6CN3F0IHWN,3QGHA0EA1MGR4GKNSEWY8BJ80SRWBM,39O5D9O87X8G968ZMWMT3IAGEWV3CP,6,5
242,2,object_05,object_04,544.0,4,2,283.89999985695,1.0,2,object_09,1,3889,0,5,9,forest_6,1,memory-2step-stake-s,737,3040192,0.0-19.0-0.1-0.242,A1GC6CN3F0IHWN,3QGHA0EA1MGR4GKNSEWY8BJ80SRWBM,39O5D9O87X8G968ZMWMT3IAGEWV3CP,3,4
243,1,object_03,object_07,302.89999985695,1,1,240.79999995232,0.7777777777777778,1,object_02,1,3896,0,7,9,desert_6,1,memory-2step-stake-s,738,3048526,0.0-19.0-0.1-0.243,A1GC6CN3F0IHWN,3QGHA0EA1MGR4GKNSEWY8BJ80SRWBM,39O5D9O87X8G968ZMWMT3IAGEWV3CP,1,2
244,3,object_06,object_10,643.59999990463,6,2,250.10000014305,1.0,2,object_09,1,3905,0,7,9,library_8,1,memory-2step-stake-s,739,3057032,0.0-19.0-0.1-0.244,A1GC6CN3F0IHWN,3QGHA0EA1MGR4GKNSEWY8BJ80SRWBM,39O5D9O87X8G968ZMWMT3IAGEWV3CP,5,6
245,3,object_06,object_10,327.79999995232,5,1,395.10000014305,0.5555555555555556,1,object_02,1,3910,0,5,7,library_3,1,memory-2step-stake-s,740,3065314,0.0-19.0-0.1-0.245,A1GC6CN3F0IHWN,3QGHA0EA1MGR4GKNSEWY8BJ80SRWBM,39O5D9O87X8G968ZMWMT3IAGEWV3CP,5,6
246,4,object_01,object_08,289.60000014305,8,2,293.29999995232,0.7777777777777778,2,object_09,1,3917,0,3,7,restaurant_1,1,memory-2step-stake-s,741,3073648,0.0-19.0-0.1-0.246,A1GC6CN3F0IHWN,3QGHA0EA1MGR4GKNSEWY8BJ80SRWBM,39O5D9O87X8G968ZMWMT3IAGEWV3CP,7,8
247,2,object_05,object_04,715.20000004768,3,1,411.90000009537,0.4444444444444444,1,object_02,1,3921,0,4,7,forest_6,1,memory-2step-stake-s,742,3081793,0.0-19.0-0.1-0.247,A1GC6CN3F0IHWN,3QGHA0EA1MGR4GKNSEWY8BJ80SRWBM,39O5D9O87X8G968ZMWMT3IAGEWV3CP,3,4
248,1,object_07,object_03,367.09999990463,1,2,326.70000004768,0.6666666666666666,1,object_02,1,3927,0,6,7,desert_8,1,memory-2step-stake-s,743,3090059,0.0-19.0-0.1-0.248,A1GC6CN3F0IHWN,3QGHA0EA1MGR4GKNSEWY8BJ80SRWBM,39O5D9O87X8G968ZMWMT3IAGEWV3CP,2,1
249,4,object_08,object_01,317.0,8,1,357.59999990463,0.8888888888888888,2,object_09,5,3967,0,3,8,restaurant_8,1,memory-2step-stake-s,744,3098605,0.0-19.0-0.1-0.249,A1GC6CN3F0IHWN,3QGHA0EA1MGR4GKNSEWY8BJ80SRWBM,39O5D9O87X8G968ZMWMT3IAGEWV3CP,8,7
250,4,object_08,object_01,530.89999985695,7,2,448.29999995232,0.0,1,object_02,5,3967,0,0,8,restaurant_1,1,memory-2step-stake-s,745,3106339,0.0-19.0-0.1-0.250,A1GC6CN3F0IHWN,3QGHA0EA1MGR4GKNSEWY8BJ80SRWBM,39O5D9O87X8G968ZMWMT3IAGEWV3CP,8,7
251,4,object_08,object_01,1042.2000000477,8,1,317.09999990463,0.5555555555555556,2,object_09,5,3992,0,3,5,restaurant_8,1,memory-2step-stake-s,746,3114477,0.0-19.0-0.1-0.251,A1GC6CN3F0IHWN,3QGHA0EA1MGR4GKNSEWY8BJ80SRWBM,39O5D9O87X8G968ZMWMT3IAGEWV3CP,8,7
252,3,object_06,object_10,743.80000019073,6,2,426.0,0.5555555555555556,2,object_09,5,4017,0,4,5,library_6,1,memory-2step-stake-s,747,3122738,0.0-19.0-0.1-0.252,A1GC6CN3F0IHWN,3QGHA0EA1MGR4GKNSEWY8BJ80SRWBM,39O5D9O87X8G968ZMWMT3IAGEWV3CP,5,6
253,4,object_01,object_08,312.29999995232,7,1,241.59999990463,0.4444444444444444,1,object_02,5,4037,0,4,8,restaurant_7,1,memory-2step-stake-s,748,3130691,0.0-19.0-0.1-0.253,A1GC6CN3F0IHWN,3QGHA0EA1MGR4GKNSEWY8BJ80SRWBM,39O5D9O87X8G968ZMWMT3IAGEWV3CP,7,8
254,3,object_10,object_06,641.39999985695,5,2,205.10000014305,0.3333333333333333,1,object_02,5,4052,0,3,6,library_5,1,memory-2step-stake-s,749,3138525,0.0-19.0-0.1-0.254,A1GC6CN3F0IHWN,3QGHA0EA1MGR4GKNSEWY8BJ80SRWBM,39O5D9O87X8G968ZMWMT3IAGEWV3CP,6,5
255,2,object_05,object_04,873.59999990463,4,2,265.40000009537,0.6666666666666666,2,object_09,1,4058,0,5,6,forest_7,1,memory-2step-stake-s,750,3146742,0.0-19.0-0.1-0.255,A1GC6CN3F0IHWN,3QGHA0EA1MGR4GKNSEWY8BJ80SRWBM,39O5D9O87X8G968ZMWMT3IAGEWV3CP,3,4
