,state1,stim_left,stim_right,rt_1,choice1,response1,rt_2,points,state2,stim_state2,stake,score,practice,rews1,rews2,background,high_arm,trial_type,trial_index,time_elapsed,internal_node_id,subid,hitid,assignmentid,stim_left_num,stim_right_num
0,2,object_03,object_09,458.15999992192,4,2,-1.0,0.0,2,object_05,5,0,0,4,5,forest_5,2,memory-2step-stake-s,533,1211685,0.0-19.0-0.0-0.0,A25OK203N0QYH2,30UZJB2PPKSSO21QHKUJ0S8JS3B35M,3QHK8ZVMIQYEF56IE2UYOKYFWX9BLR,3,4
1,3,object_08,object_01,366.33499991149,6,1,-1.0,0.0,2,object_05,5,0,0,4,2,library_8,2,memory-2step-stake-s,534,1220220,0.0-19.0-0.0-0.1,A25OK203N0QYH2,30UZJB2PPKSSO21QHKUJ0S8JS3B35M,3QHK8ZVMIQYEF56IE2UYOKYFWX9BLR,6,5
2,1,object_06,object_07,974.96499994304,2,2,-1.0,0.0,2,object_05,5,0,0,4,3,desert_4,2,memory-2step-stake-s,535,1228748,0.0-19.0-0.0-0.2,A25OK203N0QYH2,30UZJB2PPKSSO21QHKUJ0S8JS3B35M,3QHK8ZVMIQYEF56IE2UYOKYFWX9BLR,1,2
3,4,object_10,object_02,1293.2199999923,7,2,-1.0,0.0,1,object_04,1,0,0,4,1,restaurant_8,2,memory-2step-stake-s,536,1237273,0.0-19.0-0.0-0.3,A25OK203N0QYH2,30UZJB2PPKSSO21QHKUJ0S8JS3B35M,3QHK8ZVMIQYEF56IE2UYOKYFWX9BLR,8,7
4,1,object_07,object_06,380.61500003096,2,1,-1.0,0.0,2,object_05,5,0,0,6,0,desert_5,2,memory-2step-stake-s,537,1245802,0.0-19.0-0.0-0.4,A25OK203N0QYH2,30UZJB2PPKSSO21QHKUJ0S8JS3B35M,3QHK8ZVMIQYEF56IE2UYOKYFWX9BLR,2,1
5,4,object_10,object_02,316.07000005897,7,2,-1.0,0.0,1,object_04,5,0,0,4,0,restaurant_7,2,memory-2step-stake-s,538,1254325,0.0-19.0-0.0-0.5,A25OK203N0QYH2,30UZJB2PPKSSO21QHKUJ0S8JS3B35M,3QHK8ZVMIQYEF56IE2UYOKYFWX9BLR,8,7
6,3,object_08,object_01,924.45000004955,5,2,-1.0,0.0,1,object_04,1,0,0,3,6,library_2,2,memory-2step-stake-s,539,1262866,0.0-19.0-0.0-0.6,A25OK203N0QYH2,30UZJB2PPKSSO21QHKUJ0S8JS3B35M,3QHK8ZVMIQYEF56IE2UYOKYFWX9BLR,6,5
7,4,object_02,object_10,1016.3099999772,8,2,-1.0,0.0,2,object_05,1,0,0,4,4,restaurant_8,2,memory-2step-stake-s,540,1271402,0.0-19.0-0.0-0.7,A25OK203N0QYH2,30UZJB2PPKSSO21QHKUJ0S8JS3B35M,3QHK8ZVMIQYEF56IE2UYOKYFWX9BLR,7,8
8,2,object_03,object_09,1272.0699999481,3,1,-1.0,0.0,1,object_04,5,0,0,2,4,forest_4,2,memory-2step-stake-s,541,1279928,0.0-19.0-0.0-0.8,A25OK203N0QYH2,30UZJB2PPKSSO21QHKUJ0S8JS3B35M,3QHK8ZVMIQYEF56IE2UYOKYFWX9BLR,3,4
9,1,object_07,object_06,1098.3049999923,1,2,-1.0,0.0,1,object_04,5,0,0,5,4,desert_5,2,memory-2step-stake-s,542,1288463,0.0-19.0-0.0-0.9,A25OK203N0QYH2,30UZJB2PPKSSO21QHKUJ0S8JS3B35M,3QHK8ZVMIQYEF56IE2UYOKYFWX9BLR,2,1
10,3,object_08,object_01,301.63000000175,6,1,-1.0,0.0,2,object_05,1,0,0,5,0,library_1,2,memory-2step-stake-s,543,1296986,0.0-19.0-0.0-0.10,A25OK203N0QYH2,30UZJB2PPKSSO21QHKUJ0S8JS3B35M,3QHK8ZVMIQYEF56IE2UYOKYFWX9BLR,6,5
11,1,object_07,object_06,1330.4300000891,1,2,-1.0,0.0,1,object_04,5,0,0,5,0,desert_7,2,memory-2step-stake-s,544,1305517,0.0-19.0-0.0-0.11,A25OK203N0QYH2,30UZJB2PPKSSO21QHKUJ0S8JS3B35M,3QHK8ZVMIQYEF56IE2UYOKYFWX9BLR,2,1
12,1,object_06,object_07,295.01000000164,1,1,360.94000004232,0.4444444444444444,1,object_04,5,20,0,4,1,desert_5,2,memory-2step-stake-s,545,1313515,0.0-19.0-0.0-0.12,A25OK203N0QYH2,30UZJB2PPKSSO21QHKUJ0S8JS3B35M,3QHK8ZVMIQYEF56IE2UYOKYFWX9BLR,1,2
13,4,object_02,object_10,836.3749999553,8,2,420.99499993492,0.1111111111111111,2,object_05,1,21,0,5,1,restaurant_7,2,memory-2step-stake-s,546,1321265,0.0-19.0-0.0-0.13,A25OK203N0QYH2,30UZJB2PPKSSO21QHKUJ0S8JS3B35M,3QHK8ZVMIQYEF56IE2UYOKYFWX9BLR,7,8
14,2,object_09,object_03,943.4299999848,4,1,400.70999995805,0.1111111111111111,2,object_05,5,26,0,6,1,forest_2,2,memory-2step-stake-s,547,1328992,0.0-19.0-0.0-0.14,A25OK203N0QYH2,30UZJB2PPKSSO21QHKUJ0S8JS3B35M,3QHK8ZVMIQYEF56IE2UYOKYFWX9BLR,4,3
15,1,object_06,object_07,967.18000003602,2,2,319.38500003889,0.3333333333333333,2,object_05,5,41,0,4,3,desert_5,2,memory-2step-stake-s,548,1336848,0.0-19.0-0.0-0.15,A25OK203N0QYH2,30UZJB2PPKSSO21QHKUJ0S8JS3B35M,3QHK8ZVMIQYEF56IE2UYOKYFWX9BLR,1,2
16,2,object_03,object_09,1150.3200000152,4,2,410.63999990001,0.6666666666666666,2,object_05,1,47,0,6,6,forest_4,2,memory-2step-stake-s,549,1345099,0.0-19.0-0.0-0.16,A25OK203N0QYH2,30UZJB2PPKSSO21QHKUJ0S8JS3B35M,3QHK8ZVMIQYEF56IE2UYOKYFWX9BLR,3,4
17,2,object_09,object_03,675.11000006925,4,1,428.78499999642,0.4444444444444444,2,object_05,5,67,0,6,4,forest_5,2,memory-2step-stake-s,550,1353160,0.0-19.0-0.0-0.17,A25OK203N0QYH2,30UZJB2PPKSSO21QHKUJ0S8JS3B35M,3QHK8ZVMIQYEF56IE2UYOKYFWX9BLR,4,3
18,2,object_03,object_09,1308.0649999902,4,2,394.43499990739,0.3333333333333333,2,object_05,5,82,0,7,3,forest_3,2,memory-2step-stake-s,551,1361095,0.0-19.0-0.0-0.18,A25OK203N0QYH2,30UZJB2PPKSSO21QHKUJ0S8JS3B35M,3QHK8ZVMIQYEF56IE2UYOKYFWX9BLR,3,4
19,4,object_10,object_02,623.78999998327,8,1,354.81000004802,0.3333333333333333,2,object_05,1,85,0,7,3,restaurant_2,2,memory-2step-stake-s,552,1368984,0.0-19.0-0.0-0.19,A25OK203N0QYH2,30UZJB2PPKSSO21QHKUJ0S8JS3B35M,3QHK8ZVMIQYEF56IE2UYOKYFWX9BLR,8,7
20,1,object_07,object_06,545.99500005133,1,2,452.64000003226,0.6666666666666666,1,object_04,1,91,0,6,5,desert_4,2,memory-2step-stake-s,553,1377279,0.0-19.0-0.0-0.20,A25OK203N0QYH2,30UZJB2PPKSSO21QHKUJ0S8JS3B35M,3QHK8ZVMIQYEF56IE2UYOKYFWX9BLR,2,1
21,3,object_01,object_08,675.69000006188,5,1,417.46500006411,0.3333333333333333,1,object_04,1,94,0,3,5,library_8,2,memory-2step-stake-s,554,1385232,0.0-19.0-0.0-0.21,A25OK203N0QYH2,30UZJB2PPKSSO21QHKUJ0S8JS3B35M,3QHK8ZVMIQYEF56IE2UYOKYFWX9BLR,5,6
22,2,object_03,object_09,1448.1349999551,4,2,504.79499995708,0.4444444444444444,2,object_05,5,114,0,5,4,forest_4,2,memory-2step-stake-s,555,1393368,0.0-19.0-0.0-0.22,A25OK203N0QYH2,30UZJB2PPKSSO21QHKUJ0S8JS3B35M,3QHK8ZVMIQYEF56IE2UYOKYFWX9BLR,3,4
23,2,object_09,object_03,-1.0,-1,-1,-1.0,0.0,-,0,5,114,0,7,2,forest_5,2,memory-2step-stake-s,556,1399887,0.0-19.0-0.0-0.23,A25OK203N0QYH2,30UZJB2PPKSSO21QHKUJ0S8JS3B35M,3QHK8ZVMIQYEF56IE2UYOKYFWX9BLR,4,3
24,2,object_09,object_03,549.28000003565,4,1,278.49000005517,0.2222222222222222,2,object_05,5,124,0,9,2,forest_2,2,memory-2step-stake-s,557,1407591,0.0-19.0-0.0-0.24,A25OK203N0QYH2,30UZJB2PPKSSO21QHKUJ0S8JS3B35M,3QHK8ZVMIQYEF56IE2UYOKYFWX9BLR,4,3
25,4,object_10,object_02,357.91999998037,7,2,387.54499994684,0.7777777777777778,1,object_04,1,131,0,7,1,restaurant_2,2,memory-2step-stake-s,558,1415922,0.0-19.0-0.0-0.25,A25OK203N0QYH2,30UZJB2PPKSSO21QHKUJ0S8JS3B35M,3QHK8ZVMIQYEF56IE2UYOKYFWX9BLR,8,7
26,1,object_06,object_07,873.58500005212,2,2,387.42499996442,0.1111111111111111,2,object_05,5,136,0,8,1,desert_4,2,memory-2step-stake-s,559,1423635,0.0-19.0-0.0-0.26,A25OK203N0QYH2,30UZJB2PPKSSO21QHKUJ0S8JS3B35M,3QHK8ZVMIQYEF56IE2UYOKYFWX9BLR,1,2
27,2,object_09,object_03,723.66999997757,4,1,424.74499996752,0.1111111111111111,2,object_05,1,137,0,5,1,forest_4,2,memory-2step-stake-s,560,1431388,0.0-19.0-0.0-0.27,A25OK203N0QYH2,30UZJB2PPKSSO21QHKUJ0S8JS3B35M,3QHK8ZVMIQYEF56IE2UYOKYFWX9BLR,4,3
28,3,object_01,object_08,-1.0,-1,-1,-1.0,0.0,-,0,1,137,0,4,1,library_1,2,memory-2step-stake-s,561,1437906,0.0-19.0-0.0-0.28,A25OK203N0QYH2,30UZJB2PPKSSO21QHKUJ0S8JS3B35M,3QHK8ZVMIQYEF56IE2UYOKYFWX9BLR,5,6
29,3,object_01,object_08,761.07999996748,6,2,450.56999998633,0.1111111111111111,2,object_05,1,138,0,3,1,library_1,2,memory-2step-stake-s,562,1445684,0.0-19.0-0.0-0.29,A25OK203N0QYH2,30UZJB2PPKSSO21QHKUJ0S8JS3B35M,3QHK8ZVMIQYEF56IE2UYOKYFWX9BLR,5,6
30,4,object_10,object_02,955.72000008542,7,2,477.55499999039,0.8888888888888888,1,object_04,1,146,0,8,1,restaurant_2,2,memory-2step-stake-s,563,1454202,0.0-19.0-0.0-0.30,A25OK203N0QYH2,30UZJB2PPKSSO21QHKUJ0S8JS3B35M,3QHK8ZVMIQYEF56IE2UYOKYFWX9BLR,8,7
31,3,object_08,object_01,1073.22999998,5,2,608.03499992471,0.6666666666666666,1,object_04,1,152,0,6,0,library_1,2,memory-2step-stake-s,564,1462641,0.0-19.0-0.0-0.31,A25OK203N0QYH2,30UZJB2PPKSSO21QHKUJ0S8JS3B35M,3QHK8ZVMIQYEF56IE2UYOKYFWX9BLR,6,5
32,3,object_08,object_01,-1.0,-1,-1,-1.0,0.0,-,0,1,152,0,9,1,library_4,2,memory-2step-stake-s,565,1469157,0.0-19.0-0.0-0.32,A25OK203N0QYH2,30UZJB2PPKSSO21QHKUJ0S8JS3B35M,3QHK8ZVMIQYEF56IE2UYOKYFWX9BLR,6,5
33,1,object_06,object_07,1332.0799999638,1,1,435.03499997314,0.8888888888888888,1,object_04,5,192,0,8,0,desert_4,2,memory-2step-stake-s,566,1477632,0.0-19.0-0.0-0.33,A25OK203N0QYH2,30UZJB2PPKSSO21QHKUJ0S8JS3B35M,3QHK8ZVMIQYEF56IE2UYOKYFWX9BLR,1,2
34,4,object_10,object_02,798.92999993172,7,2,836.24500001315,0.8888888888888888,1,object_04,1,200,0,8,2,restaurant_7,2,memory-2step-stake-s,567,1486510,0.0-19.0-0.0-0.34,A25OK203N0QYH2,30UZJB2PPKSSO21QHKUJ0S8JS3B35M,3QHK8ZVMIQYEF56IE2UYOKYFWX9BLR,8,7
35,3,object_01,object_08,1301.5199999791,5,1,920.59500003234,0.4444444444444444,1,object_04,5,220,0,4,5,library_1,2,memory-2step-stake-s,568,1495059,0.0-19.0-0.0-0.35,A25OK203N0QYH2,30UZJB2PPKSSO21QHKUJ0S8JS3B35M,3QHK8ZVMIQYEF56IE2UYOKYFWX9BLR,5,6
36,3,object_01,object_08,852.24000003655,5,1,253.49999999162,0.4444444444444444,1,object_04,1,224,0,4,4,library_8,2,memory-2step-stake-s,569,1502941,0.0-19.0-0.0-0.36,A25OK203N0QYH2,30UZJB2PPKSSO21QHKUJ0S8JS3B35M,3QHK8ZVMIQYEF56IE2UYOKYFWX9BLR,5,6
37,1,object_06,object_07,1143.6700000195,1,1,280.51499999128,0.7777777777777778,1,object_04,1,231,0,7,4,desert_4,2,memory-2step-stake-s,570,1511159,0.0-19.0-0.0-0.37,A25OK203N0QYH2,30UZJB2PPKSSO21QHKUJ0S8JS3B35M,3QHK8ZVMIQYEF56IE2UYOKYFWX9BLR,1,2
38,2,object_03,object_09,-1.0,-1,-1,-1.0,0.0,-,0,5,231,0,6,7,forest_5,2,memory-2step-stake-s,571,1517675,0.0-19.0-0.0-0.38,A25OK203N0QYH2,30UZJB2PPKSSO21QHKUJ0S8JS3B35M,3QHK8ZVMIQYEF56IE2UYOKYFWX9BLR,3,4
39,2,object_03,object_09,471.83499997482,3,1,251.40500010457,0.7777777777777778,1,object_04,5,266,0,7,7,forest_5,2,memory-2step-stake-s,572,1525872,0.0-19.0-0.0-0.39,A25OK203N0QYH2,30UZJB2PPKSSO21QHKUJ0S8JS3B35M,3QHK8ZVMIQYEF56IE2UYOKYFWX9BLR,3,4
40,3,object_01,object_08,1199.1350000026,5,1,549.74499996752,0.8888888888888888,1,object_04,1,274,0,8,9,library_4,2,memory-2step-stake-s,573,1534461,0.0-19.0-0.0-0.40,A25OK203N0QYH2,30UZJB2PPKSSO21QHKUJ0S8JS3B35M,3QHK8ZVMIQYEF56IE2UYOKYFWX9BLR,5,6
41,2,object_03,object_09,670.48500000965,3,1,140.98000002559,1.0,1,object_04,5,319,0,9,4,forest_2,2,memory-2step-stake-s,574,1542746,0.0-19.0-0.0-0.41,A25OK203N0QYH2,30UZJB2PPKSSO21QHKUJ0S8JS3B35M,3QHK8ZVMIQYEF56IE2UYOKYFWX9BLR,3,4
42,3,object_08,object_01,846.67999995872,5,2,261.20499998797,0.8888888888888888,1,object_04,1,327,0,8,3,library_1,2,memory-2step-stake-s,575,1551048,0.0-19.0-0.0-0.42,A25OK203N0QYH2,30UZJB2PPKSSO21QHKUJ0S8JS3B35M,3QHK8ZVMIQYEF56IE2UYOKYFWX9BLR,6,5
43,2,object_03,object_09,866.64999998175,3,1,175.12499995064,0.7777777777777778,1,object_04,5,362,0,7,2,forest_3,2,memory-2step-stake-s,576,1559169,0.0-19.0-0.0-0.43,A25OK203N0QYH2,30UZJB2PPKSSO21QHKUJ0S8JS3B35M,3QHK8ZVMIQYEF56IE2UYOKYFWX9BLR,3,4
44,2,object_09,object_03,575.28999994975,3,2,230.68999999668,0.8888888888888888,1,object_04,5,402,0,8,1,forest_4,2,memory-2step-stake-s,577,1567452,0.0-19.0-0.0-0.44,A25OK203N0QYH2,30UZJB2PPKSSO21QHKUJ0S8JS3B35M,3QHK8ZVMIQYEF56IE2UYOKYFWX9BLR,4,3
45,3,object_08,object_01,746.52500008233,5,2,350.22999998182,0.5555555555555556,1,object_04,1,407,0,5,2,library_1,2,memory-2step-stake-s,578,1575537,0.0-19.0-0.0-0.45,A25OK203N0QYH2,30UZJB2PPKSSO21QHKUJ0S8JS3B35M,3QHK8ZVMIQYEF56IE2UYOKYFWX9BLR,6,5
46,4,object_10,object_02,752.35999992583,7,2,218.74000004027,0.8888888888888888,1,object_04,5,447,0,8,6,restaurant_1,2,memory-2step-stake-s,579,1583794,0.0-19.0-0.0-0.46,A25OK203N0QYH2,30UZJB2PPKSSO21QHKUJ0S8JS3B35M,3QHK8ZVMIQYEF56IE2UYOKYFWX9BLR,8,7
47,4,object_10,object_02,609.88000000361,7,2,75.955000007525,0.7777777777777778,1,object_04,1,454,0,7,8,restaurant_7,2,memory-2step-stake-s,580,1591809,0.0-19.0-0.0-0.47,A25OK203N0QYH2,30UZJB2PPKSSO21QHKUJ0S8JS3B35M,3QHK8ZVMIQYEF56IE2UYOKYFWX9BLR,8,7
48,3,object_01,object_08,820.87000005413,5,1,280.81499994732,0.8888888888888888,1,object_04,5,494,0,8,6,library_2,2,memory-2step-stake-s,581,1600132,0.0-19.0-0.0-0.48,A25OK203N0QYH2,30UZJB2PPKSSO21QHKUJ0S8JS3B35M,3QHK8ZVMIQYEF56IE2UYOKYFWX9BLR,5,6
49,1,object_07,object_06,1122.8200000478,1,2,212.47000002768,1.0,1,object_04,5,539,0,9,5,desert_7,2,memory-2step-stake-s,582,1608489,0.0-19.0-0.0-0.49,A25OK203N0QYH2,30UZJB2PPKSSO21QHKUJ0S8JS3B35M,3QHK8ZVMIQYEF56IE2UYOKYFWX9BLR,2,1
50,4,object_10,object_02,640.52999997512,7,2,177.74499999359,0.7777777777777778,1,object_04,1,546,0,7,5,restaurant_8,2,memory-2step-stake-s,583,1616603,0.0-19.0-0.0-0.50,A25OK203N0QYH2,30UZJB2PPKSSO21QHKUJ0S8JS3B35M,3QHK8ZVMIQYEF56IE2UYOKYFWX9BLR,8,7
51,2,object_03,object_09,985.53000006359,3,1,254.45500004571,0.8888888888888888,1,object_04,5,586,0,8,3,forest_4,2,memory-2step-stake-s,584,1624901,0.0-19.0-0.0-0.51,A25OK203N0QYH2,30UZJB2PPKSSO21QHKUJ0S8JS3B35M,3QHK8ZVMIQYEF56IE2UYOKYFWX9BLR,3,4
52,3,object_08,object_01,773.50500004832,5,2,274.70000006724,1.0,1,object_04,1,595,0,9,2,library_1,2,memory-2step-stake-s,585,1633316,0.0-19.0-0.0-0.52,A25OK203N0QYH2,30UZJB2PPKSSO21QHKUJ0S8JS3B35M,3QHK8ZVMIQYEF56IE2UYOKYFWX9BLR,6,5
53,2,object_09,object_03,677.60000005364,3,2,151.73000004143,1.0,1,object_04,5,640,0,9,3,forest_5,2,memory-2step-stake-s,586,1641608,0.0-19.0-0.0-0.53,A25OK203N0QYH2,30UZJB2PPKSSO21QHKUJ0S8JS3B35M,3QHK8ZVMIQYEF56IE2UYOKYFWX9BLR,4,3
54,2,object_03,object_09,637.40999996662,3,1,134.22499992885,0.7777777777777778,1,object_04,5,675,0,7,2,forest_3,2,memory-2step-stake-s,587,1649686,0.0-19.0-0.0-0.54,A25OK203N0QYH2,30UZJB2PPKSSO21QHKUJ0S8JS3B35M,3QHK8ZVMIQYEF56IE2UYOKYFWX9BLR,3,4
55,2,object_03,object_09,547.04999993555,3,1,228.54999999981,0.4444444444444444,1,object_04,5,695,0,4,3,forest_5,2,memory-2step-stake-s,588,1657550,0.0-19.0-0.0-0.55,A25OK203N0QYH2,30UZJB2PPKSSO21QHKUJ0S8JS3B35M,3QHK8ZVMIQYEF56IE2UYOKYFWX9BLR,3,4
56,2,object_03,object_09,657.65999990981,3,1,116.24499992467,0.7777777777777778,1,object_04,5,730,0,7,5,forest_5,2,memory-2step-stake-s,589,1665604,0.0-19.0-0.0-0.56,A25OK203N0QYH2,30UZJB2PPKSSO21QHKUJ0S8JS3B35M,3QHK8ZVMIQYEF56IE2UYOKYFWX9BLR,3,4
57,2,object_09,object_03,571.51499995962,3,2,193.42000002507,0.7777777777777778,1,object_04,5,765,0,7,4,forest_4,2,memory-2step-stake-s,590,1673736,0.0-19.0-0.0-0.57,A25OK203N0QYH2,30UZJB2PPKSSO21QHKUJ0S8JS3B35M,3QHK8ZVMIQYEF56IE2UYOKYFWX9BLR,4,3
58,3,object_01,object_08,1053.9700000081,5,1,79.729999997653,0.8888888888888888,1,object_04,1,773,0,8,2,library_4,2,memory-2step-stake-s,591,1681860,0.0-19.0-0.0-0.58,A25OK203N0QYH2,30UZJB2PPKSSO21QHKUJ0S8JS3B35M,3QHK8ZVMIQYEF56IE2UYOKYFWX9BLR,5,6
59,2,object_03,object_09,623.82499990053,3,1,236.82999995071,0.6666666666666666,1,object_04,5,803,0,6,2,forest_3,2,memory-2step-stake-s,592,1689933,0.0-19.0-0.0-0.59,A25OK203N0QYH2,30UZJB2PPKSSO21QHKUJ0S8JS3B35M,3QHK8ZVMIQYEF56IE2UYOKYFWX9BLR,3,4
60,4,object_10,object_02,562.40000005346,7,2,235.92000000644,0.4444444444444444,1,object_04,1,807,0,4,1,restaurant_1,2,memory-2step-stake-s,593,1697808,0.0-19.0-0.0-0.60,A25OK203N0QYH2,30UZJB2PPKSSO21QHKUJ0S8JS3B35M,3QHK8ZVMIQYEF56IE2UYOKYFWX9BLR,8,7
61,2,object_09,object_03,736.44999996759,3,2,295.08499999065,0.4444444444444444,1,object_04,5,827,0,4,2,forest_2,2,memory-2step-stake-s,594,1705728,0.0-19.0-0.0-0.61,A25OK203N0QYH2,30UZJB2PPKSSO21QHKUJ0S8JS3B35M,3QHK8ZVMIQYEF56IE2UYOKYFWX9BLR,4,3
62,4,object_02,object_10,708.91999988817,7,1,263.84500006679,0.4444444444444444,1,object_04,5,847,0,4,0,restaurant_2,2,memory-2step-stake-s,595,1713610,0.0-19.0-0.0-0.62,A25OK203N0QYH2,30UZJB2PPKSSO21QHKUJ0S8JS3B35M,3QHK8ZVMIQYEF56IE2UYOKYFWX9BLR,7,8
63,1,object_07,object_06,1038.040000014,1,2,241.91500002053,0.2222222222222222,1,object_04,5,857,0,2,0,desert_7,2,memory-2step-stake-s,596,1721267,0.0-19.0-0.0-0.63,A25OK203N0QYH2,30UZJB2PPKSSO21QHKUJ0S8JS3B35M,3QHK8ZVMIQYEF56IE2UYOKYFWX9BLR,2,1
64,1,object_06,object_07,1229.1950000217,1,1,158.59500004444,0.1111111111111111,1,object_04,5,862,0,1,4,desert_7,2,memory-2step-stake-s,597,1728743,0.0-19.0-0.0-0.64,A25OK203N0QYH2,30UZJB2PPKSSO21QHKUJ0S8JS3B35M,3QHK8ZVMIQYEF56IE2UYOKYFWX9BLR,1,2
65,2,object_03,object_09,765.1949999854,3,1,217.13500004262,0.5555555555555556,1,object_04,5,887,0,5,6,forest_4,2,memory-2step-stake-s,598,1736682,0.0-19.0-0.0-0.65,A25OK203N0QYH2,30UZJB2PPKSSO21QHKUJ0S8JS3B35M,3QHK8ZVMIQYEF56IE2UYOKYFWX9BLR,3,4
66,1,object_06,object_07,926.79000005592,2,2,199.21999995131,0.8888888888888888,2,object_05,5,927,0,7,8,desert_5,2,memory-2step-stake-s,599,1744904,0.0-19.0-0.0-0.66,A25OK203N0QYH2,30UZJB2PPKSSO21QHKUJ0S8JS3B35M,3QHK8ZVMIQYEF56IE2UYOKYFWX9BLR,1,2
67,3,object_08,object_01,1004.5849999879,5,2,239.80999994092,0.5555555555555556,1,object_04,1,932,0,5,6,library_8,2,memory-2step-stake-s,600,1752879,0.0-19.0-0.0-0.67,A25OK203N0QYH2,30UZJB2PPKSSO21QHKUJ0S8JS3B35M,3QHK8ZVMIQYEF56IE2UYOKYFWX9BLR,6,5
68,3,object_01,object_08,1459.3200000236,5,1,532.81999996398,0.3333333333333333,1,object_04,1,935,0,3,5,library_1,2,memory-2step-stake-s,601,1760942,0.0-19.0-0.0-0.68,A25OK203N0QYH2,30UZJB2PPKSSO21QHKUJ0S8JS3B35M,3QHK8ZVMIQYEF56IE2UYOKYFWX9BLR,5,6
69,2,object_09,object_03,757.6499999268,3,2,234.91999995895,0.1111111111111111,1,object_04,5,940,0,1,4,forest_3,2,memory-2step-stake-s,602,1768496,0.0-19.0-0.0-0.69,A25OK203N0QYH2,30UZJB2PPKSSO21QHKUJ0S8JS3B35M,3QHK8ZVMIQYEF56IE2UYOKYFWX9BLR,4,3
70,4,object_10,object_02,808.19999997038,7,2,233.57000004034,0.1111111111111111,1,object_04,1,941,0,1,5,restaurant_2,2,memory-2step-stake-s,603,1776088,0.0-19.0-0.0-0.70,A25OK203N0QYH2,30UZJB2PPKSSO21QHKUJ0S8JS3B35M,3QHK8ZVMIQYEF56IE2UYOKYFWX9BLR,8,7
71,4,object_10,object_02,829.12999996915,8,1,54.510000045411,0.1111111111111111,2,object_05,5,946,0,0,1,restaurant_7,2,memory-2step-stake-s,604,1783484,0.0-19.0-0.0-0.71,A25OK203N0QYH2,30UZJB2PPKSSO21QHKUJ0S8JS3B35M,3QHK8ZVMIQYEF56IE2UYOKYFWX9BLR,8,7
72,2,object_09,object_03,1133.1200000132,4,1,305.91999995522,0.2222222222222222,2,object_05,5,956,0,1,2,forest_2,2,memory-2step-stake-s,605,1791215,0.0-19.0-0.0-0.72,A25OK203N0QYH2,30UZJB2PPKSSO21QHKUJ0S8JS3B35M,3QHK8ZVMIQYEF56IE2UYOKYFWX9BLR,4,3
73,3,object_01,object_08,1032.5200000079,6,2,275.81999998074,0.3333333333333333,2,object_05,5,971,0,1,3,library_4,2,memory-2step-stake-s,606,1799017,0.0-19.0-0.0-0.73,A25OK203N0QYH2,30UZJB2PPKSSO21QHKUJ0S8JS3B35M,3QHK8ZVMIQYEF56IE2UYOKYFWX9BLR,5,6
74,1,object_06,object_07,1183.4650000092,2,2,206.57000003848,0.2222222222222222,2,object_05,5,981,0,3,2,desert_7,2,memory-2step-stake-s,607,1806651,0.0-19.0-0.0-0.74,A25OK203N0QYH2,30UZJB2PPKSSO21QHKUJ0S8JS3B35M,3QHK8ZVMIQYEF56IE2UYOKYFWX9BLR,1,2
75,2,object_09,object_03,1208.5150000639,4,1,304.67500002123,0.0,2,object_05,5,981,0,2,0,forest_5,2,memory-2step-stake-s,608,1814177,0.0-19.0-0.0-0.75,A25OK203N0QYH2,30UZJB2PPKSSO21QHKUJ0S8JS3B35M,3QHK8ZVMIQYEF56IE2UYOKYFWX9BLR,4,3
76,3,object_08,object_01,1067.7399999695,5,2,380.83000003826,0.1111111111111111,1,object_04,1,982,0,1,1,library_8,2,memory-2step-stake-s,609,1821881,0.0-19.0-0.0-0.76,A25OK203N0QYH2,30UZJB2PPKSSO21QHKUJ0S8JS3B35M,3QHK8ZVMIQYEF56IE2UYOKYFWX9BLR,6,5
77,1,object_06,object_07,1416.5149999317,2,2,367.87499999627,0.1111111111111111,2,object_05,5,987,0,5,1,desert_8,2,memory-2step-stake-s,610,1829574,0.0-19.0-0.0-0.77,A25OK203N0QYH2,30UZJB2PPKSSO21QHKUJ0S8JS3B35M,3QHK8ZVMIQYEF56IE2UYOKYFWX9BLR,1,2
78,4,object_02,object_10,1016.4649999933,8,2,43.63500000909,0.4444444444444444,2,object_05,5,1007,0,5,4,restaurant_1,2,memory-2step-stake-s,611,1837247,0.0-19.0-0.0-0.78,A25OK203N0QYH2,30UZJB2PPKSSO21QHKUJ0S8JS3B35M,3QHK8ZVMIQYEF56IE2UYOKYFWX9BLR,7,8
79,3,object_01,object_08,974.4499999797,6,2,252.08500004373,0.1111111111111111,2,object_05,1,1008,0,8,1,library_8,2,memory-2step-stake-s,612,1844826,0.0-19.0-0.0-0.79,A25OK203N0QYH2,30UZJB2PPKSSO21QHKUJ0S8JS3B35M,3QHK8ZVMIQYEF56IE2UYOKYFWX9BLR,5,6
80,3,object_01,object_08,1110.3099999018,5,1,331.34999999311,0.6666666666666666,1,object_04,5,1038,0,6,3,library_8,2,memory-2step-stake-s,613,1852979,0.0-19.0-0.0-0.80,A25OK203N0QYH2,30UZJB2PPKSSO21QHKUJ0S8JS3B35M,3QHK8ZVMIQYEF56IE2UYOKYFWX9BLR,5,6
81,1,object_06,object_07,973.37499994319,2,2,347.04499994405,0.3333333333333333,2,object_05,5,1053,0,7,3,desert_7,2,memory-2step-stake-s,614,1860852,0.0-19.0-0.0-0.81,A25OK203N0QYH2,30UZJB2PPKSSO21QHKUJ0S8JS3B35M,3QHK8ZVMIQYEF56IE2UYOKYFWX9BLR,1,2
82,4,object_10,object_02,878.23000003118,8,1,317.63499998488,0.3333333333333333,2,object_05,5,1068,0,7,3,restaurant_2,2,memory-2step-stake-s,615,1868701,0.0-19.0-0.0-0.82,A25OK203N0QYH2,30UZJB2PPKSSO21QHKUJ0S8JS3B35M,3QHK8ZVMIQYEF56IE2UYOKYFWX9BLR,8,7
83,4,object_02,object_10,767.7749999566,8,2,371.51500000618,0.3333333333333333,2,object_05,1,1071,0,7,3,restaurant_1,2,memory-2step-stake-s,616,1876599,0.0-19.0-0.0-0.83,A25OK203N0QYH2,30UZJB2PPKSSO21QHKUJ0S8JS3B35M,3QHK8ZVMIQYEF56IE2UYOKYFWX9BLR,7,8
84,1,object_07,object_06,1006.9699999876,2,1,326.49500004482,0.2222222222222222,2,object_05,5,1081,0,8,2,desert_7,2,memory-2step-stake-s,617,1884353,0.0-19.0-0.0-0.84,A25OK203N0QYH2,30UZJB2PPKSSO21QHKUJ0S8JS3B35M,3QHK8ZVMIQYEF56IE2UYOKYFWX9BLR,2,1
85,3,object_08,object_01,999.17500000447,6,1,315.35499996971,0.5555555555555556,2,object_05,1,1086,0,6,5,library_2,2,memory-2step-stake-s,618,1892400,0.0-19.0-0.0-0.85,A25OK203N0QYH2,30UZJB2PPKSSO21QHKUJ0S8JS3B35M,3QHK8ZVMIQYEF56IE2UYOKYFWX9BLR,6,5
86,3,object_08,object_01,924.8249999946,6,1,442.4299999373,0.3333333333333333,2,object_05,5,1101,0,5,3,library_8,2,memory-2step-stake-s,619,1900365,0.0-19.0-0.0-0.86,A25OK203N0QYH2,30UZJB2PPKSSO21QHKUJ0S8JS3B35M,3QHK8ZVMIQYEF56IE2UYOKYFWX9BLR,6,5
87,3,object_08,object_01,1202.3499999195,6,1,302.00999998488,0.3333333333333333,2,object_05,1,1104,0,5,3,library_4,2,memory-2step-stake-s,620,1908199,0.0-19.0-0.0-0.87,A25OK203N0QYH2,30UZJB2PPKSSO21QHKUJ0S8JS3B35M,3QHK8ZVMIQYEF56IE2UYOKYFWX9BLR,6,5
88,4,object_10,object_02,844.4699998945,8,1,257.21499999054,0.3333333333333333,2,object_05,5,1119,0,4,3,restaurant_8,2,memory-2step-stake-s,621,1915981,0.0-19.0-0.0-0.88,A25OK203N0QYH2,30UZJB2PPKSSO21QHKUJ0S8JS3B35M,3QHK8ZVMIQYEF56IE2UYOKYFWX9BLR,8,7
89,1,object_06,object_07,879.97499993071,2,2,648.11000006739,0.0,2,object_05,5,1119,0,4,0,desert_7,2,memory-2step-stake-s,622,1923848,0.0-19.0-0.0-0.89,A25OK203N0QYH2,30UZJB2PPKSSO21QHKUJ0S8JS3B35M,3QHK8ZVMIQYEF56IE2UYOKYFWX9BLR,1,2
90,3,object_08,object_01,676.16000003181,6,1,244.53999998514,0.3333333333333333,2,object_05,1,1122,0,4,3,library_8,2,memory-2step-stake-s,623,1931616,0.0-19.0-0.0-0.90,A25OK203N0QYH2,30UZJB2PPKSSO21QHKUJ0S8JS3B35M,3QHK8ZVMIQYEF56IE2UYOKYFWX9BLR,6,5
91,1,object_07,object_06,899.77500005625,1,2,330.43500001077,0.3333333333333333,1,object_04,5,1137,0,3,5,desert_8,2,memory-2step-stake-s,624,1939470,0.0-19.0-0.0-0.91,A25OK203N0QYH2,30UZJB2PPKSSO21QHKUJ0S8JS3B35M,3QHK8ZVMIQYEF56IE2UYOKYFWX9BLR,2,1
92,1,object_07,object_06,1331.6799999448,1,2,461.58500004094,0.4444444444444444,1,object_04,5,1157,0,4,8,desert_5,2,memory-2step-stake-s,625,1947561,0.0-19.0-0.0-0.92,A25OK203N0QYH2,30UZJB2PPKSSO21QHKUJ0S8JS3B35M,3QHK8ZVMIQYEF56IE2UYOKYFWX9BLR,2,1
93,4,object_10,object_02,1121.0699999938,8,1,417.41500003263,0.5555555555555556,2,object_05,1,1162,0,3,5,restaurant_7,2,memory-2step-stake-s,626,1955702,0.0-19.0-0.0-0.93,A25OK203N0QYH2,30UZJB2PPKSSO21QHKUJ0S8JS3B35M,3QHK8ZVMIQYEF56IE2UYOKYFWX9BLR,8,7
94,1,object_06,object_07,1084.0300000273,2,2,367.31000000145,0.6666666666666666,2,object_05,1,1168,0,1,6,desert_4,2,memory-2step-stake-s,627,1963901,0.0-19.0-0.0-0.94,A25OK203N0QYH2,30UZJB2PPKSSO21QHKUJ0S8JS3B35M,3QHK8ZVMIQYEF56IE2UYOKYFWX9BLR,1,2
95,3,object_01,object_08,897.68499997444,6,2,418.04000001866,0.5555555555555556,2,object_05,1,1173,0,2,5,library_1,2,memory-2step-stake-s,628,1972045,0.0-19.0-0.0-0.95,A25OK203N0QYH2,30UZJB2PPKSSO21QHKUJ0S8JS3B35M,3QHK8ZVMIQYEF56IE2UYOKYFWX9BLR,5,6
96,4,object_02,object_10,647.07500010263,8,2,311.57500005793,0.4444444444444444,2,object_05,5,1193,0,2,4,restaurant_7,2,memory-2step-stake-s,629,1979981,0.0-19.0-0.0-0.96,A25OK203N0QYH2,30UZJB2PPKSSO21QHKUJ0S8JS3B35M,3QHK8ZVMIQYEF56IE2UYOKYFWX9BLR,7,8
97,3,object_01,object_08,1254.1249999776,6,2,431.39000004157,0.1111111111111111,2,object_05,1,1194,0,3,1,library_2,2,memory-2step-stake-s,630,1987736,0.0-19.0-0.0-0.97,A25OK203N0QYH2,30UZJB2PPKSSO21QHKUJ0S8JS3B35M,3QHK8ZVMIQYEF56IE2UYOKYFWX9BLR,5,6
98,3,object_01,object_08,1258.0449999077,5,1,326.75999996718,0.4444444444444444,1,object_04,1,1198,0,4,2,library_1,2,memory-2step-stake-s,631,1995700,0.0-19.0-0.0-0.98,A25OK203N0QYH2,30UZJB2PPKSSO21QHKUJ0S8JS3B35M,3QHK8ZVMIQYEF56IE2UYOKYFWX9BLR,5,6
99,3,object_01,object_08,762.57999998052,5,1,378.48499999382,0.4444444444444444,1,object_04,1,1202,0,4,1,library_2,2,memory-2step-stake-s,632,2003703,0.0-19.0-0.0-0.99,A25OK203N0QYH2,30UZJB2PPKSSO21QHKUJ0S8JS3B35M,3QHK8ZVMIQYEF56IE2UYOKYFWX9BLR,5,6
100,1,object_06,object_07,1242.6400000695,2,2,447.88500003051,0.3333333333333333,2,object_05,5,1217,0,3,3,desert_4,2,memory-2step-stake-s,633,2011673,0.0-19.0-0.0-0.100,A25OK203N0QYH2,30UZJB2PPKSSO21QHKUJ0S8JS3B35M,3QHK8ZVMIQYEF56IE2UYOKYFWX9BLR,1,2
101,4,object_10,object_02,881.47499994375,8,1,306.05999997351,0.4444444444444444,2,object_05,1,1221,0,6,4,restaurant_7,2,memory-2step-stake-s,634,2019611,0.0-19.0-0.0-0.101,A25OK203N0QYH2,30UZJB2PPKSSO21QHKUJ0S8JS3B35M,3QHK8ZVMIQYEF56IE2UYOKYFWX9BLR,8,7
102,4,object_10,object_02,802.84500005655,8,1,309.5500000054,0.6666666666666666,2,object_05,1,1227,0,7,6,restaurant_8,2,memory-2step-stake-s,635,2027747,0.0-19.0-0.0-0.102,A25OK203N0QYH2,30UZJB2PPKSSO21QHKUJ0S8JS3B35M,3QHK8ZVMIQYEF56IE2UYOKYFWX9BLR,8,7
103,1,object_07,object_06,860.68000004161,2,1,327.24499993492,0.5555555555555556,2,object_05,5,1252,0,9,5,desert_5,2,memory-2step-stake-s,636,2035804,0.0-19.0-0.0-0.103,A25OK203N0QYH2,30UZJB2PPKSSO21QHKUJ0S8JS3B35M,3QHK8ZVMIQYEF56IE2UYOKYFWX9BLR,2,1
104,4,object_02,object_10,815.40999992285,8,2,1281.7100000102,0.3333333333333333,2,object_05,1,1255,0,7,3,restaurant_8,2,memory-2step-stake-s,637,2044611,0.0-19.0-0.0-0.104,A25OK203N0QYH2,30UZJB2PPKSSO21QHKUJ0S8JS3B35M,3QHK8ZVMIQYEF56IE2UYOKYFWX9BLR,7,8
105,3,object_08,object_01,947.12999998592,5,2,348.38500001933,1.0,1,object_04,5,1300,0,9,3,library_8,2,memory-2step-stake-s,638,2053095,0.0-19.0-0.0-0.105,A25OK203N0QYH2,30UZJB2PPKSSO21QHKUJ0S8JS3B35M,3QHK8ZVMIQYEF56IE2UYOKYFWX9BLR,6,5
106,2,object_09,object_03,1348.0550000677,4,1,465.11500002816,0.3333333333333333,2,object_05,5,1315,0,9,3,forest_3,2,memory-2step-stake-s,639,2061082,0.0-19.0-0.0-0.106,A25OK203N0QYH2,30UZJB2PPKSSO21QHKUJ0S8JS3B35M,3QHK8ZVMIQYEF56IE2UYOKYFWX9BLR,4,3
107,4,object_02,object_10,872.55999993067,8,2,340.08500003256,0.3333333333333333,2,object_05,5,1330,0,9,3,restaurant_8,2,memory-2step-stake-s,640,2068949,0.0-19.0-0.0-0.107,A25OK203N0QYH2,30UZJB2PPKSSO21QHKUJ0S8JS3B35M,3QHK8ZVMIQYEF56IE2UYOKYFWX9BLR,7,8
108,1,object_06,object_07,910.91500001494,2,2,656.90499998163,0.3333333333333333,2,object_05,1,1333,0,8,3,desert_8,2,memory-2step-stake-s,641,2077129,0.0-19.0-0.0-0.108,A25OK203N0QYH2,30UZJB2PPKSSO21QHKUJ0S8JS3B35M,3QHK8ZVMIQYEF56IE2UYOKYFWX9BLR,1,2
109,2,object_03,object_09,938.97000001743,4,2,324.55000001937,0.4444444444444444,2,object_05,1,1337,0,7,4,forest_2,2,memory-2step-stake-s,642,2085073,0.0-19.0-0.0-0.109,A25OK203N0QYH2,30UZJB2PPKSSO21QHKUJ0S8JS3B35M,3QHK8ZVMIQYEF56IE2UYOKYFWX9BLR,3,4
110,1,object_07,object_06,853.37499994785,2,1,975.28999997303,0.3333333333333333,2,object_05,5,1352,0,9,3,desert_4,2,memory-2step-stake-s,643,2093575,0.0-19.0-0.0-0.110,A25OK203N0QYH2,30UZJB2PPKSSO21QHKUJ0S8JS3B35M,3QHK8ZVMIQYEF56IE2UYOKYFWX9BLR,2,1
111,4,object_10,object_02,823.34500004072,8,1,605.05999997258,0.6666666666666666,2,object_05,1,1358,0,9,6,restaurant_2,2,memory-2step-stake-s,644,2102034,0.0-19.0-0.0-0.111,A25OK203N0QYH2,30UZJB2PPKSSO21QHKUJ0S8JS3B35M,3QHK8ZVMIQYEF56IE2UYOKYFWX9BLR,8,7
112,3,object_08,object_01,801.21499998495,5,2,620.4349999316,0.8888888888888888,1,object_04,1,1366,0,8,4,library_4,2,memory-2step-stake-s,645,2110697,0.0-19.0-0.0-0.112,A25OK203N0QYH2,30UZJB2PPKSSO21QHKUJ0S8JS3B35M,3QHK8ZVMIQYEF56IE2UYOKYFWX9BLR,6,5
113,2,object_09,object_03,1307.9399999697,4,1,395.32500004862,0.4444444444444444,2,object_05,5,1386,0,8,4,forest_5,2,memory-2step-stake-s,646,2118726,0.0-19.0-0.0-0.113,A25OK203N0QYH2,30UZJB2PPKSSO21QHKUJ0S8JS3B35M,3QHK8ZVMIQYEF56IE2UYOKYFWX9BLR,4,3
114,4,object_10,object_02,818.90499999281,8,1,351.30500001833,0.5555555555555556,2,object_05,5,1411,0,9,5,restaurant_8,2,memory-2step-stake-s,647,2126814,0.0-19.0-0.0-0.114,A25OK203N0QYH2,30UZJB2PPKSSO21QHKUJ0S8JS3B35M,3QHK8ZVMIQYEF56IE2UYOKYFWX9BLR,8,7
115,4,object_10,object_02,981.31000006106,8,1,604.94500002824,0.3333333333333333,2,object_05,1,1414,0,7,3,restaurant_7,2,memory-2step-stake-s,648,2134950,0.0-19.0-0.0-0.115,A25OK203N0QYH2,30UZJB2PPKSSO21QHKUJ0S8JS3B35M,3QHK8ZVMIQYEF56IE2UYOKYFWX9BLR,8,7
116,1,object_06,object_07,1007.340000011,2,2,596.03999997489,0.6666666666666666,2,object_05,5,1444,0,9,6,desert_7,2,memory-2step-stake-s,649,2143384,0.0-19.0-0.0-0.116,A25OK203N0QYH2,30UZJB2PPKSSO21QHKUJ0S8JS3B35M,3QHK8ZVMIQYEF56IE2UYOKYFWX9BLR,1,2
117,4,object_02,object_10,650.32500005327,8,2,615.65499997232,0.2222222222222222,2,object_05,1,1446,0,7,2,restaurant_1,2,memory-2step-stake-s,650,2151425,0.0-19.0-0.0-0.117,A25OK203N0QYH2,30UZJB2PPKSSO21QHKUJ0S8JS3B35M,3QHK8ZVMIQYEF56IE2UYOKYFWX9BLR,7,8
118,4,object_02,object_10,687.19500000589,8,2,801.7000000691,0.2222222222222222,2,object_05,1,1448,0,7,2,restaurant_7,2,memory-2step-stake-s,651,2159649,0.0-19.0-0.0-0.118,A25OK203N0QYH2,30UZJB2PPKSSO21QHKUJ0S8JS3B35M,3QHK8ZVMIQYEF56IE2UYOKYFWX9BLR,7,8
119,1,object_06,object_07,915.82500003278,2,2,453.78499990329,0.1111111111111111,2,object_05,1,1449,0,8,1,desert_8,2,memory-2step-stake-s,652,2167429,0.0-19.0-0.0-0.119,A25OK203N0QYH2,30UZJB2PPKSSO21QHKUJ0S8JS3B35M,3QHK8ZVMIQYEF56IE2UYOKYFWX9BLR,1,2
120,3,object_01,object_08,1086.1199999927,5,1,599.99500005506,1.0,1,object_04,5,1494,0,9,0,library_1,2,memory-2step-stake-s,653,2176163,0.0-19.0-0.0-0.120,A25OK203N0QYH2,30UZJB2PPKSSO21QHKUJ0S8JS3B35M,3QHK8ZVMIQYEF56IE2UYOKYFWX9BLR,5,6
121,2,object_03,object_09,946.80000003427,4,2,344.29999999702,0.0,2,object_05,5,1494,0,9,0,forest_3,2,memory-2step-stake-s,654,2183735,0.0-19.0-0.0-0.121,A25OK203N0QYH2,30UZJB2PPKSSO21QHKUJ0S8JS3B35M,3QHK8ZVMIQYEF56IE2UYOKYFWX9BLR,3,4
122,2,object_09,object_03,591.89000003971,4,1,435.48999994528,0.1111111111111111,2,object_05,1,1495,0,8,1,forest_2,2,memory-2step-stake-s,655,2191489,0.0-19.0-0.0-0.122,A25OK203N0QYH2,30UZJB2PPKSSO21QHKUJ0S8JS3B35M,3QHK8ZVMIQYEF56IE2UYOKYFWX9BLR,4,3
123,3,object_01,object_08,1277.0500000333,5,1,394.94500006549,0.7777777777777778,1,object_04,1,1502,0,7,4,library_1,2,memory-2step-stake-s,656,2199812,0.0-19.0-0.0-0.123,A25OK203N0QYH2,30UZJB2PPKSSO21QHKUJ0S8JS3B35M,3QHK8ZVMIQYEF56IE2UYOKYFWX9BLR,5,6
124,2,object_03,object_09,1088.2849999471,3,1,481.42999992706,0.8888888888888888,1,object_04,5,1542,0,8,5,forest_4,2,memory-2step-stake-s,657,2208328,0.0-19.0-0.0-0.124,A25OK203N0QYH2,30UZJB2PPKSSO21QHKUJ0S8JS3B35M,3QHK8ZVMIQYEF56IE2UYOKYFWX9BLR,3,4
125,4,object_10,object_02,1060.2499999804,8,1,413.91999996267,0.6666666666666666,2,object_05,1,1548,0,8,6,restaurant_2,2,memory-2step-stake-s,658,2216575,0.0-19.0-0.0-0.125,A25OK203N0QYH2,30UZJB2PPKSSO21QHKUJ0S8JS3B35M,3QHK8ZVMIQYEF56IE2UYOKYFWX9BLR,8,7
126,4,object_02,object_10,985.1900000358,8,2,337.53499994054,0.5555555555555556,2,object_05,5,1573,0,6,5,restaurant_2,2,memory-2step-stake-s,659,2224653,0.0-19.0-0.0-0.126,A25OK203N0QYH2,30UZJB2PPKSSO21QHKUJ0S8JS3B35M,3QHK8ZVMIQYEF56IE2UYOKYFWX9BLR,7,8
127,1,object_07,object_06,783.4149999544,2,1,403.35499995854,0.1111111111111111,2,object_05,5,1578,0,8,1,desert_8,2,memory-2step-stake-s,660,2232388,0.0-19.0-0.0-0.127,A25OK203N0QYH2,30UZJB2PPKSSO21QHKUJ0S8JS3B35M,3QHK8ZVMIQYEF56IE2UYOKYFWX9BLR,2,1
128,1,object_06,object_07,1253.2649999484,2,2,379.09499998204,0.2222222222222222,2,object_05,5,1588,0,8,2,desert_4,2,memory-2step-stake-s,662,2524417,0.0-19.0-0.1-0.128,A25OK203N0QYH2,30UZJB2PPKSSO21QHKUJ0S8JS3B35M,3QHK8ZVMIQYEF56IE2UYOKYFWX9BLR,1,2
129,1,object_07,object_06,871.32999999449,2,1,212.67499995884,0.2222222222222222,2,object_05,5,1598,0,6,2,desert_8,2,memory-2step-stake-s,663,2532060,0.0-19.0-0.1-0.129,A25OK203N0QYH2,30UZJB2PPKSSO21QHKUJ0S8JS3B35M,3QHK8ZVMIQYEF56IE2UYOKYFWX9BLR,2,1
130,4,object_02,object_10,1176.795000094,8,2,229.50999997556,0.3333333333333333,2,object_05,5,1613,0,4,3,restaurant_8,2,memory-2step-stake-s,664,2539817,0.0-19.0-0.1-0.130,A25OK203N0QYH2,30UZJB2PPKSSO21QHKUJ0S8JS3B35M,3QHK8ZVMIQYEF56IE2UYOKYFWX9BLR,7,8
131,3,object_01,object_08,921.18499998469,5,1,247.21499998122,0.3333333333333333,1,object_04,1,1616,0,3,4,library_8,2,memory-2step-stake-s,665,2547603,0.0-19.0-0.1-0.131,A25OK203N0QYH2,30UZJB2PPKSSO21QHKUJ0S8JS3B35M,3QHK8ZVMIQYEF56IE2UYOKYFWX9BLR,5,6
132,4,object_10,object_02,834.70499992836,7,2,209.55000002868,0.2222222222222222,1,object_04,5,1626,0,2,4,restaurant_1,2,memory-2step-stake-s,666,2555241,0.0-19.0-0.1-0.132,A25OK203N0QYH2,30UZJB2PPKSSO21QHKUJ0S8JS3B35M,3QHK8ZVMIQYEF56IE2UYOKYFWX9BLR,8,7
133,2,object_09,object_03,1011.2500000978,3,2,270.12000000104,0.2222222222222222,1,object_04,1,1628,0,2,1,forest_3,2,memory-2step-stake-s,667,2562947,0.0-19.0-0.1-0.133,A25OK203N0QYH2,30UZJB2PPKSSO21QHKUJ0S8JS3B35M,3QHK8ZVMIQYEF56IE2UYOKYFWX9BLR,4,3
134,4,object_10,object_02,1206.0300000012,8,1,247.50499997754,0.2222222222222222,2,object_05,5,1638,0,5,2,restaurant_7,2,memory-2step-stake-s,668,2570634,0.0-19.0-0.1-0.134,A25OK203N0QYH2,30UZJB2PPKSSO21QHKUJ0S8JS3B35M,3QHK8ZVMIQYEF56IE2UYOKYFWX9BLR,8,7
135,2,object_03,object_09,847.66999993008,3,1,300.21999997552,0.1111111111111111,1,object_04,1,1639,0,1,0,forest_5,2,memory-2step-stake-s,669,2578260,0.0-19.0-0.1-0.135,A25OK203N0QYH2,30UZJB2PPKSSO21QHKUJ0S8JS3B35M,3QHK8ZVMIQYEF56IE2UYOKYFWX9BLR,3,4
136,4,object_02,object_10,1332.1800000267,7,1,332.65500003472,0.1111111111111111,1,object_04,5,1644,0,1,0,restaurant_2,2,memory-2step-stake-s,670,2585928,0.0-19.0-0.1-0.136,A25OK203N0QYH2,30UZJB2PPKSSO21QHKUJ0S8JS3B35M,3QHK8ZVMIQYEF56IE2UYOKYFWX9BLR,7,8
137,2,object_09,object_03,1229.9799999455,4,1,292.97499998938,0.4444444444444444,2,object_05,5,1664,0,6,4,forest_2,2,memory-2step-stake-s,671,2593861,0.0-19.0-0.1-0.137,A25OK203N0QYH2,30UZJB2PPKSSO21QHKUJ0S8JS3B35M,3QHK8ZVMIQYEF56IE2UYOKYFWX9BLR,4,3
138,3,object_01,object_08,821.92000001669,5,1,202.20000005793,0.7777777777777778,1,object_04,1,1671,0,7,1,library_8,2,memory-2step-stake-s,672,2602011,0.0-19.0-0.1-0.138,A25OK203N0QYH2,30UZJB2PPKSSO21QHKUJ0S8JS3B35M,3QHK8ZVMIQYEF56IE2UYOKYFWX9BLR,5,6
139,2,object_09,object_03,990.25999999139,4,1,579.75999999326,0.1111111111111111,2,object_05,5,1676,0,8,1,forest_4,2,memory-2step-stake-s,673,2609917,0.0-19.0-0.1-0.139,A25OK203N0QYH2,30UZJB2PPKSSO21QHKUJ0S8JS3B35M,3QHK8ZVMIQYEF56IE2UYOKYFWX9BLR,4,3
140,3,object_01,object_08,698.82000004873,5,1,268.22000008542,0.8888888888888888,1,object_04,1,1684,0,8,1,library_4,2,memory-2step-stake-s,674,2618221,0.0-19.0-0.1-0.140,A25OK203N0QYH2,30UZJB2PPKSSO21QHKUJ0S8JS3B35M,3QHK8ZVMIQYEF56IE2UYOKYFWX9BLR,5,6
141,1,object_06,object_07,956.20999997482,2,2,378.43500007875,0.3333333333333333,2,object_05,5,1699,0,7,3,desert_5,2,memory-2step-stake-s,675,2626137,0.0-19.0-0.1-0.141,A25OK203N0QYH2,30UZJB2PPKSSO21QHKUJ0S8JS3B35M,3QHK8ZVMIQYEF56IE2UYOKYFWX9BLR,1,2
142,2,object_03,object_09,1062.4100000132,4,2,347.16000000481,0.1111111111111111,2,object_05,5,1704,0,9,1,forest_3,2,memory-2step-stake-s,676,2633813,0.0-19.0-0.1-0.142,A25OK203N0QYH2,30UZJB2PPKSSO21QHKUJ0S8JS3B35M,3QHK8ZVMIQYEF56IE2UYOKYFWX9BLR,3,4
143,4,object_10,object_02,1255.4600000149,8,1,362.73499997333,0.0,2,object_05,5,1704,0,8,0,restaurant_8,2,memory-2step-stake-s,677,2641399,0.0-19.0-0.1-0.143,A25OK203N0QYH2,30UZJB2PPKSSO21QHKUJ0S8JS3B35M,3QHK8ZVMIQYEF56IE2UYOKYFWX9BLR,8,7
144,4,object_10,object_02,577.29500008281,7,2,292.74999990594,0.8888888888888888,1,object_04,1,1712,0,8,2,restaurant_1,2,memory-2step-stake-s,678,2649728,0.0-19.0-0.1-0.144,A25OK203N0QYH2,30UZJB2PPKSSO21QHKUJ0S8JS3B35M,3QHK8ZVMIQYEF56IE2UYOKYFWX9BLR,8,7
145,2,object_09,object_03,1253.1349998899,4,1,341.37999999803,0.4444444444444444,2,object_05,5,1732,0,8,4,forest_2,2,memory-2step-stake-s,679,2657700,0.0-19.0-0.1-0.145,A25OK203N0QYH2,30UZJB2PPKSSO21QHKUJ0S8JS3B35M,3QHK8ZVMIQYEF56IE2UYOKYFWX9BLR,4,3
146,1,object_07,object_06,838.66000000853,2,1,281.94000001531,0.4444444444444444,2,object_05,5,1752,0,8,4,desert_4,2,memory-2step-stake-s,680,2665617,0.0-19.0-0.1-0.146,A25OK203N0QYH2,30UZJB2PPKSSO21QHKUJ0S8JS3B35M,3QHK8ZVMIQYEF56IE2UYOKYFWX9BLR,2,1
147,2,object_03,object_09,904.07499996945,4,2,326.55500003602,0.4444444444444444,2,object_05,5,1772,0,2,4,forest_2,2,memory-2step-stake-s,681,2673576,0.0-19.0-0.1-0.147,A25OK203N0QYH2,30UZJB2PPKSSO21QHKUJ0S8JS3B35M,3QHK8ZVMIQYEF56IE2UYOKYFWX9BLR,3,4
148,4,object_10,object_02,721.47999994922,7,2,236.40000005253,0.5555555555555556,1,object_04,1,1777,0,5,5,restaurant_1,2,memory-2step-stake-s,682,2681554,0.0-19.0-0.1-0.148,A25OK203N0QYH2,30UZJB2PPKSSO21QHKUJ0S8JS3B35M,3QHK8ZVMIQYEF56IE2UYOKYFWX9BLR,8,7
149,3,object_01,object_08,702.83500000369,5,1,293.40999992564,0.6666666666666666,1,object_04,5,1807,0,6,5,library_2,2,memory-2step-stake-s,683,2689690,0.0-19.0-0.1-0.149,A25OK203N0QYH2,30UZJB2PPKSSO21QHKUJ0S8JS3B35M,3QHK8ZVMIQYEF56IE2UYOKYFWX9BLR,5,6
150,4,object_02,object_10,1016.794999945,7,1,325.91000001412,0.8888888888888888,1,object_04,1,1815,0,8,5,restaurant_1,2,memory-2step-stake-s,684,2698054,0.0-19.0-0.1-0.150,A25OK203N0QYH2,30UZJB2PPKSSO21QHKUJ0S8JS3B35M,3QHK8ZVMIQYEF56IE2UYOKYFWX9BLR,7,8
151,3,object_01,object_08,931.37500004377,5,1,301.81500001345,0.7777777777777778,1,object_04,5,1850,0,7,5,library_8,2,memory-2step-stake-s,685,2706295,0.0-19.0-0.1-0.151,A25OK203N0QYH2,30UZJB2PPKSSO21QHKUJ0S8JS3B35M,3QHK8ZVMIQYEF56IE2UYOKYFWX9BLR,5,6
152,2,object_03,object_09,1072.3500000313,4,2,387.35999993514,0.8888888888888888,2,object_05,1,1858,0,7,8,forest_5,2,memory-2step-stake-s,686,2714727,0.0-19.0-0.1-0.152,A25OK203N0QYH2,30UZJB2PPKSSO21QHKUJ0S8JS3B35M,3QHK8ZVMIQYEF56IE2UYOKYFWX9BLR,3,4
153,2,object_09,object_03,946.84500002768,4,1,277.90500002448,0.7777777777777778,2,object_05,1,1865,0,6,7,forest_2,2,memory-2step-stake-s,687,2722946,0.0-19.0-0.1-0.153,A25OK203N0QYH2,30UZJB2PPKSSO21QHKUJ0S8JS3B35M,3QHK8ZVMIQYEF56IE2UYOKYFWX9BLR,4,3
154,4,object_02,object_10,764.44499997888,7,1,307.4000000488,0.8888888888888888,1,object_04,5,1905,0,8,5,restaurant_2,2,memory-2step-stake-s,688,2731289,0.0-19.0-0.1-0.154,A25OK203N0QYH2,30UZJB2PPKSSO21QHKUJ0S8JS3B35M,3QHK8ZVMIQYEF56IE2UYOKYFWX9BLR,7,8
155,1,object_06,object_07,770.32999997027,2,2,300.99999997765,0.2222222222222222,2,object_05,5,1915,0,8,2,desert_8,2,memory-2step-stake-s,689,2739020,0.0-19.0-0.1-0.155,A25OK203N0QYH2,30UZJB2PPKSSO21QHKUJ0S8JS3B35M,3QHK8ZVMIQYEF56IE2UYOKYFWX9BLR,1,2
156,2,object_09,object_03,834.91500001401,4,1,438.31499991938,0.2222222222222222,2,object_05,5,1925,0,9,2,forest_5,2,memory-2step-stake-s,690,2746897,0.0-19.0-0.1-0.156,A25OK203N0QYH2,30UZJB2PPKSSO21QHKUJ0S8JS3B35M,3QHK8ZVMIQYEF56IE2UYOKYFWX9BLR,4,3
157,2,object_09,object_03,688.04000003729,4,1,288.96000003442,0.3333333333333333,2,object_05,5,1940,0,8,3,forest_3,2,memory-2step-stake-s,691,2754718,0.0-19.0-0.1-0.157,A25OK203N0QYH2,30UZJB2PPKSSO21QHKUJ0S8JS3B35M,3QHK8ZVMIQYEF56IE2UYOKYFWX9BLR,4,3
158,1,object_06,object_07,720.51000001375,2,2,347.45000000112,0.5555555555555556,2,object_05,5,1965,0,7,5,desert_5,2,memory-2step-stake-s,692,2762803,0.0-19.0-0.1-0.158,A25OK203N0QYH2,30UZJB2PPKSSO21QHKUJ0S8JS3B35M,3QHK8ZVMIQYEF56IE2UYOKYFWX9BLR,1,2
159,2,object_09,object_03,760.65499999095,4,1,345.39999999106,0.6666666666666666,2,object_05,5,1995,0,6,6,forest_3,2,memory-2step-stake-s,693,2770983,0.0-19.0-0.1-0.159,A25OK203N0QYH2,30UZJB2PPKSSO21QHKUJ0S8JS3B35M,3QHK8ZVMIQYEF56IE2UYOKYFWX9BLR,4,3
160,4,object_10,object_02,834.8850000184,7,2,319.22499998473,0.5555555555555556,1,object_04,1,2000,0,5,7,restaurant_2,2,memory-2step-stake-s,694,2779035,0.0-19.0-0.1-0.160,A25OK203N0QYH2,30UZJB2PPKSSO21QHKUJ0S8JS3B35M,3QHK8ZVMIQYEF56IE2UYOKYFWX9BLR,8,7
161,4,object_10,object_02,941.55500002671,7,2,335.67500009667,0.5555555555555556,1,object_04,1,2005,0,5,6,restaurant_7,2,memory-2step-stake-s,695,2787103,0.0-19.0-0.1-0.161,A25OK203N0QYH2,30UZJB2PPKSSO21QHKUJ0S8JS3B35M,3QHK8ZVMIQYEF56IE2UYOKYFWX9BLR,8,7
162,1,object_06,object_07,636.49499998428,2,2,279.54000001773,0.5555555555555556,2,object_05,1,2010,0,3,5,desert_8,2,memory-2step-stake-s,696,2795132,0.0-19.0-0.1-0.162,A25OK203N0QYH2,30UZJB2PPKSSO21QHKUJ0S8JS3B35M,3QHK8ZVMIQYEF56IE2UYOKYFWX9BLR,1,2
163,2,object_03,object_09,785.564999911,4,2,282.54499996547,1.0,2,object_05,5,2055,0,3,9,forest_5,2,memory-2step-stake-s,697,2803565,0.0-19.0-0.1-0.163,A25OK203N0QYH2,30UZJB2PPKSSO21QHKUJ0S8JS3B35M,3QHK8ZVMIQYEF56IE2UYOKYFWX9BLR,3,4
164,2,object_03,object_09,794.05999998562,4,2,245.71499996819,1.0,2,object_05,1,2064,0,3,9,forest_4,2,memory-2step-stake-s,698,2811951,0.0-19.0-0.1-0.164,A25OK203N0QYH2,30UZJB2PPKSSO21QHKUJ0S8JS3B35M,3QHK8ZVMIQYEF56IE2UYOKYFWX9BLR,3,4
165,3,object_01,object_08,701.61500002723,5,1,234.03999989387,0.0,1,object_04,1,2064,0,0,7,library_1,2,memory-2step-stake-s,699,2819416,0.0-19.0-0.1-0.165,A25OK203N0QYH2,30UZJB2PPKSSO21QHKUJ0S8JS3B35M,3QHK8ZVMIQYEF56IE2UYOKYFWX9BLR,5,6
166,3,object_01,object_08,1153.6000000779,5,1,248.71000007261,0.2222222222222222,1,object_04,1,2066,0,2,7,library_4,2,memory-2step-stake-s,700,2827097,0.0-19.0-0.1-0.166,A25OK203N0QYH2,30UZJB2PPKSSO21QHKUJ0S8JS3B35M,3QHK8ZVMIQYEF56IE2UYOKYFWX9BLR,5,6
167,3,object_08,object_01,1169.9450000888,6,1,386.66499999817,0.5555555555555556,2,object_05,1,2071,0,1,5,library_4,2,memory-2step-stake-s,701,2835218,0.0-19.0-0.1-0.167,A25OK203N0QYH2,30UZJB2PPKSSO21QHKUJ0S8JS3B35M,3QHK8ZVMIQYEF56IE2UYOKYFWX9BLR,6,5
168,1,object_07,object_06,985.89500004891,2,1,345.27499997057,0.5555555555555556,2,object_05,5,2096,0,1,5,desert_7,2,memory-2step-stake-s,702,2843302,0.0-19.0-0.1-0.168,A25OK203N0QYH2,30UZJB2PPKSSO21QHKUJ0S8JS3B35M,3QHK8ZVMIQYEF56IE2UYOKYFWX9BLR,2,1
169,3,object_01,object_08,917.37000003923,6,2,287.83499996644,0.3333333333333333,2,object_05,1,2099,0,4,3,library_4,2,memory-2step-stake-s,703,2851125,0.0-19.0-0.1-0.169,A25OK203N0QYH2,30UZJB2PPKSSO21QHKUJ0S8JS3B35M,3QHK8ZVMIQYEF56IE2UYOKYFWX9BLR,5,6
170,4,object_02,object_10,814.59999992512,7,1,423.19999996107,0.1111111111111111,1,object_04,1,2100,0,1,5,restaurant_2,2,memory-2step-stake-s,704,2858874,0.0-19.0-0.1-0.170,A25OK203N0QYH2,30UZJB2PPKSSO21QHKUJ0S8JS3B35M,3QHK8ZVMIQYEF56IE2UYOKYFWX9BLR,7,8
171,1,object_06,object_07,730.85000005085,2,2,284.88499997184,0.5555555555555556,2,object_05,5,2125,0,0,5,desert_8,2,memory-2step-stake-s,705,2866895,0.0-19.0-0.1-0.171,A25OK203N0QYH2,30UZJB2PPKSSO21QHKUJ0S8JS3B35M,3QHK8ZVMIQYEF56IE2UYOKYFWX9BLR,1,2
172,4,object_10,object_02,965.66999994684,7,2,341.33500000462,0.3333333333333333,1,object_04,1,2128,0,3,5,restaurant_8,2,memory-2step-stake-s,706,2874772,0.0-19.0-0.1-0.172,A25OK203N0QYH2,30UZJB2PPKSSO21QHKUJ0S8JS3B35M,3QHK8ZVMIQYEF56IE2UYOKYFWX9BLR,8,7
173,3,object_08,object_01,816.05499994475,6,1,259.19500004966,0.4444444444444444,2,object_05,5,2148,0,2,4,library_4,2,memory-2step-stake-s,707,2882661,0.0-19.0-0.1-0.173,A25OK203N0QYH2,30UZJB2PPKSSO21QHKUJ0S8JS3B35M,3QHK8ZVMIQYEF56IE2UYOKYFWX9BLR,6,5
174,2,object_09,object_03,989.26000006031,4,1,273.64500006661,0.6666666666666666,2,object_05,5,2178,0,0,6,forest_4,2,memory-2step-stake-s,708,2890769,0.0-19.0-0.1-0.174,A25OK203N0QYH2,30UZJB2PPKSSO21QHKUJ0S8JS3B35M,3QHK8ZVMIQYEF56IE2UYOKYFWX9BLR,4,3
175,3,object_01,object_08,860.18000007607,6,2,256.08500000089,0.5555555555555556,2,object_05,1,2183,0,0,5,library_4,2,memory-2step-stake-s,709,2898755,0.0-19.0-0.1-0.175,A25OK203N0QYH2,30UZJB2PPKSSO21QHKUJ0S8JS3B35M,3QHK8ZVMIQYEF56IE2UYOKYFWX9BLR,5,6
176,2,object_09,object_03,1188.2650000043,4,1,585.27999999933,0.4444444444444444,2,object_05,5,2203,0,1,4,forest_4,2,memory-2step-stake-s,710,2906969,0.0-19.0-0.1-0.176,A25OK203N0QYH2,30UZJB2PPKSSO21QHKUJ0S8JS3B35M,3QHK8ZVMIQYEF56IE2UYOKYFWX9BLR,4,3
177,1,object_07,object_06,875.27999992017,2,1,267.66000001226,0.4444444444444444,2,object_05,5,2223,0,6,4,desert_5,2,memory-2step-stake-s,711,2914867,0.0-19.0-0.1-0.177,A25OK203N0QYH2,30UZJB2PPKSSO21QHKUJ0S8JS3B35M,3QHK8ZVMIQYEF56IE2UYOKYFWX9BLR,2,1
178,3,object_08,object_01,699.3449999718,6,1,479.2900000466,0.5555555555555556,2,object_05,1,2228,0,5,5,library_2,2,memory-2step-stake-s,712,2923084,0.0-19.0-0.1-0.178,A25OK203N0QYH2,30UZJB2PPKSSO21QHKUJ0S8JS3B35M,3QHK8ZVMIQYEF56IE2UYOKYFWX9BLR,6,5
179,3,object_01,object_08,863.40000003111,6,2,281.66999993846,0.1111111111111111,2,object_05,5,2233,0,2,1,library_1,2,memory-2step-stake-s,713,2930694,0.0-19.0-0.1-0.179,A25OK203N0QYH2,30UZJB2PPKSSO21QHKUJ0S8JS3B35M,3QHK8ZVMIQYEF56IE2UYOKYFWX9BLR,5,6
180,4,object_10,object_02,1394.7850000113,8,1,402.53000007942,0.2222222222222222,2,object_05,1,2235,0,2,2,restaurant_1,2,memory-2step-stake-s,714,2938528,0.0-19.0-0.1-0.180,A25OK203N0QYH2,30UZJB2PPKSSO21QHKUJ0S8JS3B35M,3QHK8ZVMIQYEF56IE2UYOKYFWX9BLR,8,7
181,3,object_08,object_01,803.91500005499,6,1,250.4300000146,0.5555555555555556,2,object_05,1,2240,0,2,5,library_8,2,memory-2step-stake-s,715,2946511,0.0-19.0-0.1-0.181,A25OK203N0QYH2,30UZJB2PPKSSO21QHKUJ0S8JS3B35M,3QHK8ZVMIQYEF56IE2UYOKYFWX9BLR,6,5
182,3,object_01,object_08,845.28000000864,6,2,263.75499996357,0.4444444444444444,2,object_05,1,2244,0,6,4,library_2,2,memory-2step-stake-s,716,2954420,0.0-19.0-0.1-0.182,A25OK203N0QYH2,30UZJB2PPKSSO21QHKUJ0S8JS3B35M,3QHK8ZVMIQYEF56IE2UYOKYFWX9BLR,5,6
183,2,object_03,object_09,832.76499994099,4,2,608.24500001036,0.6666666666666666,2,object_05,5,2274,0,4,6,forest_3,2,memory-2step-stake-s,717,2962868,0.0-19.0-0.1-0.183,A25OK203N0QYH2,30UZJB2PPKSSO21QHKUJ0S8JS3B35M,3QHK8ZVMIQYEF56IE2UYOKYFWX9BLR,3,4
184,3,object_08,object_01,747.46999994386,6,1,326.05999999214,0.8888888888888888,2,object_05,5,2314,0,1,8,library_4,2,memory-2step-stake-s,718,2971233,0.0-19.0-0.1-0.184,A25OK203N0QYH2,30UZJB2PPKSSO21QHKUJ0S8JS3B35M,3QHK8ZVMIQYEF56IE2UYOKYFWX9BLR,6,5
185,1,object_07,object_06,803.74000000302,2,1,288.85000001173,1.0,2,object_05,5,2359,0,0,9,desert_5,2,memory-2step-stake-s,719,2979663,0.0-19.0-0.1-0.185,A25OK203N0QYH2,30UZJB2PPKSSO21QHKUJ0S8JS3B35M,3QHK8ZVMIQYEF56IE2UYOKYFWX9BLR,2,1
186,1,object_06,object_07,740.95000000671,2,2,308.53500007652,0.8888888888888888,2,object_05,1,2367,0,0,8,desert_7,2,memory-2step-stake-s,720,2988014,0.0-19.0-0.1-0.186,A25OK203N0QYH2,30UZJB2PPKSSO21QHKUJ0S8JS3B35M,3QHK8ZVMIQYEF56IE2UYOKYFWX9BLR,1,2
187,4,object_10,object_02,970.45999998227,8,1,394.1900000209,0.8888888888888888,2,object_05,5,2407,0,3,8,restaurant_1,2,memory-2step-stake-s,721,2996446,0.0-19.0-0.1-0.187,A25OK203N0QYH2,30UZJB2PPKSSO21QHKUJ0S8JS3B35M,3QHK8ZVMIQYEF56IE2UYOKYFWX9BLR,8,7
188,4,object_02,object_10,743.62500000279,8,2,327.5249999715,0.8888888888888888,2,object_05,1,2415,0,1,8,restaurant_8,2,memory-2step-stake-s,722,3004812,0.0-19.0-0.1-0.188,A25OK203N0QYH2,30UZJB2PPKSSO21QHKUJ0S8JS3B35M,3QHK8ZVMIQYEF56IE2UYOKYFWX9BLR,7,8
189,2,object_09,object_03,1079.3949998915,4,1,491.97000009008,0.8888888888888888,2,object_05,5,2455,0,1,8,forest_3,2,memory-2step-stake-s,723,3013344,0.0-19.0-0.1-0.189,A25OK203N0QYH2,30UZJB2PPKSSO21QHKUJ0S8JS3B35M,3QHK8ZVMIQYEF56IE2UYOKYFWX9BLR,4,3
190,1,object_07,object_06,693.33999999799,2,1,424.38999994192,0.8888888888888888,2,object_05,1,2463,0,3,8,desert_8,2,memory-2step-stake-s,724,3021808,0.0-19.0-0.1-0.190,A25OK203N0QYH2,30UZJB2PPKSSO21QHKUJ0S8JS3B35M,3QHK8ZVMIQYEF56IE2UYOKYFWX9BLR,2,1
191,4,object_02,object_10,1005.5649999995,8,2,350.25500005577,0.3333333333333333,2,object_05,1,2466,0,3,3,restaurant_8,2,memory-2step-stake-s,725,3029689,0.0-19.0-0.1-0.191,A25OK203N0QYH2,30UZJB2PPKSSO21QHKUJ0S8JS3B35M,3QHK8ZVMIQYEF56IE2UYOKYFWX9BLR,7,8
192,4,object_02,object_10,1181.2200000277,7,1,296.0299999686,0.3333333333333333,1,object_04,1,2469,0,3,4,restaurant_7,2,memory-2step-stake-s,726,3037518,0.0-19.0-0.1-0.192,A25OK203N0QYH2,30UZJB2PPKSSO21QHKUJ0S8JS3B35M,3QHK8ZVMIQYEF56IE2UYOKYFWX9BLR,7,8
193,1,object_07,object_06,884.27000003867,2,1,300.32000003848,0.3333333333333333,2,object_05,5,2484,0,3,3,desert_7,2,memory-2step-stake-s,727,3045349,0.0-19.0-0.1-0.193,A25OK203N0QYH2,30UZJB2PPKSSO21QHKUJ0S8JS3B35M,3QHK8ZVMIQYEF56IE2UYOKYFWX9BLR,2,1
194,4,object_02,object_10,1244.2949999822,8,2,321.00500003435,0.3333333333333333,2,object_05,1,2487,0,3,3,restaurant_2,2,memory-2step-stake-s,728,3053199,0.0-19.0-0.1-0.194,A25OK203N0QYH2,30UZJB2PPKSSO21QHKUJ0S8JS3B35M,3QHK8ZVMIQYEF56IE2UYOKYFWX9BLR,7,8
195,4,object_10,object_02,990.71500007994,8,1,326.0949999094,0.2222222222222222,2,object_05,1,2489,0,7,2,restaurant_7,2,memory-2step-stake-s,729,3060957,0.0-19.0-0.1-0.195,A25OK203N0QYH2,30UZJB2PPKSSO21QHKUJ0S8JS3B35M,3QHK8ZVMIQYEF56IE2UYOKYFWX9BLR,8,7
196,1,object_06,object_07,732.27000003681,2,2,304.52000000514,0.2222222222222222,2,object_05,5,2499,0,4,2,desert_4,2,memory-2step-stake-s,730,3068687,0.0-19.0-0.1-0.196,A25OK203N0QYH2,30UZJB2PPKSSO21QHKUJ0S8JS3B35M,3QHK8ZVMIQYEF56IE2UYOKYFWX9BLR,1,2
197,2,object_03,object_09,891.70500007458,4,2,468.70500000659,0.1111111111111111,2,object_05,5,2504,0,1,1,forest_4,2,memory-2step-stake-s,731,3076482,0.0-19.0-0.1-0.197,A25OK203N0QYH2,30UZJB2PPKSSO21QHKUJ0S8JS3B35M,3QHK8ZVMIQYEF56IE2UYOKYFWX9BLR,3,4
198,3,object_01,object_08,1077.4850000162,6,2,654.97499995399,0.1111111111111111,2,object_05,1,2505,0,6,1,library_2,2,memory-2step-stake-s,732,3084472,0.0-19.0-0.1-0.198,A25OK203N0QYH2,30UZJB2PPKSSO21QHKUJ0S8JS3B35M,3QHK8ZVMIQYEF56IE2UYOKYFWX9BLR,5,6
199,2,object_03,object_09,776.30499994848,3,1,258.54000006802,0.6666666666666666,1,object_04,1,2511,0,6,3,forest_3,2,memory-2step-stake-s,733,3092566,0.0-19.0-0.1-0.199,A25OK203N0QYH2,30UZJB2PPKSSO21QHKUJ0S8JS3B35M,3QHK8ZVMIQYEF56IE2UYOKYFWX9BLR,3,4
200,4,object_10,object_02,1093.3799999766,8,1,373.93000000156,0.3333333333333333,2,object_05,5,2526,0,5,3,restaurant_1,2,memory-2step-stake-s,734,3100468,0.0-19.0-0.1-0.200,A25OK203N0QYH2,30UZJB2PPKSSO21QHKUJ0S8JS3B35M,3QHK8ZVMIQYEF56IE2UYOKYFWX9BLR,8,7
201,1,object_07,object_06,766.59500005189,2,1,392.29999994859,0.3333333333333333,2,object_05,5,2541,0,6,3,desert_5,2,memory-2step-stake-s,735,3108392,0.0-19.0-0.1-0.201,A25OK203N0QYH2,30UZJB2PPKSSO21QHKUJ0S8JS3B35M,3QHK8ZVMIQYEF56IE2UYOKYFWX9BLR,2,1
202,4,object_10,object_02,984.32500008494,8,1,316.4800000377,0.2222222222222222,2,object_05,1,2543,0,6,2,restaurant_1,2,memory-2step-stake-s,736,3116138,0.0-19.0-0.1-0.202,A25OK203N0QYH2,30UZJB2PPKSSO21QHKUJ0S8JS3B35M,3QHK8ZVMIQYEF56IE2UYOKYFWX9BLR,8,7
203,3,object_08,object_01,1380.7449999731,5,2,384.19999997132,0.3333333333333333,1,object_04,1,2546,0,3,0,library_2,2,memory-2step-stake-s,737,3124053,0.0-19.0-0.1-0.203,A25OK203N0QYH2,30UZJB2PPKSSO21QHKUJ0S8JS3B35M,3QHK8ZVMIQYEF56IE2UYOKYFWX9BLR,6,5
204,4,object_02,object_10,1138.5200000368,7,1,403.4850000171,0.3333333333333333,1,object_04,1,2549,0,3,0,restaurant_2,2,memory-2step-stake-s,738,3131986,0.0-19.0-0.1-0.204,A25OK203N0QYH2,30UZJB2PPKSSO21QHKUJ0S8JS3B35M,3QHK8ZVMIQYEF56IE2UYOKYFWX9BLR,7,8
205,3,object_01,object_08,1020.3850000398,5,1,306.04499997571,0.6666666666666666,1,object_04,5,2579,0,6,2,library_1,2,memory-2step-stake-s,739,3140131,0.0-19.0-0.1-0.205,A25OK203N0QYH2,30UZJB2PPKSSO21QHKUJ0S8JS3B35M,3QHK8ZVMIQYEF56IE2UYOKYFWX9BLR,5,6
206,1,object_07,object_06,714.79500003625,2,1,304.37499994878,0.0,2,object_05,5,2579,0,5,0,desert_8,2,memory-2step-stake-s,740,3147663,0.0-19.0-0.1-0.206,A25OK203N0QYH2,30UZJB2PPKSSO21QHKUJ0S8JS3B35M,3QHK8ZVMIQYEF56IE2UYOKYFWX9BLR,2,1
207,4,object_10,object_02,1243.5899999691,7,2,386.72000006773,0.5555555555555556,1,object_04,1,2584,0,5,3,restaurant_7,2,memory-2step-stake-s,741,3155785,0.0-19.0-0.1-0.207,A25OK203N0QYH2,30UZJB2PPKSSO21QHKUJ0S8JS3B35M,3QHK8ZVMIQYEF56IE2UYOKYFWX9BLR,8,7
208,3,object_01,object_08,1110.619999934,6,2,320.73999999557,0.2222222222222222,2,object_05,1,2586,0,5,2,library_8,2,memory-2step-stake-s,742,3163537,0.0-19.0-0.1-0.208,A25OK203N0QYH2,30UZJB2PPKSSO21QHKUJ0S8JS3B35M,3QHK8ZVMIQYEF56IE2UYOKYFWX9BLR,5,6
209,3,object_01,object_08,869.12000004668,5,1,316.08499994036,0.4444444444444444,1,object_04,1,2590,0,4,2,library_2,2,memory-2step-stake-s,743,3171485,0.0-19.0-0.1-0.209,A25OK203N0QYH2,30UZJB2PPKSSO21QHKUJ0S8JS3B35M,3QHK8ZVMIQYEF56IE2UYOKYFWX9BLR,5,6
210,4,object_02,object_10,938.49499989301,7,1,673.30000002403,0.7777777777777778,1,object_04,1,2597,0,7,1,restaurant_8,2,memory-2step-stake-s,744,3180107,0.0-19.0-0.1-0.210,A25OK203N0QYH2,30UZJB2PPKSSO21QHKUJ0S8JS3B35M,3QHK8ZVMIQYEF56IE2UYOKYFWX9BLR,7,8
211,4,object_10,object_02,1167.4450000282,7,2,485.2200000314,0.6666666666666666,1,object_04,1,2603,0,6,1,restaurant_1,2,memory-2step-stake-s,745,3188436,0.0-19.0-0.1-0.211,A25OK203N0QYH2,30UZJB2PPKSSO21QHKUJ0S8JS3B35M,3QHK8ZVMIQYEF56IE2UYOKYFWX9BLR,8,7
212,2,object_09,object_03,859.36499992386,4,1,364.81499997899,0.1111111111111111,2,object_05,5,2608,0,8,1,forest_2,2,memory-2step-stake-s,746,3196127,0.0-19.0-0.1-0.212,A25OK203N0QYH2,30UZJB2PPKSSO21QHKUJ0S8JS3B35M,3QHK8ZVMIQYEF56IE2UYOKYFWX9BLR,4,3
213,1,object_06,object_07,787.1799999848,2,2,293.12000004575,0.2222222222222222,2,object_05,5,2618,0,9,2,desert_4,2,memory-2step-stake-s,747,3203850,0.0-19.0-0.1-0.213,A25OK203N0QYH2,30UZJB2PPKSSO21QHKUJ0S8JS3B35M,3QHK8ZVMIQYEF56IE2UYOKYFWX9BLR,1,2
214,1,object_06,object_07,1318.6500000302,2,2,429.16499997955,0.3333333333333333,2,object_05,5,2633,0,8,3,desert_8,2,memory-2step-stake-s,748,3211811,0.0-19.0-0.1-0.214,A25OK203N0QYH2,30UZJB2PPKSSO21QHKUJ0S8JS3B35M,3QHK8ZVMIQYEF56IE2UYOKYFWX9BLR,1,2
215,3,object_08,object_01,-1.0,-1,-1,-1.0,0.0,-,0,1,2633,0,8,5,library_4,2,memory-2step-stake-s,749,3218330,0.0-19.0-0.1-0.215,A25OK203N0QYH2,30UZJB2PPKSSO21QHKUJ0S8JS3B35M,3QHK8ZVMIQYEF56IE2UYOKYFWX9BLR,6,5
216,2,object_09,object_03,1073.4900000971,3,2,674.15500001516,1.0,1,object_04,1,2642,0,9,7,forest_2,2,memory-2step-stake-s,750,3227138,0.0-19.0-0.1-0.216,A25OK203N0QYH2,30UZJB2PPKSSO21QHKUJ0S8JS3B35M,3QHK8ZVMIQYEF56IE2UYOKYFWX9BLR,4,3
217,1,object_06,object_07,755.24999992922,2,2,304.54000004102,0.8888888888888888,2,object_05,5,2682,0,6,8,desert_8,2,memory-2step-stake-s,751,3235482,0.0-19.0-0.1-0.217,A25OK203N0QYH2,30UZJB2PPKSSO21QHKUJ0S8JS3B35M,3QHK8ZVMIQYEF56IE2UYOKYFWX9BLR,1,2
218,1,object_07,object_06,829.83499998227,2,1,248.63499996718,0.8888888888888888,2,object_05,5,2722,0,5,8,desert_8,2,memory-2step-stake-s,752,3243771,0.0-19.0-0.1-0.218,A25OK203N0QYH2,30UZJB2PPKSSO21QHKUJ0S8JS3B35M,3QHK8ZVMIQYEF56IE2UYOKYFWX9BLR,2,1
219,1,object_06,object_07,826.91499998327,2,2,305.41999998968,0.7777777777777778,2,object_05,5,2757,0,4,7,desert_5,2,memory-2step-stake-s,753,3252017,0.0-19.0-0.1-0.219,A25OK203N0QYH2,30UZJB2PPKSSO21QHKUJ0S8JS3B35M,3QHK8ZVMIQYEF56IE2UYOKYFWX9BLR,1,2
220,3,object_08,object_01,1258.434999967,6,1,406.65999997873,0.8888888888888888,2,object_05,5,2797,0,4,8,library_8,2,memory-2step-stake-s,754,3260456,0.0-19.0-0.1-0.220,A25OK203N0QYH2,30UZJB2PPKSSO21QHKUJ0S8JS3B35M,3QHK8ZVMIQYEF56IE2UYOKYFWX9BLR,6,5
221,3,object_01,object_08,1189.4949999405,6,2,270.91000007931,0.7777777777777778,2,object_05,1,2804,0,4,7,library_4,2,memory-2step-stake-s,755,3268667,0.0-19.0-0.1-0.221,A25OK203N0QYH2,30UZJB2PPKSSO21QHKUJ0S8JS3B35M,3QHK8ZVMIQYEF56IE2UYOKYFWX9BLR,5,6
222,1,object_06,object_07,835.78500000294,2,2,317.69499997608,0.6666666666666666,2,object_05,5,2834,0,3,6,desert_7,2,memory-2step-stake-s,756,3276830,0.0-19.0-0.1-0.222,A25OK203N0QYH2,30UZJB2PPKSSO21QHKUJ0S8JS3B35M,3QHK8ZVMIQYEF56IE2UYOKYFWX9BLR,1,2
223,3,object_08,object_01,943.68499994744,6,1,323.9749999484,0.3333333333333333,2,object_05,1,2837,0,4,3,library_2,2,memory-2step-stake-s,757,3284683,0.0-19.0-0.1-0.223,A25OK203N0QYH2,30UZJB2PPKSSO21QHKUJ0S8JS3B35M,3QHK8ZVMIQYEF56IE2UYOKYFWX9BLR,6,5
224,1,object_06,object_07,737.10000002757,2,2,284.74500006996,0.2222222222222222,2,object_05,5,2847,0,3,2,desert_7,2,memory-2step-stake-s,758,3292397,0.0-19.0-0.1-0.224,A25OK203N0QYH2,30UZJB2PPKSSO21QHKUJ0S8JS3B35M,3QHK8ZVMIQYEF56IE2UYOKYFWX9BLR,1,2
225,1,object_06,object_07,708.44499999657,2,2,276.56000002753,0.2222222222222222,2,object_05,5,2857,0,0,2,desert_8,2,memory-2step-stake-s,759,3300101,0.0-19.0-0.1-0.225,A25OK203N0QYH2,30UZJB2PPKSSO21QHKUJ0S8JS3B35M,3QHK8ZVMIQYEF56IE2UYOKYFWX9BLR,1,2
226,1,object_06,object_07,697.87999999244,2,2,351.03500005789,0.1111111111111111,2,object_05,5,2862,0,2,1,desert_4,2,memory-2step-stake-s,760,3307779,0.0-19.0-0.1-0.226,A25OK203N0QYH2,30UZJB2PPKSSO21QHKUJ0S8JS3B35M,3QHK8ZVMIQYEF56IE2UYOKYFWX9BLR,1,2
227,2,object_03,object_09,906.2350000022,3,1,277.37499994691,0.0,1,object_04,5,2862,0,0,2,forest_4,2,memory-2step-stake-s,761,3315282,0.0-19.0-0.1-0.227,A25OK203N0QYH2,30UZJB2PPKSSO21QHKUJ0S8JS3B35M,3QHK8ZVMIQYEF56IE2UYOKYFWX9BLR,3,4
228,4,object_02,object_10,915.63499998301,7,1,1184.5200000098,0.2222222222222222,1,object_04,1,2864,0,2,2,restaurant_8,2,memory-2step-stake-s,762,3323905,0.0-19.0-0.1-0.228,A25OK203N0QYH2,30UZJB2PPKSSO21QHKUJ0S8JS3B35M,3QHK8ZVMIQYEF56IE2UYOKYFWX9BLR,7,8
229,3,object_08,object_01,1425.5050000502,5,2,392.14000001084,0.3333333333333333,1,object_04,1,2867,0,3,2,library_2,2,memory-2step-stake-s,763,3331827,0.0-19.0-0.1-0.229,A25OK203N0QYH2,30UZJB2PPKSSO21QHKUJ0S8JS3B35M,3QHK8ZVMIQYEF56IE2UYOKYFWX9BLR,6,5
230,2,object_03,object_09,1112.3999999836,4,2,293.05500001647,0.0,2,object_05,5,2867,0,2,0,forest_2,2,memory-2step-stake-s,764,3339345,0.0-19.0-0.1-0.230,A25OK203N0QYH2,30UZJB2PPKSSO21QHKUJ0S8JS3B35M,3QHK8ZVMIQYEF56IE2UYOKYFWX9BLR,3,4
231,4,object_10,object_02,1396.9000000507,8,1,370.56000006851,0.2222222222222222,2,object_05,1,2869,0,0,2,restaurant_8,2,memory-2step-stake-s,765,3347148,0.0-19.0-0.1-0.231,A25OK203N0QYH2,30UZJB2PPKSSO21QHKUJ0S8JS3B35M,3QHK8ZVMIQYEF56IE2UYOKYFWX9BLR,8,7
232,4,object_02,object_10,1325.9900000412,7,1,599.1900000954,0.1111111111111111,1,object_04,1,2870,0,1,2,restaurant_7,2,memory-2step-stake-s,766,3355073,0.0-19.0-0.1-0.232,A25OK203N0QYH2,30UZJB2PPKSSO21QHKUJ0S8JS3B35M,3QHK8ZVMIQYEF56IE2UYOKYFWX9BLR,7,8
233,3,object_08,object_01,1207.0050000912,6,1,526.76999999676,0.0,2,object_05,5,2870,0,3,0,library_2,2,memory-2step-stake-s,767,3362835,0.0-19.0-0.1-0.233,A25OK203N0QYH2,30UZJB2PPKSSO21QHKUJ0S8JS3B35M,3QHK8ZVMIQYEF56IE2UYOKYFWX9BLR,6,5
234,1,object_07,object_06,825.85999998264,2,1,354.47000002023,0.1111111111111111,2,object_05,5,2875,0,2,1,desert_7,2,memory-2step-stake-s,768,3370519,0.0-19.0-0.1-0.234,A25OK203N0QYH2,30UZJB2PPKSSO21QHKUJ0S8JS3B35M,3QHK8ZVMIQYEF56IE2UYOKYFWX9BLR,2,1
235,2,object_03,object_09,1058.5100000026,4,2,335.8550000703,0.3333333333333333,2,object_05,5,2890,0,1,3,forest_5,2,memory-2step-stake-s,769,3378386,0.0-19.0-0.1-0.235,A25OK203N0QYH2,30UZJB2PPKSSO21QHKUJ0S8JS3B35M,3QHK8ZVMIQYEF56IE2UYOKYFWX9BLR,3,4
236,2,object_03,object_09,905.50500003155,4,2,284.28999998141,0.2222222222222222,2,object_05,5,2900,0,2,2,forest_4,2,memory-2step-stake-s,770,3386099,0.0-19.0-0.1-0.236,A25OK203N0QYH2,30UZJB2PPKSSO21QHKUJ0S8JS3B35M,3QHK8ZVMIQYEF56IE2UYOKYFWX9BLR,3,4
237,3,object_08,object_01,997.55999993067,5,2,286.64000006393,0.2222222222222222,1,object_04,1,2902,0,2,3,library_2,2,memory-2step-stake-s,771,3393820,0.0-19.0-0.1-0.237,A25OK203N0QYH2,30UZJB2PPKSSO21QHKUJ0S8JS3B35M,3QHK8ZVMIQYEF56IE2UYOKYFWX9BLR,6,5
238,1,object_07,object_06,1083.5299999453,1,2,279.60000000894,0.3333333333333333,1,object_04,5,2917,0,3,6,desert_5,2,memory-2step-stake-s,772,3401628,0.0-19.0-0.1-0.238,A25OK203N0QYH2,30UZJB2PPKSSO21QHKUJ0S8JS3B35M,3QHK8ZVMIQYEF56IE2UYOKYFWX9BLR,2,1
239,4,object_10,object_02,1115.2900001034,8,1,324.88500000909,0.4444444444444444,2,object_05,1,2921,0,4,4,restaurant_1,2,memory-2step-stake-s,773,3409589,0.0-19.0-0.1-0.239,A25OK203N0QYH2,30UZJB2PPKSSO21QHKUJ0S8JS3B35M,3QHK8ZVMIQYEF56IE2UYOKYFWX9BLR,8,7
240,1,object_06,object_07,640.61500004027,2,2,502.98500002827,0.4444444444444444,2,object_05,5,2941,0,6,4,desert_4,2,memory-2step-stake-s,774,3417725,0.0-19.0-0.1-0.240,A25OK203N0QYH2,30UZJB2PPKSSO21QHKUJ0S8JS3B35M,3QHK8ZVMIQYEF56IE2UYOKYFWX9BLR,1,2
241,4,object_10,object_02,1097.2900000634,8,1,299.44499989506,0.5555555555555556,2,object_05,1,2946,0,4,5,restaurant_1,2,memory-2step-stake-s,775,3425756,0.0-19.0-0.1-0.241,A25OK203N0QYH2,30UZJB2PPKSSO21QHKUJ0S8JS3B35M,3QHK8ZVMIQYEF56IE2UYOKYFWX9BLR,8,7
242,3,object_01,object_08,878.06999997701,5,1,320.93000004534,0.5555555555555556,1,object_04,1,2951,0,5,5,library_4,2,memory-2step-stake-s,776,3433821,0.0-19.0-0.1-0.242,A25OK203N0QYH2,30UZJB2PPKSSO21QHKUJ0S8JS3B35M,3QHK8ZVMIQYEF56IE2UYOKYFWX9BLR,5,6
243,2,object_09,object_03,978.45999989659,4,1,323.17500002682,0.5555555555555556,2,object_05,5,2976,0,4,5,forest_2,2,memory-2step-stake-s,777,3441878,0.0-19.0-0.1-0.243,A25OK203N0QYH2,30UZJB2PPKSSO21QHKUJ0S8JS3B35M,3QHK8ZVMIQYEF56IE2UYOKYFWX9BLR,4,3
244,2,object_03,object_09,818.15499998629,4,2,308.78500000108,0.7777777777777778,2,object_05,5,3011,0,7,7,forest_3,2,memory-2step-stake-s,778,3450128,0.0-19.0-0.1-0.244,A25OK203N0QYH2,30UZJB2PPKSSO21QHKUJ0S8JS3B35M,3QHK8ZVMIQYEF56IE2UYOKYFWX9BLR,3,4
245,1,object_06,object_07,708.43500003684,2,2,250.80500007607,0.7777777777777778,2,object_05,1,3018,0,8,7,desert_4,2,memory-2step-stake-s,779,3458321,0.0-19.0-0.1-0.245,A25OK203N0QYH2,30UZJB2PPKSSO21QHKUJ0S8JS3B35M,3QHK8ZVMIQYEF56IE2UYOKYFWX9BLR,1,2
246,2,object_03,object_09,973.98500004783,3,1,250.75000000652,0.8888888888888888,1,object_04,5,3058,0,8,8,forest_3,2,memory-2step-stake-s,780,3466610,0.0-19.0-0.1-0.246,A25OK203N0QYH2,30UZJB2PPKSSO21QHKUJ0S8JS3B35M,3QHK8ZVMIQYEF56IE2UYOKYFWX9BLR,3,4
247,1,object_06,object_07,1037.2950000456,2,2,273.83999992162,0.7777777777777778,2,object_05,5,3093,0,9,7,desert_4,2,memory-2step-stake-s,781,3474821,0.0-19.0-0.1-0.247,A25OK203N0QYH2,30UZJB2PPKSSO21QHKUJ0S8JS3B35M,3QHK8ZVMIQYEF56IE2UYOKYFWX9BLR,1,2
248,4,object_10,object_02,891.10000000801,8,1,277.95500005595,0.6666666666666666,2,object_05,1,3099,0,8,6,restaurant_2,2,memory-2step-stake-s,782,3482943,0.0-19.0-0.1-0.248,A25OK203N0QYH2,30UZJB2PPKSSO21QHKUJ0S8JS3B35M,3QHK8ZVMIQYEF56IE2UYOKYFWX9BLR,8,7
249,1,object_06,object_07,965.03500000108,1,1,255.35500003025,0.6666666666666666,1,object_04,1,3105,0,6,6,desert_8,2,memory-2step-stake-s,783,3491038,0.0-19.0-0.1-0.249,A25OK203N0QYH2,30UZJB2PPKSSO21QHKUJ0S8JS3B35M,3QHK8ZVMIQYEF56IE2UYOKYFWX9BLR,1,2
250,2,object_03,object_09,868.35000000428,4,2,277.59999991395,0.5555555555555556,2,object_05,5,3130,0,7,5,forest_5,2,memory-2step-stake-s,784,3499055,0.0-19.0-0.1-0.250,A25OK203N0QYH2,30UZJB2PPKSSO21QHKUJ0S8JS3B35M,3QHK8ZVMIQYEF56IE2UYOKYFWX9BLR,3,4
251,1,object_06,object_07,786.05999995489,1,1,282.00500004459,0.5555555555555556,1,object_04,5,3155,0,5,6,desert_5,2,memory-2step-stake-s,785,3507067,0.0-19.0-0.1-0.251,A25OK203N0QYH2,30UZJB2PPKSSO21QHKUJ0S8JS3B35M,3QHK8ZVMIQYEF56IE2UYOKYFWX9BLR,1,2
252,2,object_03,object_09,1254.370000097,4,2,370.80999999307,0.5555555555555556,2,object_05,5,3180,0,6,5,forest_2,2,memory-2step-stake-s,786,3515173,0.0-19.0-0.1-0.252,A25OK203N0QYH2,30UZJB2PPKSSO21QHKUJ0S8JS3B35M,3QHK8ZVMIQYEF56IE2UYOKYFWX9BLR,3,4
253,1,object_06,object_07,705.89500002097,1,1,246.73000001349,0.2222222222222222,1,object_04,5,3190,0,2,8,desert_7,2,memory-2step-stake-s,787,3522843,0.0-19.0-0.1-0.253,A25OK203N0QYH2,30UZJB2PPKSSO21QHKUJ0S8JS3B35M,3QHK8ZVMIQYEF56IE2UYOKYFWX9BLR,1,2
254,3,object_08,object_01,690.67000003997,6,1,1087.3400000855,0.7777777777777778,2,object_05,1,3197,0,2,7,library_2,2,memory-2step-stake-s,788,3531863,0.0-19.0-0.1-0.254,A25OK203N0QYH2,30UZJB2PPKSSO21QHKUJ0S8JS3B35M,3QHK8ZVMIQYEF56IE2UYOKYFWX9BLR,6,5
255,1,object_07,object_06,984.26499997731,2,1,268.12999998219,0.6666666666666666,2,object_05,5,3227,0,5,6,desert_5,2,memory-2step-stake-s,789,3539970,0.0-19.0-0.1-0.255,A25OK203N0QYH2,30UZJB2PPKSSO21QHKUJ0S8JS3B35M,3QHK8ZVMIQYEF56IE2UYOKYFWX9BLR,2,1
